keySpace.keys,instructions.thisRepN,instructions.thisTrialN,instructions.thisN,instructions.thisIndex,instructions.ran,participant,date,expName,psychopyVersion,OS,frameRate,mouse.x,mouse.y,mouse.leftButton,mouse.midButton,mouse.rightButton,mouse.time,mouse.clicked_name,training.thisRepN,training.thisTrialN,training.thisN,training.thisIndex,training.ran,widthBasketLeft,heightBasketLeft,widthBasketRight,heightBasketRight,leftLake,rightLake,space2.keys,space2.rt,space1.keys,trials.thisRepN,trials.thisTrialN,trials.thisN,trials.thisIndex,trials.ran,space1.rt,finalSpace1.keys,finalSpace1.rt,finalSpace2.keys,finalSpace2.rt
,0,0,0,0,1,$5f0bba80da28834e7c942c06,2020-07-21_15h56.47.280,fisher_task,2020.1.3,Win32,60,,,,,,,,,,,,,,,,,,,,,,,,,,,,,,,
,,,,,,$5f0bba80da28834e7c942c06,2020-07-21_15h56.47.280,fisher_task,2020.1.3,Win32,60,0.178703704,-0.440740741,1,0,0,7.798995,scale,0,0,0,0,1,0.275930788,0.223606798,0.275930788,0.223606798,stimuli/training/20_left.png,stimuli/training/20_right.png,,,,,,,,,,,,,
,,,,,,$5f0bba80da28834e7c942c06,2020-07-21_15h56.47.280,fisher_task,2020.1.3,Win32,60,0.181481481,-0.432407407,1,0,0,2.6316,scale,0,1,1,1,1,0.275930788,0.223606798,0.275930788,0.223606798,stimuli/training/80_left.png,stimuli/training/80_right.png,,,,,,,,,,,,,
,,,,,,$5f0bba80da28834e7c942c06,2020-07-21_15h56.47.280,fisher_task,2020.1.3,Win32,60,-0.162962963,-0.437037037,1,0,0,7.00685,scale,0,2,2,2,1,0.174513954,0.141421356,0.349027907,0.282842712,stimuli/training/50_left.png,stimuli/training/50_right.png,,,,,,,,,,,,,
,,,,,,$5f0bba80da28834e7c942c06,2020-07-21_15h56.47.280,fisher_task,2020.1.3,Win32,60,0.171296296,-0.442592593,1,0,0,3.277375,scale,0,3,3,3,1,0.349027907,0.282842712,0.174513954,0.141421356,stimuli/training/50_left.png,stimuli/training/50_right.png,,,,,,,,,,,,,
,,,,,,$5f0bba80da28834e7c942c06,2020-07-21_15h56.47.280,fisher_task,2020.1.3,Win32,60,0.164814815,-0.436111111,1,0,0,5.041565,scale,0,4,4,4,1,0.275930788,0.223606798,0.275930788,0.223606798,stimuli/training/50_left.png,stimuli/training/50_right.png,,,,,,,,,,,,,
,,,,,,$5f0bba80da28834e7c942c06,2020-07-21_15h56.47.280,fisher_task,2020.1.3,Win32,60,0.162037037,-0.438888889,1,0,0,2.29827,scale,0,5,5,5,1,0.174513954,0.141421356,0.349027907,0.282842712,stimuli/training/20_left.png,stimuli/training/20_right.png,,,,,,,,,,,,,
,,,,,,$5f0bba80da28834e7c942c06,2020-07-21_15h56.47.280,fisher_task,2020.1.3,Win32,60,-0.249074074,-0.433333333,1,0,0,2.242545,scale,0,6,6,6,1,0.349027907,0.282842712,0.174513954,0.141421356,stimuli/training/80_left.png,stimuli/training/80_right.png,,,,,,,,,,,,,
,,,,,,$5f0bba80da28834e7c942c06,2020-07-21_15h56.47.280,fisher_task,2020.1.3,Win32,60,0.158333333,-0.437037037,1,0,0,1.583175,scale,0,7,7,7,1,0.1234,0.1,0.3702,0.3,stimuli/training/30_left.png,stimuli/training/30_right.png,,,,,,,,,,,,,
,,,,,,$5f0bba80da28834e7c942c06,2020-07-21_15h56.47.280,fisher_task,2020.1.3,Win32,60,-0.156481481,-0.437962963,1,0,0,1.555365,scale,0,8,8,8,1,0.3702,0.3,0.1234,0.1,stimuli/training/70_left.png,stimuli/training/70_right.png,,,,,,,,,,,,,
,,,,,,$5f0bba80da28834e7c942c06,2020-07-21_15h56.47.280,fisher_task,2020.1.3,Win32,60,-0.159259259,-0.437037037,1,0,0,1.513575,scale,0,9,9,9,1,0.326485712,0.264575131,0.21373507,0.173205081,stimuli/training/90_left.png,stimuli/training/90_right.png,,,,,,,,,,,,,
,,,,,,$5f0bba80da28834e7c942c06,2020-07-21_15h56.47.280,fisher_task,2020.1.3,Win32,60,0.162962963,-0.433333333,1,0,0,1.29119,scale,0,10,10,10,1,0.21373507,0.173205081,0.326485712,0.264575131,stimuli/training/10_left.png,stimuli/training/10_right.png,,,,,,,,,,,,,
,,,,,,$5f0bba80da28834e7c942c06,2020-07-21_15h56.47.280,fisher_task,2020.1.3,Win32,60,0.172222222,-0.437037037,1,0,0,4.728425,scale,,,,,,0.275930788,0.223606798,0.275930788,0.223606798,stimuli/lakes/503036_left.png,stimuli/lakes/503036_right.png,space,16.827815,,0,0,0,36,1,,,,,
,,,,,,$5f0bba80da28834e7c942c06,2020-07-21_15h56.47.280,fisher_task,2020.1.3,Win32,60,0.172222222,-0.437037037,1,0,0,1.46478,scale,,,,,,0.302267034,0.244948974,0.2468,0.2,stimuli/lakes/602018_left.png,stimuli/lakes/602018_right.png,,,,0,1,1,18,1,,,,,
,,,,,,$5f0bba80da28834e7c942c06,2020-07-21_15h56.47.280,fisher_task,2020.1.3,Win32,60,0.172222222,-0.437037037,1,0,0,2.187255,scale,,,,,,0.1234,0.1,0.3702,0.3,stimuli/lakes/104050_left.png,stimuli/lakes/104050_right.png,,,,0,2,2,50,1,,,,,
,,,,,,$5f0bba80da28834e7c942c06,2020-07-21_15h56.47.280,fisher_task,2020.1.3,Win32,60,0.172222222,-0.437037037,1,0,0,1.221935,scale,,,,,,0.275930788,0.223606798,0.275930788,0.223606798,stimuli/lakes/502016_left.png,stimuli/lakes/502016_right.png,,,,0,3,3,16,1,,,,,
,,,,,,$5f0bba80da28834e7c942c06,2020-07-21_15h56.47.280,fisher_task,2020.1.3,Win32,60,-0.161111111,-0.437962963,1,0,0,1.61776,scale,,,,,,0.275930788,0.223606798,0.275930788,0.223606798,stimuli/lakes/5080113_left.png,stimuli/lakes/5080113_right.png,,,,0,4,4,113,1,,,,,
,,,,,,$5f0bba80da28834e7c942c06,2020-07-21_15h56.47.280,fisher_task,2020.1.3,Win32,60,-0.161111111,-0.437962963,1,0,0,1.03436,scale,,,,,,0.302267034,0.244948974,0.2468,0.2,stimuli/lakes/607094_left.png,stimuli/lakes/607094_right.png,,,,0,5,5,94,1,,,,,
,,,,,,$5f0bba80da28834e7c942c06,2020-07-21_15h56.47.280,fisher_task,2020.1.3,Win32,60,0.163888889,-0.431481481,1,0,0,3.0343,scale,,,,,,0.275930788,0.223606798,0.275930788,0.223606798,stimuli/lakes/504054_left.png,stimuli/lakes/504054_right.png,,,,0,6,6,54,1,,,,,
,,,,,,$5f0bba80da28834e7c942c06,2020-07-21_15h56.47.280,fisher_task,2020.1.3,Win32,60,-0.137037037,-0.315740741,1,0,0,3.583025,scale,,,,,,0.326485712,0.264575131,0.21373507,0.173205081,stimuli/lakes/705068_left.png,stimuli/lakes/705068_right.png,,,,0,7,7,68,1,,,,,
,,,,,,$5f0bba80da28834e7c942c06,2020-07-21_15h56.47.280,fisher_task,2020.1.3,Win32,60,-0.152777778,-0.436111111,1,0,0,2.471885,scale,,,,,,0.2468,0.2,0.302267034,0.244948974,stimuli/lakes/4070101_left.png,stimuli/lakes/4070101_right.png,,,,0,8,8,101,1,,,,,
,,,,,,$5f0bba80da28834e7c942c06,2020-07-21_15h56.47.280,fisher_task,2020.1.3,Win32,60,0.167592593,-0.432407407,1,0,0,2.0829,scale,,,,,,0.3702,0.3,0.1234,0.1,stimuli/lakes/903031_left.png,stimuli/lakes/903031_right.png,,,,0,9,9,31,1,,,,,
,,,,,,$5f0bba80da28834e7c942c06,2020-07-21_15h56.47.280,fisher_task,2020.1.3,Win32,60,-0.134259259,-0.436111111,1,0,0,4.06205,scale,,,,,,0.2468,0.2,0.302267034,0.244948974,stimuli/lakes/405064_left.png,stimuli/lakes/405064_right.png,,,,0,10,10,64,1,,,,,
,,,,,,$5f0bba80da28834e7c942c06,2020-07-21_15h56.47.280,fisher_task,2020.1.3,Win32,60,0.136111111,-0.424074074,1,0,0,1.360605,scale,,,,,,0.174513954,0.141421356,0.349027907,0.282842712,stimuli/lakes/203033_left.png,stimuli/lakes/203033_right.png,,,,0,11,11,33,1,,,,,
,,,,,,$5f0bba80da28834e7c942c06,2020-07-21_15h56.47.280,fisher_task,2020.1.3,Win32,60,-0.159259259,-0.431481481,1,0,0,1.666385,scale,,,,,,0.302267034,0.244948974,0.2468,0.2,stimuli/lakes/6090127_left.png,stimuli/lakes/6090127_right.png,,,,0,12,12,127,1,,,,,
,,,,,,$5f0bba80da28834e7c942c06,2020-07-21_15h56.47.280,fisher_task,2020.1.3,Win32,60,-0.159259259,-0.431481481,1,0,0,0.94421,scale,,,,,,0.326485712,0.264575131,0.21373507,0.173205081,stimuli/lakes/7080117_left.png,stimuli/lakes/7080117_right.png,,,,0,13,13,117,1,,,,,
,,,,,,$5f0bba80da28834e7c942c06,2020-07-21_15h56.47.280,fisher_task,2020.1.3,Win32,60,-0.159259259,-0.431481481,1,0,0,1.79144,scale,,,,,,0.326485712,0.264575131,0.21373507,0.173205081,stimuli/lakes/707095_left.png,stimuli/lakes/707095_right.png,,,,0,14,14,95,1,,,,,
,,,,,,$5f0bba80da28834e7c942c06,2020-07-21_15h56.47.280,fisher_task,2020.1.3,Win32,60,0.148148148,-0.436111111,1,0,0,1.48584,scale,,,,,,0.326485712,0.264575131,0.21373507,0.173205081,stimuli/lakes/70108_left.png,stimuli/lakes/70108_right.png,,,,0,15,15,8,1,,,,,
,,,,,,$5f0bba80da28834e7c942c06,2020-07-21_15h56.47.280,fisher_task,2020.1.3,Win32,60,-0.133333333,-0.432407407,1,0,0,1.444205,scale,,,,,,0.275930788,0.223606798,0.275930788,0.223606798,stimuli/lakes/5090125_left.png,stimuli/lakes/5090125_right.png,,,,0,16,16,125,1,,,,,
,,,,,,$5f0bba80da28834e7c942c06,2020-07-21_15h56.47.280,fisher_task,2020.1.3,Win32,60,-0.164814815,-0.436111111,1,0,0,1.05515,scale,,,,,,0.326485712,0.264575131,0.21373507,0.173205081,stimuli/lakes/7090128_left.png,stimuli/lakes/7090128_right.png,,,,0,17,17,128,1,,,,,
,,,,,,$5f0bba80da28834e7c942c06,2020-07-21_15h56.47.280,fisher_task,2020.1.3,Win32,60,-0.168518519,-0.444444444,1,0,0,1.11086,scale,,,,,,0.174513954,0.141421356,0.349027907,0.282842712,stimuli/lakes/207099_left.png,stimuli/lakes/207099_right.png,,,,0,18,18,99,1,,,,,
,,,,,,$5f0bba80da28834e7c942c06,2020-07-21_15h56.47.280,fisher_task,2020.1.3,Win32,60,0.146296296,-0.42962963,1,0,0,1.055255,scale,,,,,,0.326485712,0.264575131,0.21373507,0.173205081,stimuli/lakes/703038_left.png,stimuli/lakes/703038_right.png,,,,0,19,19,38,1,,,,,
,,,,,,$5f0bba80da28834e7c942c06,2020-07-21_15h56.47.280,fisher_task,2020.1.3,Win32,60,-0.162037037,-0.414814815,1,0,0,4.298325,scale,,,,,,0.21373507,0.173205081,0.326485712,0.264575131,stimuli/lakes/305062_left.png,stimuli/lakes/305062_right.png,,,,0,20,20,62,1,,,,,
,,,,,,$5f0bba80da28834e7c942c06,2020-07-21_15h56.47.280,fisher_task,2020.1.3,Win32,60,-0.17037037,-0.416666667,1,0,0,1.18023,scale,,,,,,0.174513954,0.141421356,0.349027907,0.282842712,stimuli/lakes/206072_left.png,stimuli/lakes/206072_right.png,,,,0,21,21,72,1,,,,,
,,,,,,$5f0bba80da28834e7c942c06,2020-07-21_15h56.47.280,fisher_task,2020.1.3,Win32,60,-0.159259259,-0.435185185,1,0,0,2.194095,scale,,,,,,0.326485712,0.264575131,0.21373507,0.173205081,stimuli/lakes/706086_left.png,stimuli/lakes/706086_right.png,,,space,0,22,22,86,1,5.80992,,,,
,,,,,,$5f0bba80da28834e7c942c06,2020-07-21_15h56.47.280,fisher_task,2020.1.3,Win32,60,0.169444444,-0.432407407,1,0,0,1.20106,scale,,,,,,0.174513954,0.141421356,0.349027907,0.282842712,stimuli/lakes/202011_left.png,stimuli/lakes/202011_right.png,,,,0,23,23,11,1,,,,,
,,,,,,$5f0bba80da28834e7c942c06,2020-07-21_15h56.47.280,fisher_task,2020.1.3,Win32,60,-0.151851852,-0.428703704,1,0,0,1.076195,scale,,,,,,0.1234,0.1,0.3702,0.3,stimuli/lakes/107098_left.png,stimuli/lakes/107098_right.png,,,,0,24,24,98,1,,,,,
,,,,,,$5f0bba80da28834e7c942c06,2020-07-21_15h56.47.280,fisher_task,2020.1.3,Win32,60,0.158333333,-0.430555556,1,0,0,1.235745,scale,,,,,,0.3702,0.3,0.1234,0.1,stimuli/lakes/903040_left.png,stimuli/lakes/903040_right.png,,,,0,25,25,40,1,,,,,
,,,,,,$5f0bba80da28834e7c942c06,2020-07-21_15h56.47.280,fisher_task,2020.1.3,Win32,60,-0.159259259,-0.426851852,1,0,0,1.020525,scale,,,,,,0.302267034,0.244948974,0.2468,0.2,stimuli/lakes/6080114_left.png,stimuli/lakes/6080114_right.png,,,,0,26,26,114,1,,,,,
,,,,,,$5f0bba80da28834e7c942c06,2020-07-21_15h56.47.280,fisher_task,2020.1.3,Win32,60,0.137037037,-0.422222222,1,0,0,1.117685,scale,,,,,,0.275930788,0.223606798,0.275930788,0.223606798,stimuli/lakes/503027_left.png,stimuli/lakes/503027_right.png,,,,0,27,27,27,1,,,,,
,,,,,,$5f0bba80da28834e7c942c06,2020-07-21_15h56.47.280,fisher_task,2020.1.3,Win32,60,-0.134259259,-0.425,1,0,0,1.110835,scale,,,,,,0.2468,0.2,0.302267034,0.244948974,stimuli/lakes/4080112_left.png,stimuli/lakes/4080112_right.png,,,,0,28,28,112,1,,,,,
,,,,,,$5f0bba80da28834e7c942c06,2020-07-21_15h56.47.280,fisher_task,2020.1.3,Win32,60,-0.144444444,-0.434259259,1,0,0,1.31239,scale,,,,,,0.275930788,0.223606798,0.275930788,0.223606798,stimuli/lakes/507093_left.png,stimuli/lakes/507093_right.png,,,,0,29,29,93,1,,,,,
,,,,,,$5f0bba80da28834e7c942c06,2020-07-21_15h56.47.280,fisher_task,2020.1.3,Win32,60,-0.144444444,-0.433333333,1,0,0,2.166125,scale,,,,,,0.2468,0.2,0.302267034,0.244948974,stimuli/lakes/406074_left.png,stimuli/lakes/406074_right.png,,,,0,30,30,74,1,,,,,
,,,,,,$5f0bba80da28834e7c942c06,2020-07-21_15h56.47.280,fisher_task,2020.1.3,Win32,60,0.150925926,-0.435185185,1,0,0,1.214835,scale,,,,,,0.3702,0.3,0.1234,0.1,stimuli/lakes/902022_left.png,stimuli/lakes/902022_right.png,,,,0,31,31,22,1,,,,,
,,,,,,$5f0bba80da28834e7c942c06,2020-07-21_15h56.47.280,fisher_task,2020.1.3,Win32,60,-0.153703704,-0.432407407,1,0,0,3.228905,scale,,,,,,0.302267034,0.244948974,0.2468,0.2,stimuli/lakes/605066_left.png,stimuli/lakes/605066_right.png,,,,0,32,32,66,1,,,,,
,,,,,,$5f0bba80da28834e7c942c06,2020-07-21_15h56.47.280,fisher_task,2020.1.3,Win32,60,-0.153703704,-0.432407407,1,0,0,1.166115,scale,,,,,,0.349027907,0.282842712,0.174513954,0.141421356,stimuli/lakes/806087_left.png,stimuli/lakes/806087_right.png,,,,0,33,33,87,1,,,,,
,,,,,,$5f0bba80da28834e7c942c06,2020-07-21_15h56.47.280,fisher_task,2020.1.3,Win32,60,0.168518519,-0.423148148,1,0,0,1.353805,scale,,,,,,0.21373507,0.173205081,0.326485712,0.264575131,stimuli/lakes/303034_left.png,stimuli/lakes/303034_right.png,,,,0,34,34,34,1,,,,,
,,,,,,$5f0bba80da28834e7c942c06,2020-07-21_15h56.47.280,fisher_task,2020.1.3,Win32,60,0.165740741,-0.424074074,1,0,0,0.937285,scale,,,,,,0.326485712,0.264575131,0.21373507,0.173205081,stimuli/lakes/702019_left.png,stimuli/lakes/702019_right.png,,,,0,35,35,19,1,,,,,
,,,,,,$5f0bba80da28834e7c942c06,2020-07-21_15h56.47.280,fisher_task,2020.1.3,Win32,60,0.165740741,-0.424074074,1,0,0,1.62466,scale,,,,,,0.21373507,0.173205081,0.326485712,0.264575131,stimuli/lakes/304052_left.png,stimuli/lakes/304052_right.png,,,,0,36,36,52,1,,,,,
,,,,,,$5f0bba80da28834e7c942c06,2020-07-21_15h56.47.280,fisher_task,2020.1.3,Win32,60,0.163888889,-0.424074074,1,0,0,1.61729,scale,,,,,,0.3702,0.3,0.1234,0.1,stimuli/lakes/904058_left.png,stimuli/lakes/904058_right.png,,,,0,37,37,58,1,,,,,
,,,,,,$5f0bba80da28834e7c942c06,2020-07-21_15h56.47.280,fisher_task,2020.1.3,Win32,60,-0.17037037,-0.430555556,1,0,0,1.444145,scale,,,,,,0.21373507,0.173205081,0.326485712,0.264575131,stimuli/lakes/3070100_left.png,stimuli/lakes/3070100_right.png,,,,0,38,38,100,1,,,,,
,,,,,,$5f0bba80da28834e7c942c06,2020-07-21_15h56.47.280,fisher_task,2020.1.3,Win32,60,0.142592593,-0.433333333,1,0,0,1.652345,scale,,,,,,0.302267034,0.244948974,0.2468,0.2,stimuli/lakes/603037_left.png,stimuli/lakes/603037_right.png,,,,0,39,39,37,1,,,,,
,,,,,,$5f0bba80da28834e7c942c06,2020-07-21_15h56.47.280,fisher_task,2020.1.3,Win32,60,0.148148148,-0.441666667,1,0,0,0.883835,scale,,,,,,0.1234,0.1,0.3702,0.3,stimuli/lakes/103032_left.png,stimuli/lakes/103032_right.png,,,,0,40,40,32,1,,,,,
,,,,,,$5f0bba80da28834e7c942c06,2020-07-21_15h56.47.280,fisher_task,2020.1.3,Win32,60,-0.171296296,-0.431481481,1,0,0,1.034575,scale,,,,,,0.21373507,0.173205081,0.326485712,0.264575131,stimuli/lakes/306082_left.png,stimuli/lakes/306082_right.png,,,,0,41,41,82,1,,,,,
,,,,,,$5f0bba80da28834e7c942c06,2020-07-21_15h56.47.280,fisher_task,2020.1.3,Win32,60,0.187962963,-0.409259259,1,0,0,0.9995,scale,,,,,,0.21373507,0.173205081,0.326485712,0.264575131,stimuli/lakes/30100_left.png,stimuli/lakes/30100_right.png,,,,0,42,42,0,1,,,,,
,,,,,,$5f0bba80da28834e7c942c06,2020-07-21_15h56.47.280,fisher_task,2020.1.3,Win32,60,0.169444444,-0.414814815,1,0,0,1.35397,scale,,,,,,0.3702,0.3,0.1234,0.1,stimuli/lakes/904049_left.png,stimuli/lakes/904049_right.png,,,,0,43,43,49,1,,,,,
,,,,,,$5f0bba80da28834e7c942c06,2020-07-21_15h56.47.280,fisher_task,2020.1.3,Win32,60,-0.167592593,-0.419444444,1,0,0,2.562235,scale,,,,,,0.21373507,0.173205081,0.326485712,0.264575131,stimuli/lakes/306073_left.png,stimuli/lakes/306073_right.png,,,space,0,44,44,73,1,2.435725,,,,
,,,,,,$5f0bba80da28834e7c942c06,2020-07-21_15h56.47.280,fisher_task,2020.1.3,Win32,60,-0.173148148,-0.422222222,1,0,0,1.360755,scale,,,,,,0.275930788,0.223606798,0.275930788,0.223606798,stimuli/lakes/506084_left.png,stimuli/lakes/506084_right.png,,,,0,45,45,84,1,,,,,
,,,,,,$5f0bba80da28834e7c942c06,2020-07-21_15h56.47.280,fisher_task,2020.1.3,Win32,60,0.132407407,-0.437037037,1,0,0,1.64567,scale,,,,,,0.174513954,0.141421356,0.349027907,0.282842712,stimuli/lakes/204051_left.png,stimuli/lakes/204051_right.png,,,,0,46,46,51,1,,,,,
,,,,,,$5f0bba80da28834e7c942c06,2020-07-21_15h56.47.280,fisher_task,2020.1.3,Win32,60,-0.15,-0.412962963,1,0,0,1.041745,scale,,,,,,0.302267034,0.244948974,0.2468,0.2,stimuli/lakes/6070103_left.png,stimuli/lakes/6070103_right.png,,,,0,47,47,103,1,,,,,
,,,,,,$5f0bba80da28834e7c942c06,2020-07-21_15h56.47.280,fisher_task,2020.1.3,Win32,60,0.144444444,-0.425,1,0,0,0.853835,scale,,,,,,0.2468,0.2,0.302267034,0.244948974,stimuli/lakes/402015_left.png,stimuli/lakes/402015_right.png,,,,0,48,48,15,1,,,,,
,,,,,,$5f0bba80da28834e7c942c06,2020-07-21_15h56.47.280,fisher_task,2020.1.3,Win32,60,0.135185185,-0.42037037,1,0,0,1.159405,scale,,,,,,0.349027907,0.282842712,0.174513954,0.141421356,stimuli/lakes/803039_left.png,stimuli/lakes/803039_right.png,,,,0,49,49,39,1,,,,,
,,,,,,$5f0bba80da28834e7c942c06,2020-07-21_15h56.47.280,fisher_task,2020.1.3,Win32,60,-0.137037037,-0.441666667,1,0,0,3.65939,scale,,,,,,0.1234,0.1,0.3702,0.3,stimuli/lakes/105059_left.png,stimuli/lakes/105059_right.png,,,,0,50,50,59,1,,,,,
,,,,,,$5f0bba80da28834e7c942c06,2020-07-21_15h56.47.280,fisher_task,2020.1.3,Win32,60,-0.137037037,-0.441666667,1,0,0,0.69405,scale,,,,,,0.21373507,0.173205081,0.326485712,0.264575131,stimuli/lakes/3090122_left.png,stimuli/lakes/3090122_right.png,,,,0,51,51,122,1,,,,,
,,,,,,$5f0bba80da28834e7c942c06,2020-07-21_15h56.47.280,fisher_task,2020.1.3,Win32,60,0.166666667,-0.424074074,1,0,0,1.187265,scale,,,,,,0.302267034,0.244948974,0.2468,0.2,stimuli/lakes/603028_left.png,stimuli/lakes/603028_right.png,,,,0,52,52,28,1,,,,,
,,,,,,$5f0bba80da28834e7c942c06,2020-07-21_15h56.47.280,fisher_task,2020.1.3,Win32,60,0.166666667,-0.424074074,1,0,0,0.91627,scale,,,,,,0.174513954,0.141421356,0.349027907,0.282842712,stimuli/lakes/203024_left.png,stimuli/lakes/203024_right.png,,,,0,53,53,24,1,,,,,
,,,,,,$5f0bba80da28834e7c942c06,2020-07-21_15h56.47.280,fisher_task,2020.1.3,Win32,60,0.166666667,-0.424074074,1,0,0,1.06222,scale,,,,,,0.21373507,0.173205081,0.326485712,0.264575131,stimuli/lakes/304043_left.png,stimuli/lakes/304043_right.png,,,,0,54,54,43,1,,,,,
,,,,,,$5f0bba80da28834e7c942c06,2020-07-21_15h56.47.280,fisher_task,2020.1.3,Win32,60,-0.131481481,-0.412037037,1,0,0,1.06222,scale,,,,,,0.326485712,0.264575131,0.21373507,0.173205081,stimuli/lakes/7070104_left.png,stimuli/lakes/7070104_right.png,,,,0,55,55,104,1,,,,,
,,,,,,$5f0bba80da28834e7c942c06,2020-07-21_15h56.47.280,fisher_task,2020.1.3,Win32,60,-0.134259259,-0.415740741,1,0,0,0.923175,scale,,,,,,0.349027907,0.282842712,0.174513954,0.141421356,stimuli/lakes/806078_left.png,stimuli/lakes/806078_right.png,,,,0,56,56,78,1,,,,,
,,,,,,$5f0bba80da28834e7c942c06,2020-07-21_15h56.47.280,fisher_task,2020.1.3,Win32,60,-0.134259259,-0.415740741,1,0,0,0.60385,scale,,,,,,0.1234,0.1,0.3702,0.3,stimuli/lakes/1080107_left.png,stimuli/lakes/1080107_right.png,,,,0,57,57,107,1,,,,,
,,,,,,$5f0bba80da28834e7c942c06,2020-07-21_15h56.47.280,fisher_task,2020.1.3,Win32,60,-0.134259259,-0.415740741,0,0,1,3.286415,scale,,,,,,0.326485712,0.264575131,0.21373507,0.173205081,stimuli/lakes/705067_left.png,stimuli/lakes/705067_right.png,,,,0,58,58,67,1,,,,,
,,,,,,$5f0bba80da28834e7c942c06,2020-07-21_15h56.47.280,fisher_task,2020.1.3,Win32,60,0.177777778,-0.418518519,1,0,0,1.499505,scale,,,,,,0.2468,0.2,0.302267034,0.244948974,stimuli/lakes/403026_left.png,stimuli/lakes/403026_right.png,,,,0,59,59,26,1,,,,,
,,,,,,$5f0bba80da28834e7c942c06,2020-07-21_15h56.47.280,fisher_task,2020.1.3,Win32,60,-0.17037037,-0.415740741,1,0,0,1.006555,scale,,,,,,0.174513954,0.141421356,0.349027907,0.282842712,stimuli/lakes/2080108_left.png,stimuli/lakes/2080108_right.png,,,,0,60,60,108,1,,,,,
,,,,,,$5f0bba80da28834e7c942c06,2020-07-21_15h56.47.280,fisher_task,2020.1.3,Win32,60,0.133333333,-0.423148148,1,0,0,1.20105,scale,,,,,,0.2468,0.2,0.302267034,0.244948974,stimuli/lakes/404053_left.png,stimuli/lakes/404053_right.png,,,,0,61,61,53,1,,,,,
,,,,,,$5f0bba80da28834e7c942c06,2020-07-21_15h56.47.280,fisher_task,2020.1.3,Win32,60,-0.138888889,-0.414814815,1,0,0,0.93,scale,,,,,,0.2468,0.2,0.302267034,0.244948974,stimuli/lakes/4080111_left.png,stimuli/lakes/4080111_right.png,,,,0,62,62,111,1,,,,,
,,,,,,$5f0bba80da28834e7c942c06,2020-07-21_15h56.47.280,fisher_task,2020.1.3,Win32,60,0.124074074,-0.410185185,1,0,0,1.055205,scale,,,,,,0.326485712,0.264575131,0.21373507,0.173205081,stimuli/lakes/704056_left.png,stimuli/lakes/704056_right.png,,,,0,63,63,56,1,,,,,
,,,,,,$5f0bba80da28834e7c942c06,2020-07-21_15h56.47.280,fisher_task,2020.1.3,Win32,60,-0.112962963,-0.412962963,1,0,0,0.74969,scale,,,,,,0.3702,0.3,0.1234,0.1,stimuli/lakes/9070106_left.png,stimuli/lakes/9070106_right.png,,,,0,64,64,106,1,,,,,
,,,,,,$5f0bba80da28834e7c942c06,2020-07-21_15h56.47.280,fisher_task,2020.1.3,Win32,60,-0.162037037,-0.422222222,1,0,0,1.34005,scale,,,,,,0.1234,0.1,0.3702,0.3,stimuli/lakes/107089_left.png,stimuli/lakes/107089_right.png,,,,0,65,65,89,1,,,,,
,,,,,,$5f0bba80da28834e7c942c06,2020-07-21_15h56.47.280,fisher_task,2020.1.3,Win32,60,-0.144444444,-0.413888889,1,0,0,1.089765,scale,,,,,,0.21373507,0.173205081,0.326485712,0.264575131,stimuli/lakes/307091_left.png,stimuli/lakes/307091_right.png,,,space,0,66,66,91,1,1.330695,,,,
,,,,,,$5f0bba80da28834e7c942c06,2020-07-21_15h56.47.280,fisher_task,2020.1.3,Win32,60,0.187037037,-0.394444444,1,0,0,0.79842,scale,,,,,,0.2468,0.2,0.302267034,0.244948974,stimuli/lakes/402014_left.png,stimuli/lakes/402014_right.png,,,,0,67,67,14,1,,,,,
,,,,,,$5f0bba80da28834e7c942c06,2020-07-21_15h56.47.280,fisher_task,2020.1.3,Win32,60,0.171296296,-0.42037037,1,0,0,1.0344,scale,,,,,,0.302267034,0.244948974,0.2468,0.2,stimuli/lakes/604046_left.png,stimuli/lakes/604046_right.png,,,,0,68,68,46,1,,,,,
,,,,,,$5f0bba80da28834e7c942c06,2020-07-21_15h56.47.280,fisher_task,2020.1.3,Win32,60,-0.171296296,-0.414814815,1,0,0,0.89547,scale,,,,,,0.349027907,0.282842712,0.174513954,0.141421356,stimuli/lakes/8080118_left.png,stimuli/lakes/8080118_right.png,,,,0,69,69,118,1,,,,,
,,,,,,$5f0bba80da28834e7c942c06,2020-07-21_15h56.47.280,fisher_task,2020.1.3,Win32,60,0.14537037,-0.424074074,1,0,0,1.34689,scale,,,,,,0.302267034,0.244948974,0.2468,0.2,stimuli/lakes/604055_left.png,stimuli/lakes/604055_right.png,,,,0,70,70,55,1,,,,,
,,,,,,$5f0bba80da28834e7c942c06,2020-07-21_15h56.47.280,fisher_task,2020.1.3,Win32,60,-0.142592593,-0.415740741,1,0,0,1.19407,scale,,,,,,0.1234,0.1,0.3702,0.3,stimuli/lakes/106080_left.png,stimuli/lakes/106080_right.png,,,,0,71,71,80,1,,,,,
,,,,,,$5f0bba80da28834e7c942c06,2020-07-21_15h56.47.280,fisher_task,2020.1.3,Win32,60,-0.164814815,-0.403703704,1,0,0,1.159445,scale,,,,,,0.275930788,0.223606798,0.275930788,0.223606798,stimuli/lakes/506075_left.png,stimuli/lakes/506075_right.png,,,,0,72,72,75,1,,,,,
,,,,,,$5f0bba80da28834e7c942c06,2020-07-21_15h56.47.280,fisher_task,2020.1.3,Win32,60,0.167592593,-0.42962963,1,0,0,0.978855,scale,,,,,,0.349027907,0.282842712,0.174513954,0.141421356,stimuli/lakes/802021_left.png,stimuli/lakes/802021_right.png,,,,0,73,73,21,1,,,,,
,,,,,,$5f0bba80da28834e7c942c06,2020-07-21_15h56.47.280,fisher_task,2020.1.3,Win32,60,0.17037037,-0.415740741,1,0,0,0.819185,scale,,,,,,0.349027907,0.282842712,0.174513954,0.141421356,stimuli/lakes/80109_left.png,stimuli/lakes/80109_right.png,,,,0,74,74,9,1,,,,,
,,,,,,$5f0bba80da28834e7c942c06,2020-07-21_15h56.47.280,fisher_task,2020.1.3,Win32,60,-0.173148148,-0.437037037,1,0,0,1.020655,scale,,,,,,0.302267034,0.244948974,0.2468,0.2,stimuli/lakes/606085_left.png,stimuli/lakes/606085_right.png,,,,0,75,75,85,1,,,,,
,,,,,,$5f0bba80da28834e7c942c06,2020-07-21_15h56.47.280,fisher_task,2020.1.3,Win32,60,0.005555556,-0.20462963,1,0,0,2.832875,scale,,,,,,0.2468,0.2,0.302267034,0.244948974,stimuli/lakes/405063_left.png,stimuli/lakes/405063_right.png,,,,0,76,76,63,1,,,,,
,,,,,,$5f0bba80da28834e7c942c06,2020-07-21_15h56.47.280,fisher_task,2020.1.3,Win32,60,-0.136111111,-0.384259259,1,0,0,0.90976,scale,,,,,,0.2468,0.2,0.302267034,0.244948974,stimuli/lakes/4090123_left.png,stimuli/lakes/4090123_right.png,,,,0,77,77,123,1,,,,,
,,,,,,$5f0bba80da28834e7c942c06,2020-07-21_15h56.47.280,fisher_task,2020.1.3,Win32,60,0.165740741,-0.428703704,1,0,0,0.881715,scale,,,,,,0.3702,0.3,0.1234,0.1,stimuli/lakes/901010_left.png,stimuli/lakes/901010_right.png,,,,0,78,78,10,1,,,,,
,,,,,,$5f0bba80da28834e7c942c06,2020-07-21_15h56.47.280,fisher_task,2020.1.3,Win32,60,0.162037037,-0.430555556,1,0,0,0.5345,scale,,,,,,0.275930788,0.223606798,0.275930788,0.223606798,stimuli/lakes/50104_left.png,stimuli/lakes/50104_right.png,,,,0,79,79,4,1,,,,,
,,,,,,$5f0bba80da28834e7c942c06,2020-07-21_15h56.47.280,fisher_task,2020.1.3,Win32,60,-0.00462963,-0.225,1,0,0,6.81217,scale,,,,,,0.349027907,0.282842712,0.174513954,0.141421356,stimuli/lakes/805069_left.png,stimuli/lakes/805069_right.png,,,,0,80,80,69,1,,,,,
,,,,,,$5f0bba80da28834e7c942c06,2020-07-21_15h56.47.280,fisher_task,2020.1.3,Win32,60,-0.152777778,-0.425,1,0,0,2.138875,scale,,,,,,0.1234,0.1,0.3702,0.3,stimuli/lakes/1090119_left.png,stimuli/lakes/1090119_right.png,,,,0,81,81,119,1,,,,,
,,,,,,$5f0bba80da28834e7c942c06,2020-07-21_15h56.47.280,fisher_task,2020.1.3,Win32,60,0.177777778,-0.402777778,1,0,0,9.082775,scale,,,,,,0.3702,0.3,0.1234,0.1,stimuli/lakes/905070_left.png,stimuli/lakes/905070_right.png,,,,0,82,82,70,1,,,,,
,,,,,,$5f0bba80da28834e7c942c06,2020-07-21_15h56.47.280,fisher_task,2020.1.3,Win32,60,0.160185185,-0.422222222,1,0,0,1.895565,scale,,,,,,0.326485712,0.264575131,0.21373507,0.173205081,stimuli/lakes/704047_left.png,stimuli/lakes/704047_right.png,,,,0,83,83,47,1,,,,,
,,,,,,$5f0bba80da28834e7c942c06,2020-07-21_15h56.47.280,fisher_task,2020.1.3,Win32,60,-0.155555556,-0.423148148,1,0,0,1.659575,scale,,,,,,0.21373507,0.173205081,0.326485712,0.264575131,stimuli/lakes/3080110_left.png,stimuli/lakes/3080110_right.png,,,,0,84,84,110,1,,,,,
,,,,,,$5f0bba80da28834e7c942c06,2020-07-21_15h56.47.280,fisher_task,2020.1.3,Win32,60,-0.160185185,-0.427777778,1,0,0,1.048265,scale,,,,,,0.302267034,0.244948974,0.2468,0.2,stimuli/lakes/6090126_left.png,stimuli/lakes/6090126_right.png,,,,0,85,85,126,1,,,,,
,,,,,,$5f0bba80da28834e7c942c06,2020-07-21_15h56.47.280,fisher_task,2020.1.3,Win32,60,-0.15462963,-0.428703704,1,0,0,2.173315,scale,,,,,,0.3702,0.3,0.1234,0.1,stimuli/lakes/906088_left.png,stimuli/lakes/906088_right.png,,,,0,86,86,88,1,,,,,
,,,,,,$5f0bba80da28834e7c942c06,2020-07-21_15h56.47.280,fisher_task,2020.1.3,Win32,60,-0.147222222,-0.415740741,1,0,0,1.95081,scale,,,,,,0.1234,0.1,0.3702,0.3,stimuli/lakes/106071_left.png,stimuli/lakes/106071_right.png,,,,0,87,87,71,1,,,,,
,,,,,,$5f0bba80da28834e7c942c06,2020-07-21_15h56.47.280,fisher_task,2020.1.3,Win32,60,-0.164814815,-0.427777778,1,0,0,1.7982,scale,,,,,,0.326485712,0.264575131,0.21373507,0.173205081,stimuli/lakes/706077_left.png,stimuli/lakes/706077_right.png,,,space,0,88,88,77,1,1.42732,,,,
,,,,,,$5f0bba80da28834e7c942c06,2020-07-21_15h56.47.280,fisher_task,2020.1.3,Win32,60,0.153703704,-0.427777778,1,0,0,1.49945,scale,,,,,,0.349027907,0.282842712,0.174513954,0.141421356,stimuli/lakes/803030_left.png,stimuli/lakes/803030_right.png,,,,0,89,89,30,1,,,,,
,,,,,,$5f0bba80da28834e7c942c06,2020-07-21_15h56.47.280,fisher_task,2020.1.3,Win32,60,0.153703704,-0.427777778,1,0,0,1.1455,scale,,,,,,0.349027907,0.282842712,0.174513954,0.141421356,stimuli/lakes/804048_left.png,stimuli/lakes/804048_right.png,,,,0,90,90,48,1,,,,,
,,,,,,$5f0bba80da28834e7c942c06,2020-07-21_15h56.47.280,fisher_task,2020.1.3,Win32,60,-0.164814815,-0.441666667,1,0,0,1.2085,scale,,,,,,0.174513954,0.141421356,0.349027907,0.282842712,stimuli/lakes/2090120_left.png,stimuli/lakes/2090120_right.png,,,,0,91,91,120,1,,,,,
,,,,,,$5f0bba80da28834e7c942c06,2020-07-21_15h56.47.280,fisher_task,2020.1.3,Win32,60,0.150925926,-0.433333333,1,0,0,1.47189,scale,,,,,,0.21373507,0.173205081,0.326485712,0.264575131,stimuli/lakes/303025_left.png,stimuli/lakes/303025_right.png,,,,0,92,92,25,1,,,,,
,,,,,,$5f0bba80da28834e7c942c06,2020-07-21_15h56.47.280,fisher_task,2020.1.3,Win32,60,-0.171296296,-0.428703704,1,0,0,1.152395,scale,,,,,,0.21373507,0.173205081,0.326485712,0.264575131,stimuli/lakes/3080109_left.png,stimuli/lakes/3080109_right.png,,,,0,93,93,109,1,,,,,
,,,,,,$5f0bba80da28834e7c942c06,2020-07-21_15h56.47.280,fisher_task,2020.1.3,Win32,60,-0.147222222,-0.437037037,1,0,0,1.49276,scale,,,,,,0.174513954,0.141421356,0.349027907,0.282842712,stimuli/lakes/206081_left.png,stimuli/lakes/206081_right.png,,,,0,94,94,81,1,,,,,
,,,,,,$5f0bba80da28834e7c942c06,2020-07-21_15h56.47.280,fisher_task,2020.1.3,Win32,60,0.141666667,-0.415740741,1,0,0,1.06235,scale,,,,,,0.302267034,0.244948974,0.2468,0.2,stimuli/lakes/60106_left.png,stimuli/lakes/60106_right.png,,,,0,95,95,6,1,,,,,
,,,,,,$5f0bba80da28834e7c942c06,2020-07-21_15h56.47.280,fisher_task,2020.1.3,Win32,60,-0.163888889,-0.424074074,1,0,0,1.548185,scale,,,,,,0.275930788,0.223606798,0.275930788,0.223606798,stimuli/lakes/5070102_left.png,stimuli/lakes/5070102_right.png,,,,0,96,96,102,1,,,,,
,,,,,,$5f0bba80da28834e7c942c06,2020-07-21_15h56.47.280,fisher_task,2020.1.3,Win32,60,-0.164814815,-0.424074074,1,0,0,0.73576,scale,,,,,,0.3702,0.3,0.1234,0.1,stimuli/lakes/907097_left.png,stimuli/lakes/907097_right.png,,,,0,97,97,97,1,,,,,
,,,,,,$5f0bba80da28834e7c942c06,2020-07-21_15h56.47.280,fisher_task,2020.1.3,Win32,60,0.133333333,-0.422222222,1,0,0,0.854,scale,,,,,,0.21373507,0.173205081,0.326485712,0.264575131,stimuli/lakes/302013_left.png,stimuli/lakes/302013_right.png,,,,0,98,98,13,1,,,,,
,,,,,,$5f0bba80da28834e7c942c06,2020-07-21_15h56.47.280,fisher_task,2020.1.3,Win32,60,-0.132407407,-0.42037037,1,0,0,0.76361,scale,,,,,,0.2468,0.2,0.302267034,0.244948974,stimuli/lakes/4090124_left.png,stimuli/lakes/4090124_right.png,,,,0,99,99,124,1,,,,,
,,,,,,$5f0bba80da28834e7c942c06,2020-07-21_15h56.47.280,fisher_task,2020.1.3,Win32,60,-0.177777778,-0.399074074,1,0,0,0.86083,scale,,,,,,0.174513954,0.141421356,0.349027907,0.282842712,stimuli/lakes/207090_left.png,stimuli/lakes/207090_right.png,,,,0,100,100,90,1,,,,,
,,,,,,$5f0bba80da28834e7c942c06,2020-07-21_15h56.47.280,fisher_task,2020.1.3,Win32,60,0.17962963,-0.424074074,1,0,0,2.24278,scale,,,,,,0.2468,0.2,0.302267034,0.244948974,stimuli/lakes/404044_left.png,stimuli/lakes/404044_right.png,,,,0,101,101,44,1,,,,,
,,,,,,$5f0bba80da28834e7c942c06,2020-07-21_15h56.47.280,fisher_task,2020.1.3,Win32,60,0.144444444,-0.421296296,1,0,0,1.548475,scale,,,,,,0.326485712,0.264575131,0.21373507,0.173205081,stimuli/lakes/703029_left.png,stimuli/lakes/703029_right.png,,,,0,102,102,29,1,,,,,
,,,,,,$5f0bba80da28834e7c942c06,2020-07-21_15h56.47.280,fisher_task,2020.1.3,Win32,60,0.163888889,-0.417592593,1,0,0,0.71494,scale,,,,,,0.2468,0.2,0.302267034,0.244948974,stimuli/lakes/40102_left.png,stimuli/lakes/40102_right.png,,,,0,103,103,2,1,,,,,
,,,,,,$5f0bba80da28834e7c942c06,2020-07-21_15h56.47.280,fisher_task,2020.1.3,Win32,60,-0.130555556,-0.413888889,1,0,0,1.33297,scale,,,,,,0.302267034,0.244948974,0.2468,0.2,stimuli/lakes/605065_left.png,stimuli/lakes/605065_right.png,,,,0,104,104,65,1,,,,,
,,,,,,$5f0bba80da28834e7c942c06,2020-07-21_15h56.47.280,fisher_task,2020.1.3,Win32,60,0.141666667,-0.401851852,1,0,0,1.01386,scale,,,,,,0.21373507,0.173205081,0.326485712,0.264575131,stimuli/lakes/302012_left.png,stimuli/lakes/302012_right.png,,,,0,105,105,12,1,,,,,
,,,,,,$5f0bba80da28834e7c942c06,2020-07-21_15h56.47.280,fisher_task,2020.1.3,Win32,60,0.161111111,-0.396296296,1,0,0,0.65258,scale,,,,,,0.21373507,0.173205081,0.326485712,0.264575131,stimuli/lakes/30101_left.png,stimuli/lakes/30101_right.png,,,,0,106,106,1,1,,,,,
,,,,,,$5f0bba80da28834e7c942c06,2020-07-21_15h56.47.280,fisher_task,2020.1.3,Win32,60,-0.127777778,-0.427777778,1,0,0,0.93067,scale,,,,,,0.21373507,0.173205081,0.326485712,0.264575131,stimuli/lakes/3090121_left.png,stimuli/lakes/3090121_right.png,,,,0,107,107,121,1,,,,,
,,,,,,$5f0bba80da28834e7c942c06,2020-07-21_15h56.47.280,fisher_task,2020.1.3,Win32,60,0.151851852,-0.433333333,1,0,0,3.39569,scale,,,,,,0.349027907,0.282842712,0.174513954,0.141421356,stimuli/lakes/804057_left.png,stimuli/lakes/804057_right.png,,,,0,108,108,57,1,,,,,
,,,,,,$5f0bba80da28834e7c942c06,2020-07-21_15h56.47.280,fisher_task,2020.1.3,Win32,60,-0.174074074,-0.425925926,1,0,0,1.520815,scale,,,,,,0.3702,0.3,0.1234,0.1,stimuli/lakes/906079_left.png,stimuli/lakes/906079_right.png,,,,0,109,109,79,1,,,,,
,,,,,,$5f0bba80da28834e7c942c06,2020-07-21_15h56.47.280,fisher_task,2020.1.3,Win32,60,0.149074074,-0.435185185,1,0,0,1.18025,scale,,,,,,0.2468,0.2,0.302267034,0.244948974,stimuli/lakes/40103_left.png,stimuli/lakes/40103_right.png,,,space,0,110,110,3,1,2.197435,,,,
,,,,,,$5f0bba80da28834e7c942c06,2020-07-21_15h56.47.280,fisher_task,2020.1.3,Win32,60,-0.165740741,-0.42037037,1,0,0,1.33989,scale,,,,,,0.349027907,0.282842712,0.174513954,0.141421356,stimuli/lakes/8070105_left.png,stimuli/lakes/8070105_right.png,,,,0,111,111,105,1,,,,,
,,,,,,$5f0bba80da28834e7c942c06,2020-07-21_15h56.47.280,fisher_task,2020.1.3,Win32,60,0.17037037,-0.438888889,1,0,0,1.48584,scale,,,,,,0.2468,0.2,0.302267034,0.244948974,stimuli/lakes/403035_left.png,stimuli/lakes/403035_right.png,,,,0,112,112,35,1,,,,,
,,,,,,$5f0bba80da28834e7c942c06,2020-07-21_15h56.47.280,fisher_task,2020.1.3,Win32,60,0.163888889,-0.425925926,1,0,0,1.87478,scale,,,,,,0.1234,0.1,0.3702,0.3,stimuli/lakes/103023_left.png,stimuli/lakes/103023_right.png,,,,0,113,113,23,1,,,,,
,,,,,,$5f0bba80da28834e7c942c06,2020-07-21_15h56.47.280,fisher_task,2020.1.3,Win32,60,0.157407407,-0.417592593,1,0,0,0.520425,scale,,,,,,0.302267034,0.244948974,0.2468,0.2,stimuli/lakes/602017_left.png,stimuli/lakes/602017_right.png,,,,0,114,114,17,1,,,,,
,,,,,,$5f0bba80da28834e7c942c06,2020-07-21_15h56.47.280,fisher_task,2020.1.3,Win32,60,-0.144444444,-0.412962963,1,0,0,0.840075,scale,,,,,,0.349027907,0.282842712,0.174513954,0.141421356,stimuli/lakes/807096_left.png,stimuli/lakes/807096_right.png,,,,0,115,115,96,1,,,,,
,,,,,,$5f0bba80da28834e7c942c06,2020-07-21_15h56.47.280,fisher_task,2020.1.3,Win32,60,0.141666667,-0.44537037,1,0,0,0.708045,scale,,,,,,0.326485712,0.264575131,0.21373507,0.173205081,stimuli/lakes/70107_left.png,stimuli/lakes/70107_right.png,,,,0,116,116,7,1,,,,,
,,,,,,$5f0bba80da28834e7c942c06,2020-07-21_15h56.47.280,fisher_task,2020.1.3,Win32,60,-0.162962963,-0.421296296,1,0,0,0.85381,scale,,,,,,0.326485712,0.264575131,0.21373507,0.173205081,stimuli/lakes/7080116_left.png,stimuli/lakes/7080116_right.png,,,,0,117,117,116,1,,,,,
,,,,,,$5f0bba80da28834e7c942c06,2020-07-21_15h56.47.280,fisher_task,2020.1.3,Win32,60,0.165740741,-0.428703704,1,0,0,0.944215,scale,,,,,,0.326485712,0.264575131,0.21373507,0.173205081,stimuli/lakes/702020_left.png,stimuli/lakes/702020_right.png,,,,0,118,118,20,1,,,,,
,,,,,,$5f0bba80da28834e7c942c06,2020-07-21_15h56.47.280,fisher_task,2020.1.3,Win32,60,0.162037037,-0.437037037,1,0,0,0.944,scale,,,,,,0.302267034,0.244948974,0.2468,0.2,stimuli/lakes/60105_left.png,stimuli/lakes/60105_right.png,,,,0,119,119,5,1,,,,,
,,,,,,$5f0bba80da28834e7c942c06,2020-07-21_15h56.47.280,fisher_task,2020.1.3,Win32,60,-0.149074074,-0.42037037,1,0,0,0.95133,scale,,,,,,0.326485712,0.264575131,0.21373507,0.173205081,stimuli/lakes/7090129_left.png,stimuli/lakes/7090129_right.png,,,,0,120,120,129,1,,,,,
,,,,,,$5f0bba80da28834e7c942c06,2020-07-21_15h56.47.280,fisher_task,2020.1.3,Win32,60,-0.141666667,-0.412037037,1,0,0,1.075955,scale,,,,,,0.302267034,0.244948974,0.2468,0.2,stimuli/lakes/606076_left.png,stimuli/lakes/606076_right.png,,,,0,121,121,76,1,,,,,
,,,,,,$5f0bba80da28834e7c942c06,2020-07-21_15h56.47.280,fisher_task,2020.1.3,Win32,60,0.150925926,-0.446296296,1,0,0,1.36779,scale,,,,,,0.275930788,0.223606798,0.275930788,0.223606798,stimuli/lakes/504045_left.png,stimuli/lakes/504045_right.png,,,,0,122,122,45,1,,,,,
,,,,,,$5f0bba80da28834e7c942c06,2020-07-21_15h56.47.280,fisher_task,2020.1.3,Win32,60,0.14537037,-0.423148148,1,0,0,1.666725,scale,,,,,,0.1234,0.1,0.3702,0.3,stimuli/lakes/104041_left.png,stimuli/lakes/104041_right.png,,,,0,123,123,41,1,,,,,
,,,,,,$5f0bba80da28834e7c942c06,2020-07-21_15h56.47.280,fisher_task,2020.1.3,Win32,60,-0.15462963,-0.433333333,1,0,0,2.027415,scale,,,,,,0.2468,0.2,0.302267034,0.244948974,stimuli/lakes/406083_left.png,stimuli/lakes/406083_right.png,,,,0,124,124,83,1,,,,,
,,,,,,$5f0bba80da28834e7c942c06,2020-07-21_15h56.47.280,fisher_task,2020.1.3,Win32,60,-0.141666667,-0.423148148,1,0,0,1.096875,scale,,,,,,0.2468,0.2,0.302267034,0.244948974,stimuli/lakes/407092_left.png,stimuli/lakes/407092_right.png,,,,0,125,125,92,1,,,,,
,,,,,,$5f0bba80da28834e7c942c06,2020-07-21_15h56.47.280,fisher_task,2020.1.3,Win32,60,0.137037037,-0.423148148,1,0,0,1.090095,scale,,,,,,0.174513954,0.141421356,0.349027907,0.282842712,stimuli/lakes/204042_left.png,stimuli/lakes/204042_right.png,,,,0,126,126,42,1,,,,,
,,,,,,$5f0bba80da28834e7c942c06,2020-07-21_15h56.47.280,fisher_task,2020.1.3,Win32,60,-0.143518519,-0.324074074,1,0,0,2.458055,scale,,,,,,0.174513954,0.141421356,0.349027907,0.282842712,stimuli/lakes/205060_left.png,stimuli/lakes/205060_right.png,,,,0,127,127,60,1,,,,,
,,,,,,$5f0bba80da28834e7c942c06,2020-07-21_15h56.47.280,fisher_task,2020.1.3,Win32,60,0.155555556,-0.367592593,1,0,0,2.47188,scale,,,,,,0.21373507,0.173205081,0.326485712,0.264575131,stimuli/lakes/305061_left.png,stimuli/lakes/305061_right.png,,,,0,128,128,61,1,,,,,
,,,,,,$5f0bba80da28834e7c942c06,2020-07-21_15h56.47.280,fisher_task,2020.1.3,Win32,60,-0.133333333,-0.443518519,1,0,0,1.013725,scale,,,,,,0.302267034,0.244948974,0.2468,0.2,stimuli/lakes/6080115_left.png,stimuli/lakes/6080115_right.png,,,,0,129,129,115,1,,,,,
,,,,,,$5f0bba80da28834e7c942c06,2020-07-21_15h56.47.280,fisher_task,2020.1.3,Win32,60,,,,,,,,,,,,,,,,,,,,,,,,,,,,space,11.316715,space,4.0405
