keySpace.keys,instructions.thisRepN,instructions.thisTrialN,instructions.thisN,instructions.thisIndex,instructions.ran,participant,date,expName,psychopyVersion,OS,frameRate,mouse.x,mouse.y,mouse.leftButton,mouse.midButton,mouse.rightButton,mouse.time,mouse.clicked_name,training.thisRepN,training.thisTrialN,training.thisN,training.thisIndex,training.ran,widthBasketLeft,heightBasketLeft,widthBasketRight,heightBasketRight,leftLake,rightLake,space2.keys,space2.rt,space1.keys,trials.thisRepN,trials.thisTrialN,trials.thisN,trials.thisIndex,trials.ran,space1.rt,finalSpace1.keys,finalSpace1.rt,finalSpace2.keys,finalSpace2.rt
,0,0,0,0,1,$5db2d2d3382f4400093b0b98,2020-07-21_17h10.04.973,fisher_task,2020.1.3,Win32,60,,,,,,,,,,,,,,,,,,,,,,,,,,,,,,,
,,,,,,$5db2d2d3382f4400093b0b98,2020-07-21_17h10.04.973,fisher_task,2020.1.3,Win32,60,0.150925926,-0.383333333,1,0,0,3.894695,scale,0,0,0,0,1,0.275930788,0.223606798,0.275930788,0.223606798,stimuli/training/20_left.png,stimuli/training/20_right.png,,,,,,,,,,,,,
,,,,,,$5db2d2d3382f4400093b0b98,2020-07-21_17h10.04.973,fisher_task,2020.1.3,Win32,60,0.136111111,-0.371296296,1,0,0,3.452795,scale,0,1,1,1,1,0.275930788,0.223606798,0.275930788,0.223606798,stimuli/training/80_left.png,stimuli/training/80_right.png,,,,,,,,,,,,,
,,,,,,$5db2d2d3382f4400093b0b98,2020-07-21_17h10.04.973,fisher_task,2020.1.3,Win32,60,0.168518519,0.000925926,1,0,0,0.02661,scale,0,2,2,2,1,0.174513954,0.141421356,0.349027907,0.282842712,stimuli/training/50_left.png,stimuli/training/50_right.png,,,,,,,,,,,,,
,,,,,,$5db2d2d3382f4400093b0b98,2020-07-21_17h10.04.973,fisher_task,2020.1.3,Win32,60,-0.148148148,-0.394444444,1,0,0,0.999935,scale,0,3,3,3,1,0.349027907,0.282842712,0.174513954,0.141421356,stimuli/training/50_left.png,stimuli/training/50_right.png,,,,,,,,,,,,,
,,,,,,$5db2d2d3382f4400093b0b98,2020-07-21_17h10.04.973,fisher_task,2020.1.3,Win32,60,-0.00462963,-0.433333333,1,0,0,2.94759,scale,0,4,4,4,1,0.275930788,0.223606798,0.275930788,0.223606798,stimuli/training/50_left.png,stimuli/training/50_right.png,,,,,,,,,,,,,
,,,,,,$5db2d2d3382f4400093b0b98,2020-07-21_17h10.04.973,fisher_task,2020.1.3,Win32,60,0.22037037,-0.427777778,1,0,0,0.58658,scale,0,5,5,5,1,0.174513954,0.141421356,0.349027907,0.282842712,stimuli/training/20_left.png,stimuli/training/20_right.png,,,,,,,,,,,,,
,,,,,,$5db2d2d3382f4400093b0b98,2020-07-21_17h10.04.973,fisher_task,2020.1.3,Win32,60,0.159259259,-0.360185185,1,0,0,0.22649,scale,0,6,6,6,1,0.349027907,0.282842712,0.174513954,0.141421356,stimuli/training/80_left.png,stimuli/training/80_right.png,,,,,,,,,,,,,
,,,,,,$5db2d2d3382f4400093b0b98,2020-07-21_17h10.04.973,fisher_task,2020.1.3,Win32,60,0.159259259,-0.360185185,1,0,0,0.7998,scale,0,7,7,7,1,0.1234,0.1,0.3702,0.3,stimuli/training/30_left.png,stimuli/training/30_right.png,,,,,,,,,,,,,
,,,,,,$5db2d2d3382f4400093b0b98,2020-07-21_17h10.04.973,fisher_task,2020.1.3,Win32,60,-0.135185185,-0.355555556,1,0,0,1.49354,scale,0,8,8,8,1,0.3702,0.3,0.1234,0.1,stimuli/training/70_left.png,stimuli/training/70_right.png,,,,,,,,,,,,,
,,,,,,$5db2d2d3382f4400093b0b98,2020-07-21_17h10.04.973,fisher_task,2020.1.3,Win32,60,-0.02037037,0.025925926,1,0,0,1.04019,scale,0,9,9,9,1,0.326485712,0.264575131,0.21373507,0.173205081,stimuli/training/90_left.png,stimuli/training/90_right.png,,,,,,,,,,,,,
,,,,,,$5db2d2d3382f4400093b0b98,2020-07-21_17h10.04.973,fisher_task,2020.1.3,Win32,60,-0.130555556,-0.349074074,1,0,0,0.34643,scale,0,10,10,10,1,0.21373507,0.173205081,0.326485712,0.264575131,stimuli/training/10_left.png,stimuli/training/10_right.png,,,,,,,,,,,,,
,,,,,,$5db2d2d3382f4400093b0b98,2020-07-21_17h10.04.973,fisher_task,2020.1.3,Win32,60,-0.161111111,-0.362037037,1,0,0,2.10716,scale,,,,,,0.174513954,0.141421356,0.349027907,0.282842712,stimuli/lakes/207090_left.png,stimuli/lakes/207090_right.png,space,6.521195,,0,0,0,90,1,,,,,
,,,,,,$5db2d2d3382f4400093b0b98,2020-07-21_17h10.04.973,fisher_task,2020.1.3,Win32,60,0.158333333,-0.355555556,1,0,0,0.39995,scale,,,,,,0.275930788,0.223606798,0.275930788,0.223606798,stimuli/lakes/5070102_left.png,stimuli/lakes/5070102_right.png,,,,0,1,1,102,1,,,,,
,,,,,,$5db2d2d3382f4400093b0b98,2020-07-21_17h10.04.973,fisher_task,2020.1.3,Win32,60,-0.144444444,-0.341666667,1,0,0,0.22644,scale,,,,,,0.302267034,0.244948974,0.2468,0.2,stimuli/lakes/60106_left.png,stimuli/lakes/60106_right.png,,,,0,2,2,6,1,,,,,
,,,,,,$5db2d2d3382f4400093b0b98,2020-07-21_17h10.04.973,fisher_task,2020.1.3,Win32,60,-0.162962963,-0.400925926,1,0,0,0.733,scale,,,,,,0.2468,0.2,0.302267034,0.244948974,stimuli/lakes/4080111_left.png,stimuli/lakes/4080111_right.png,,,,0,3,3,111,1,,,,,
,,,,,,$5db2d2d3382f4400093b0b98,2020-07-21_17h10.04.973,fisher_task,2020.1.3,Win32,60,-0.148148148,-0.361111111,1,0,0,0.73361,scale,,,,,,0.349027907,0.282842712,0.174513954,0.141421356,stimuli/lakes/806087_left.png,stimuli/lakes/806087_right.png,,,,0,4,4,87,1,,,,,
,,,,,,$5db2d2d3382f4400093b0b98,2020-07-21_17h10.04.973,fisher_task,2020.1.3,Win32,60,-0.161111111,-0.375,1,0,0,0.97362,scale,,,,,,0.275930788,0.223606798,0.275930788,0.223606798,stimuli/lakes/507093_left.png,stimuli/lakes/507093_right.png,,,,0,5,5,93,1,,,,,
,,,,,,$5db2d2d3382f4400093b0b98,2020-07-21_17h10.04.973,fisher_task,2020.1.3,Win32,60,-0.177777778,-0.356481481,1,0,0,1.347215,scale,,,,,,0.21373507,0.173205081,0.326485712,0.264575131,stimuli/lakes/3090121_left.png,stimuli/lakes/3090121_right.png,,,,0,6,6,121,1,,,,,
,,,,,,$5db2d2d3382f4400093b0b98,2020-07-21_17h10.04.973,fisher_task,2020.1.3,Win32,60,-0.138888889,-0.371296296,1,0,0,1.17359,scale,,,,,,0.21373507,0.173205081,0.326485712,0.264575131,stimuli/lakes/3090122_left.png,stimuli/lakes/3090122_right.png,,,,0,7,7,122,1,,,,,
,,,,,,$5db2d2d3382f4400093b0b98,2020-07-21_17h10.04.973,fisher_task,2020.1.3,Win32,60,-0.159259259,-0.352777778,1,0,0,0.852995,scale,,,,,,0.1234,0.1,0.3702,0.3,stimuli/lakes/1090119_left.png,stimuli/lakes/1090119_right.png,,,,0,8,8,119,1,,,,,
,,,,,,$5db2d2d3382f4400093b0b98,2020-07-21_17h10.04.973,fisher_task,2020.1.3,Win32,60,-0.203703704,-0.388888889,1,0,0,0.80002,scale,,,,,,0.174513954,0.141421356,0.349027907,0.282842712,stimuli/lakes/207099_left.png,stimuli/lakes/207099_right.png,,,,0,9,9,99,1,,,,,
,,,,,,$5db2d2d3382f4400093b0b98,2020-07-21_17h10.04.973,fisher_task,2020.1.3,Win32,60,-0.156481481,-0.367592593,1,0,0,0.86679,scale,,,,,,0.174513954,0.141421356,0.349027907,0.282842712,stimuli/lakes/2080108_left.png,stimuli/lakes/2080108_right.png,,,,0,10,10,108,1,,,,,
,,,,,,$5db2d2d3382f4400093b0b98,2020-07-21_17h10.04.973,fisher_task,2020.1.3,Win32,60,0.138888889,-0.35,1,0,0,1.06688,scale,,,,,,0.3702,0.3,0.1234,0.1,stimuli/lakes/903031_left.png,stimuli/lakes/903031_right.png,,,,0,11,11,31,1,,,,,
,,,,,,$5db2d2d3382f4400093b0b98,2020-07-21_17h10.04.973,fisher_task,2020.1.3,Win32,60,-0.124074074,-0.376851852,1,0,0,0.90693,scale,,,,,,0.21373507,0.173205081,0.326485712,0.264575131,stimuli/lakes/3080109_left.png,stimuli/lakes/3080109_right.png,,,,0,12,12,109,1,,,,,
,,,,,,$5db2d2d3382f4400093b0b98,2020-07-21_17h10.04.973,fisher_task,2020.1.3,Win32,60,0.135185185,-0.363888889,1,0,0,1.37367,scale,,,,,,0.21373507,0.173205081,0.326485712,0.264575131,stimuli/lakes/303025_left.png,stimuli/lakes/303025_right.png,,,,0,13,13,25,1,,,,,
,,,,,,$5db2d2d3382f4400093b0b98,2020-07-21_17h10.04.973,fisher_task,2020.1.3,Win32,60,0.144444444,-0.349074074,1,0,0,0.17306,scale,,,,,,0.349027907,0.282842712,0.174513954,0.141421356,stimuli/lakes/805069_left.png,stimuli/lakes/805069_right.png,,,,0,14,14,69,1,,,,,
,,,,,,$5db2d2d3382f4400093b0b98,2020-07-21_17h10.04.973,fisher_task,2020.1.3,Win32,60,0.146296296,-0.349074074,1,0,0,0.15978,scale,,,,,,0.326485712,0.264575131,0.21373507,0.173205081,stimuli/lakes/707095_left.png,stimuli/lakes/707095_right.png,,,,0,15,15,95,1,,,,,
,,,,,,$5db2d2d3382f4400093b0b98,2020-07-21_17h10.04.973,fisher_task,2020.1.3,Win32,60,-0.118518519,-0.4,1,0,0,2.240605,scale,,,,,,0.2468,0.2,0.302267034,0.244948974,stimuli/lakes/405063_left.png,stimuli/lakes/405063_right.png,,,,0,16,16,63,1,,,,,
,,,,,,$5db2d2d3382f4400093b0b98,2020-07-21_17h10.04.973,fisher_task,2020.1.3,Win32,60,-0.141666667,-0.393518519,1,0,0,2.04062,scale,,,,,,0.21373507,0.173205081,0.326485712,0.264575131,stimuli/lakes/303034_left.png,stimuli/lakes/303034_right.png,,,,0,17,17,34,1,,,,,
,,,,,,$5db2d2d3382f4400093b0b98,2020-07-21_17h10.04.973,fisher_task,2020.1.3,Win32,60,0.172222222,-0.353703704,1,0,0,1.227305,scale,,,,,,0.349027907,0.282842712,0.174513954,0.141421356,stimuli/lakes/802021_left.png,stimuli/lakes/802021_right.png,,,,0,18,18,21,1,,,,,
,,,,,,$5db2d2d3382f4400093b0b98,2020-07-21_17h10.04.973,fisher_task,2020.1.3,Win32,60,-0.128703704,-0.374074074,1,0,0,10.81716,scale,,,,,,0.326485712,0.264575131,0.21373507,0.173205081,stimuli/lakes/705067_left.png,stimuli/lakes/705067_right.png,,,,0,19,19,67,1,,,,,
,,,,,,$5db2d2d3382f4400093b0b98,2020-07-21_17h10.04.973,fisher_task,2020.1.3,Win32,60,0.014814815,-0.243518519,1,0,0,1.827295,scale,,,,,,0.1234,0.1,0.3702,0.3,stimuli/lakes/104050_left.png,stimuli/lakes/104050_right.png,,,,0,20,20,50,1,,,,,
,,,,,,$5db2d2d3382f4400093b0b98,2020-07-21_17h10.04.973,fisher_task,2020.1.3,Win32,60,0.099074074,-0.267592593,1,0,0,0.213355,scale,,,,,,0.275930788,0.223606798,0.275930788,0.223606798,stimuli/lakes/506075_left.png,stimuli/lakes/506075_right.png,,,,0,21,21,75,1,,,,,
,,,,,,$5db2d2d3382f4400093b0b98,2020-07-21_17h10.04.973,fisher_task,2020.1.3,Win32,60,0.125925926,-0.389814815,1,0,0,0.759205,scale,,,,,,0.2468,0.2,0.302267034,0.244948974,stimuli/lakes/40102_left.png,stimuli/lakes/40102_right.png,,,space,0,22,22,2,1,4.60748,,,,
,,,,,,$5db2d2d3382f4400093b0b98,2020-07-21_17h10.04.973,fisher_task,2020.1.3,Win32,60,0.111111111,-0.330555556,1,0,0,0.439905,scale,,,,,,0.326485712,0.264575131,0.21373507,0.173205081,stimuli/lakes/702020_left.png,stimuli/lakes/702020_right.png,,,,0,23,23,20,1,,,,,
,,,,,,$5db2d2d3382f4400093b0b98,2020-07-21_17h10.04.973,fisher_task,2020.1.3,Win32,60,-0.193518519,-0.325,1,0,0,0.266435,scale,,,,,,0.302267034,0.244948974,0.2468,0.2,stimuli/lakes/6090126_left.png,stimuli/lakes/6090126_right.png,,,,0,24,24,126,1,,,,,
,,,,,,$5db2d2d3382f4400093b0b98,2020-07-21_17h10.04.973,fisher_task,2020.1.3,Win32,60,-0.134259259,-0.346296296,1,0,0,0.23985,scale,,,,,,0.302267034,0.244948974,0.2468,0.2,stimuli/lakes/6090127_left.png,stimuli/lakes/6090127_right.png,,,,0,25,25,127,1,,,,,
,,,,,,$5db2d2d3382f4400093b0b98,2020-07-21_17h10.04.973,fisher_task,2020.1.3,Win32,60,0.151851852,-0.34537037,1,0,0,0.62643,scale,,,,,,0.2468,0.2,0.302267034,0.244948974,stimuli/lakes/403026_left.png,stimuli/lakes/403026_right.png,,,,0,26,26,26,1,,,,,
,,,,,,$5db2d2d3382f4400093b0b98,2020-07-21_17h10.04.973,fisher_task,2020.1.3,Win32,60,-0.118518519,-0.340740741,1,0,0,0.079825,scale,,,,,,0.3702,0.3,0.1234,0.1,stimuli/lakes/905070_left.png,stimuli/lakes/905070_right.png,,,,0,27,27,70,1,,,,,
,,,,,,$5db2d2d3382f4400093b0b98,2020-07-21_17h10.04.973,fisher_task,2020.1.3,Win32,60,0.123148148,-0.308333333,1,0,0,0.07982,scale,,,,,,0.3702,0.3,0.1234,0.1,stimuli/lakes/906088_left.png,stimuli/lakes/906088_right.png,,,,0,28,28,88,1,,,,,
,,,,,,$5db2d2d3382f4400093b0b98,2020-07-21_17h10.04.973,fisher_task,2020.1.3,Win32,60,0.187962963,-0.328703704,1,0,0,0.74678,scale,,,,,,0.2468,0.2,0.302267034,0.244948974,stimuli/lakes/404053_left.png,stimuli/lakes/404053_right.png,,,,0,29,29,53,1,,,,,
,,,,,,$5db2d2d3382f4400093b0b98,2020-07-21_17h10.04.973,fisher_task,2020.1.3,Win32,60,-0.169444444,-0.347222222,1,0,0,1.039555,scale,,,,,,0.21373507,0.173205081,0.326485712,0.264575131,stimuli/lakes/306082_left.png,stimuli/lakes/306082_right.png,,,,0,30,30,82,1,,,,,
,,,,,,$5db2d2d3382f4400093b0b98,2020-07-21_17h10.04.973,fisher_task,2020.1.3,Win32,60,0.134259259,-0.323148148,1,0,0,1.160205,scale,,,,,,0.1234,0.1,0.3702,0.3,stimuli/lakes/103023_left.png,stimuli/lakes/103023_right.png,,,,0,31,31,23,1,,,,,
,,,,,,$5db2d2d3382f4400093b0b98,2020-07-21_17h10.04.973,fisher_task,2020.1.3,Win32,60,-0.162037037,-0.347222222,1,0,0,0.75975,scale,,,,,,0.326485712,0.264575131,0.21373507,0.173205081,stimuli/lakes/706086_left.png,stimuli/lakes/706086_right.png,,,,0,32,32,86,1,,,,,
,,,,,,$5db2d2d3382f4400093b0b98,2020-07-21_17h10.04.973,fisher_task,2020.1.3,Win32,60,-0.190740741,-0.357407407,1,0,0,0.812805,scale,,,,,,0.3702,0.3,0.1234,0.1,stimuli/lakes/907097_left.png,stimuli/lakes/907097_right.png,,,,0,33,33,97,1,,,,,
,,,,,,$5db2d2d3382f4400093b0b98,2020-07-21_17h10.04.973,fisher_task,2020.1.3,Win32,60,0.162962963,-0.284259259,1,0,0,0.639935,scale,,,,,,0.326485712,0.264575131,0.21373507,0.173205081,stimuli/lakes/703029_left.png,stimuli/lakes/703029_right.png,,,,0,34,34,29,1,,,,,
,,,,,,$5db2d2d3382f4400093b0b98,2020-07-21_17h10.04.973,fisher_task,2020.1.3,Win32,60,-0.086111111,-0.318518519,1,0,0,0.04011,scale,,,,,,0.275930788,0.223606798,0.275930788,0.223606798,stimuli/lakes/503027_left.png,stimuli/lakes/503027_right.png,,,,0,35,35,27,1,,,,,
,,,,,,$5db2d2d3382f4400093b0b98,2020-07-21_17h10.04.973,fisher_task,2020.1.3,Win32,60,0.177777778,-0.258333333,1,0,0,0.053175,scale,,,,,,0.302267034,0.244948974,0.2468,0.2,stimuli/lakes/605065_left.png,stimuli/lakes/605065_right.png,,,,0,36,36,65,1,,,,,
,,,,,,$5db2d2d3382f4400093b0b98,2020-07-21_17h10.04.973,fisher_task,2020.1.3,Win32,60,0.017592593,-0.258333333,1,0,0,0.346925,scale,,,,,,0.174513954,0.141421356,0.349027907,0.282842712,stimuli/lakes/202011_left.png,stimuli/lakes/202011_right.png,,,,0,37,37,11,1,,,,,
,,,,,,$5db2d2d3382f4400093b0b98,2020-07-21_17h10.04.973,fisher_task,2020.1.3,Win32,60,-0.117592593,-0.310185185,1,0,0,0.119945,scale,,,,,,0.326485712,0.264575131,0.21373507,0.173205081,stimuli/lakes/7070104_left.png,stimuli/lakes/7070104_right.png,,,,0,38,38,104,1,,,,,
,,,,,,$5db2d2d3382f4400093b0b98,2020-07-21_17h10.04.973,fisher_task,2020.1.3,Win32,60,-0.113888889,-0.308333333,1,0,0,0.39991,scale,,,,,,0.275930788,0.223606798,0.275930788,0.223606798,stimuli/lakes/5080113_left.png,stimuli/lakes/5080113_right.png,,,,0,39,39,113,1,,,,,
,,,,,,$5db2d2d3382f4400093b0b98,2020-07-21_17h10.04.973,fisher_task,2020.1.3,Win32,60,-0.112962963,-0.30462963,1,0,0,2.05355,scale,,,,,,0.2468,0.2,0.302267034,0.244948974,stimuli/lakes/406074_left.png,stimuli/lakes/406074_right.png,,,,0,40,40,74,1,,,,,
,,,,,,$5db2d2d3382f4400093b0b98,2020-07-21_17h10.04.973,fisher_task,2020.1.3,Win32,60,-0.037037037,-0.277777778,1,0,0,15.19229,scale,,,,,,0.326485712,0.264575131,0.21373507,0.173205081,stimuli/lakes/705068_left.png,stimuli/lakes/705068_right.png,,,,0,41,41,68,1,,,,,
,,,,,,$5db2d2d3382f4400093b0b98,2020-07-21_17h10.04.973,fisher_task,2020.1.3,Win32,60,0.123148148,-0.251851852,1,0,0,0.039575,scale,,,,,,0.349027907,0.282842712,0.174513954,0.141421356,stimuli/lakes/80109_left.png,stimuli/lakes/80109_right.png,,,,0,42,42,9,1,,,,,
,,,,,,$5db2d2d3382f4400093b0b98,2020-07-21_17h10.04.973,fisher_task,2020.1.3,Win32,60,0.123148148,-0.285185185,1,0,0,0.266615,scale,,,,,,0.326485712,0.264575131,0.21373507,0.173205081,stimuli/lakes/703038_left.png,stimuli/lakes/703038_right.png,,,,0,43,43,38,1,,,,,
,,,,,,$5db2d2d3382f4400093b0b98,2020-07-21_17h10.04.973,fisher_task,2020.1.3,Win32,60,0.10462963,-0.275,1,0,0,1.666975,scale,,,,,,0.21373507,0.173205081,0.326485712,0.264575131,stimuli/lakes/307091_left.png,stimuli/lakes/307091_right.png,,,space,0,44,44,91,1,16.407295,,,,
,,,,,,$5db2d2d3382f4400093b0b98,2020-07-21_17h10.04.973,fisher_task,2020.1.3,Win32,60,0.114814815,-0.301851852,1,0,0,10.576995,scale,,,,,,0.3702,0.3,0.1234,0.1,stimuli/lakes/902022_left.png,stimuli/lakes/902022_right.png,,,,0,45,45,22,1,,,,,
,,,,,,$5db2d2d3382f4400093b0b98,2020-07-21_17h10.04.973,fisher_task,2020.1.3,Win32,60,0.114814815,-0.301851852,1,0,0,1.213305,scale,,,,,,0.3702,0.3,0.1234,0.1,stimuli/lakes/901010_left.png,stimuli/lakes/901010_right.png,,,,0,46,46,10,1,,,,,
,,,,,,$5db2d2d3382f4400093b0b98,2020-07-21_17h10.04.973,fisher_task,2020.1.3,Win32,60,0.162962963,-0.27962963,1,0,0,2.467405,scale,,,,,,0.21373507,0.173205081,0.326485712,0.264575131,stimuli/lakes/30101_left.png,stimuli/lakes/30101_right.png,,,,0,47,47,1,1,,,,,
,,,,,,$5db2d2d3382f4400093b0b98,2020-07-21_17h10.04.973,fisher_task,2020.1.3,Win32,60,0.137037037,-0.303703704,1,0,0,0.03937,scale,,,,,,0.326485712,0.264575131,0.21373507,0.173205081,stimuli/lakes/706077_left.png,stimuli/lakes/706077_right.png,,,,0,48,48,77,1,,,,,
,,,,,,$5db2d2d3382f4400093b0b98,2020-07-21_17h10.04.973,fisher_task,2020.1.3,Win32,60,0.136111111,-0.3,1,0,0,0.03949,scale,,,,,,0.326485712,0.264575131,0.21373507,0.173205081,stimuli/lakes/7080117_left.png,stimuli/lakes/7080117_right.png,,,,0,49,49,117,1,,,,,
,,,,,,$5db2d2d3382f4400093b0b98,2020-07-21_17h10.04.973,fisher_task,2020.1.3,Win32,60,-0.135185185,-0.293518519,1,0,0,0.50685,scale,,,,,,0.1234,0.1,0.3702,0.3,stimuli/lakes/106080_left.png,stimuli/lakes/106080_right.png,,,,0,50,50,80,1,,,,,
,,,,,,$5db2d2d3382f4400093b0b98,2020-07-21_17h10.04.973,fisher_task,2020.1.3,Win32,60,0.115740741,-0.248148148,1,0,0,0.50657,scale,,,,,,0.2468,0.2,0.302267034,0.244948974,stimuli/lakes/4090124_left.png,stimuli/lakes/4090124_right.png,,,,0,51,51,124,1,,,,,
,,,,,,$5db2d2d3382f4400093b0b98,2020-07-21_17h10.04.973,fisher_task,2020.1.3,Win32,60,0.098148148,-0.203703704,1,0,0,0.440035,scale,,,,,,0.2468,0.2,0.302267034,0.244948974,stimuli/lakes/403035_left.png,stimuli/lakes/403035_right.png,,,,0,52,52,35,1,,,,,
,,,,,,$5db2d2d3382f4400093b0b98,2020-07-21_17h10.04.973,fisher_task,2020.1.3,Win32,60,0.117592593,-0.293518519,1,0,0,0.85331,scale,,,,,,0.302267034,0.244948974,0.2468,0.2,stimuli/lakes/603028_left.png,stimuli/lakes/603028_right.png,,,,0,53,53,28,1,,,,,
,,,,,,$5db2d2d3382f4400093b0b98,2020-07-21_17h10.04.973,fisher_task,2020.1.3,Win32,60,-0.369444444,-0.37037037,1,0,0,0.39973,scale,,,,,,0.2468,0.2,0.302267034,0.244948974,stimuli/lakes/407092_left.png,stimuli/lakes/407092_right.png,,,,0,54,54,92,1,,,,,
,,,,,,$5db2d2d3382f4400093b0b98,2020-07-21_17h10.04.973,fisher_task,2020.1.3,Win32,60,0.123148148,-0.335185185,1,0,0,0.15981,scale,,,,,,0.302267034,0.244948974,0.2468,0.2,stimuli/lakes/604046_left.png,stimuli/lakes/604046_right.png,,,,0,55,55,46,1,,,,,
,,,,,,$5db2d2d3382f4400093b0b98,2020-07-21_17h10.04.973,fisher_task,2020.1.3,Win32,60,0.119444444,-0.335185185,1,0,0,0.201025,scale,,,,,,0.349027907,0.282842712,0.174513954,0.141421356,stimuli/lakes/804048_left.png,stimuli/lakes/804048_right.png,,,,0,56,56,48,1,,,,,
,,,,,,$5db2d2d3382f4400093b0b98,2020-07-21_17h10.04.973,fisher_task,2020.1.3,Win32,60,-0.152777778,-0.317592593,1,0,0,0.07957,scale,,,,,,0.275930788,0.223606798,0.275930788,0.223606798,stimuli/lakes/502016_left.png,stimuli/lakes/502016_right.png,,,,0,57,57,16,1,,,,,
,,,,,,$5db2d2d3382f4400093b0b98,2020-07-21_17h10.04.973,fisher_task,2020.1.3,Win32,60,0.099074074,-0.330555556,1,0,0,0.146685,scale,,,,,,0.349027907,0.282842712,0.174513954,0.141421356,stimuli/lakes/806078_left.png,stimuli/lakes/806078_right.png,,,,0,58,58,78,1,,,,,
,,,,,,$5db2d2d3382f4400093b0b98,2020-07-21_17h10.04.973,fisher_task,2020.1.3,Win32,60,-0.153703704,-0.331481481,1,0,0,0.026435,scale,,,,,,0.2468,0.2,0.302267034,0.244948974,stimuli/lakes/4090123_left.png,stimuli/lakes/4090123_right.png,,,,0,59,59,123,1,,,,,
,,,,,,$5db2d2d3382f4400093b0b98,2020-07-21_17h10.04.973,fisher_task,2020.1.3,Win32,60,0.059259259,-0.278703704,1,0,0,0.19988,scale,,,,,,0.21373507,0.173205081,0.326485712,0.264575131,stimuli/lakes/30100_left.png,stimuli/lakes/30100_right.png,,,,0,60,60,0,1,,,,,
,,,,,,$5db2d2d3382f4400093b0b98,2020-07-21_17h10.04.973,fisher_task,2020.1.3,Win32,60,-0.162962963,-0.337962963,1,0,0,0.266545,scale,,,,,,0.21373507,0.173205081,0.326485712,0.264575131,stimuli/lakes/3080110_left.png,stimuli/lakes/3080110_right.png,,,,0,61,61,110,1,,,,,
,,,,,,$5db2d2d3382f4400093b0b98,2020-07-21_17h10.04.973,fisher_task,2020.1.3,Win32,60,0.103703704,-0.334259259,1,0,0,0.0664,scale,,,,,,0.21373507,0.173205081,0.326485712,0.264575131,stimuli/lakes/302012_left.png,stimuli/lakes/302012_right.png,,,,0,62,62,12,1,,,,,
,,,,,,$5db2d2d3382f4400093b0b98,2020-07-21_17h10.04.973,fisher_task,2020.1.3,Win32,60,0.122222222,-0.333333333,1,0,0,0.25327,scale,,,,,,0.302267034,0.244948974,0.2468,0.2,stimuli/lakes/606076_left.png,stimuli/lakes/606076_right.png,,,,0,63,63,76,1,,,,,
,,,,,,$5db2d2d3382f4400093b0b98,2020-07-21_17h10.04.973,fisher_task,2020.1.3,Win32,60,0.122222222,-0.333333333,1,0,0,0.26656,scale,,,,,,0.302267034,0.244948974,0.2468,0.2,stimuli/lakes/606085_left.png,stimuli/lakes/606085_right.png,,,,0,64,64,85,1,,,,,
,,,,,,$5db2d2d3382f4400093b0b98,2020-07-21_17h10.04.973,fisher_task,2020.1.3,Win32,60,-0.090740741,-0.356481481,1,0,0,0.426995,scale,,,,,,0.2468,0.2,0.302267034,0.244948974,stimuli/lakes/404044_left.png,stimuli/lakes/404044_right.png,,,,0,65,65,44,1,,,,,
,,,,,,$5db2d2d3382f4400093b0b98,2020-07-21_17h10.04.973,fisher_task,2020.1.3,Win32,60,0.180555556,-0.272222222,1,0,0,0.386815,scale,,,,,,0.174513954,0.141421356,0.349027907,0.282842712,stimuli/lakes/203024_left.png,stimuli/lakes/203024_right.png,,,space,0,66,66,24,1,1.554505,,,,
,,,,,,$5db2d2d3382f4400093b0b98,2020-07-21_17h10.04.973,fisher_task,2020.1.3,Win32,60,0.161111111,-0.308333333,1,0,0,0.146595,scale,,,,,,0.174513954,0.141421356,0.349027907,0.282842712,stimuli/lakes/2090120_left.png,stimuli/lakes/2090120_right.png,,,,0,67,67,120,1,,,,,
,,,,,,$5db2d2d3382f4400093b0b98,2020-07-21_17h10.04.973,fisher_task,2020.1.3,Win32,60,0.160185185,-0.308333333,1,0,0,0.60004,scale,,,,,,0.174513954,0.141421356,0.349027907,0.282842712,stimuli/lakes/205060_left.png,stimuli/lakes/205060_right.png,,,,0,68,68,60,1,,,,,
,,,,,,$5db2d2d3382f4400093b0b98,2020-07-21_17h10.04.973,fisher_task,2020.1.3,Win32,60,-0.085185185,-0.314814815,1,0,0,0.039785,scale,,,,,,0.326485712,0.264575131,0.21373507,0.173205081,stimuli/lakes/70107_left.png,stimuli/lakes/70107_right.png,,,,0,69,69,7,1,,,,,
,,,,,,$5db2d2d3382f4400093b0b98,2020-07-21_17h10.04.973,fisher_task,2020.1.3,Win32,60,-0.085185185,-0.314814815,1,0,0,0.0264,scale,,,,,,0.2468,0.2,0.302267034,0.244948974,stimuli/lakes/402015_left.png,stimuli/lakes/402015_right.png,,,,0,70,70,15,1,,,,,
,,,,,,$5db2d2d3382f4400093b0b98,2020-07-21_17h10.04.973,fisher_task,2020.1.3,Win32,60,0.164814815,-0.365740741,1,0,0,0.039275,scale,,,,,,0.21373507,0.173205081,0.326485712,0.264575131,stimuli/lakes/304052_left.png,stimuli/lakes/304052_right.png,,,,0,71,71,52,1,,,,,
,,,,,,$5db2d2d3382f4400093b0b98,2020-07-21_17h10.04.973,fisher_task,2020.1.3,Win32,60,0.125925926,-0.377777778,1,0,0,0.17292,scale,,,,,,0.302267034,0.244948974,0.2468,0.2,stimuli/lakes/603037_left.png,stimuli/lakes/603037_right.png,,,,0,72,72,37,1,,,,,
,,,,,,$5db2d2d3382f4400093b0b98,2020-07-21_17h10.04.973,fisher_task,2020.1.3,Win32,60,0.081481481,-0.394444444,1,0,0,0.132765,scale,,,,,,0.326485712,0.264575131,0.21373507,0.173205081,stimuli/lakes/7090128_left.png,stimuli/lakes/7090128_right.png,,,,0,73,73,128,1,,,,,
,,,,,,$5db2d2d3382f4400093b0b98,2020-07-21_17h10.04.973,fisher_task,2020.1.3,Win32,60,0.005555556,-0.396296296,1,0,0,0.586645,scale,,,,,,0.3702,0.3,0.1234,0.1,stimuli/lakes/903040_left.png,stimuli/lakes/903040_right.png,,,,0,74,74,40,1,,,,,
,,,,,,$5db2d2d3382f4400093b0b98,2020-07-21_17h10.04.973,fisher_task,2020.1.3,Win32,60,0.002777778,-0.393518519,1,0,0,0.399845,scale,,,,,,0.1234,0.1,0.3702,0.3,stimuli/lakes/105059_left.png,stimuli/lakes/105059_right.png,,,,0,75,75,59,1,,,,,
,,,,,,$5db2d2d3382f4400093b0b98,2020-07-21_17h10.04.973,fisher_task,2020.1.3,Win32,60,0.236111111,-0.291666667,1,0,0,0.066225,scale,,,,,,0.1234,0.1,0.3702,0.3,stimuli/lakes/104041_left.png,stimuli/lakes/104041_right.png,,,,0,76,76,41,1,,,,,
,,,,,,$5db2d2d3382f4400093b0b98,2020-07-21_17h10.04.973,fisher_task,2020.1.3,Win32,60,0.038888889,-0.289814815,1,0,0,0.426775,scale,,,,,,0.349027907,0.282842712,0.174513954,0.141421356,stimuli/lakes/804057_left.png,stimuli/lakes/804057_right.png,,,,0,77,77,57,1,,,,,
,,,,,,$5db2d2d3382f4400093b0b98,2020-07-21_17h10.04.973,fisher_task,2020.1.3,Win32,60,0.110185185,-0.327777778,1,0,0,0.23986,scale,,,,,,0.3702,0.3,0.1234,0.1,stimuli/lakes/904058_left.png,stimuli/lakes/904058_right.png,,,,0,78,78,58,1,,,,,
,,,,,,$5db2d2d3382f4400093b0b98,2020-07-21_17h10.04.973,fisher_task,2020.1.3,Win32,60,0.110185185,-0.327777778,1,0,0,0.026475,scale,,,,,,0.302267034,0.244948974,0.2468,0.2,stimuli/lakes/602018_left.png,stimuli/lakes/602018_right.png,,,,0,79,79,18,1,,,,,
,,,,,,$5db2d2d3382f4400093b0b98,2020-07-21_17h10.04.973,fisher_task,2020.1.3,Win32,60,0.111111111,-0.327777778,1,0,0,0.69327,scale,,,,,,0.302267034,0.244948974,0.2468,0.2,stimuli/lakes/60105_left.png,stimuli/lakes/60105_right.png,,,,0,80,80,5,1,,,,,
,,,,,,$5db2d2d3382f4400093b0b98,2020-07-21_17h10.04.973,fisher_task,2020.1.3,Win32,60,-0.007407407,-0.343518519,1,0,0,0.12003,scale,,,,,,0.21373507,0.173205081,0.326485712,0.264575131,stimuli/lakes/302013_left.png,stimuli/lakes/302013_right.png,,,,0,81,81,13,1,,,,,
,,,,,,$5db2d2d3382f4400093b0b98,2020-07-21_17h10.04.973,fisher_task,2020.1.3,Win32,60,-0.007407407,-0.343518519,1,0,0,0.06641,scale,,,,,,0.275930788,0.223606798,0.275930788,0.223606798,stimuli/lakes/506084_left.png,stimuli/lakes/506084_right.png,,,,0,82,82,84,1,,,,,
,,,,,,$5db2d2d3382f4400093b0b98,2020-07-21_17h10.04.973,fisher_task,2020.1.3,Win32,60,0.016666667,-0.350925926,1,0,0,0.34644,scale,,,,,,0.302267034,0.244948974,0.2468,0.2,stimuli/lakes/602017_left.png,stimuli/lakes/602017_right.png,,,,0,83,83,17,1,,,,,
,,,,,,$5db2d2d3382f4400093b0b98,2020-07-21_17h10.04.973,fisher_task,2020.1.3,Win32,60,0.047222222,-0.357407407,1,0,0,0.266515,scale,,,,,,0.2468,0.2,0.302267034,0.244948974,stimuli/lakes/405064_left.png,stimuli/lakes/405064_right.png,,,,0,84,84,64,1,,,,,
,,,,,,$5db2d2d3382f4400093b0b98,2020-07-21_17h10.04.973,fisher_task,2020.1.3,Win32,60,0.051851852,-0.358333333,1,0,0,2.507445,scale,,,,,,0.302267034,0.244948974,0.2468,0.2,stimuli/lakes/607094_left.png,stimuli/lakes/607094_right.png,,,,0,85,85,94,1,,,,,
,,,,,,$5db2d2d3382f4400093b0b98,2020-07-21_17h10.04.973,fisher_task,2020.1.3,Win32,60,0.096296296,-0.350925926,1,0,0,0.213025,scale,,,,,,0.1234,0.1,0.3702,0.3,stimuli/lakes/107089_left.png,stimuli/lakes/107089_right.png,,,,0,86,86,89,1,,,,,
,,,,,,$5db2d2d3382f4400093b0b98,2020-07-21_17h10.04.973,fisher_task,2020.1.3,Win32,60,0.105555556,-0.340740741,1,0,0,0.079645,scale,,,,,,0.275930788,0.223606798,0.275930788,0.223606798,stimuli/lakes/5090125_left.png,stimuli/lakes/5090125_right.png,,,,0,87,87,125,1,,,,,
,,,,,,$5db2d2d3382f4400093b0b98,2020-07-21_17h10.04.973,fisher_task,2020.1.3,Win32,60,0.116666667,-0.326851852,1,0,0,0.093215,scale,,,,,,0.275930788,0.223606798,0.275930788,0.223606798,stimuli/lakes/504045_left.png,stimuli/lakes/504045_right.png,,,space,0,88,88,45,1,0.596385,,,,
,,,,,,$5db2d2d3382f4400093b0b98,2020-07-21_17h10.04.973,fisher_task,2020.1.3,Win32,60,-0.144444444,-0.276851852,1,0,0,0.093115,scale,,,,,,0.3702,0.3,0.1234,0.1,stimuli/lakes/906079_left.png,stimuli/lakes/906079_right.png,,,,0,89,89,79,1,,,,,
,,,,,,$5db2d2d3382f4400093b0b98,2020-07-21_17h10.04.973,fisher_task,2020.1.3,Win32,60,-0.144444444,-0.27962963,1,0,0,0.05329,scale,,,,,,0.275930788,0.223606798,0.275930788,0.223606798,stimuli/lakes/50104_left.png,stimuli/lakes/50104_right.png,,,,0,90,90,4,1,,,,,
,,,,,,$5db2d2d3382f4400093b0b98,2020-07-21_17h10.04.973,fisher_task,2020.1.3,Win32,60,0.112037037,-0.282407407,1,0,0,0.026455,scale,,,,,,0.2468,0.2,0.302267034,0.244948974,stimuli/lakes/40103_left.png,stimuli/lakes/40103_right.png,,,,0,91,91,3,1,,,,,
,,,,,,$5db2d2d3382f4400093b0b98,2020-07-21_17h10.04.973,fisher_task,2020.1.3,Win32,60,0.118518519,-0.286111111,1,0,0,0.19991,scale,,,,,,0.174513954,0.141421356,0.349027907,0.282842712,stimuli/lakes/203033_left.png,stimuli/lakes/203033_right.png,,,,0,92,92,33,1,,,,,
,,,,,,$5db2d2d3382f4400093b0b98,2020-07-21_17h10.04.973,fisher_task,2020.1.3,Win32,60,-0.102777778,-0.316666667,1,0,0,0.119885,scale,,,,,,0.2468,0.2,0.302267034,0.244948974,stimuli/lakes/4070101_left.png,stimuli/lakes/4070101_right.png,,,,0,93,93,101,1,,,,,
,,,,,,$5db2d2d3382f4400093b0b98,2020-07-21_17h10.04.973,fisher_task,2020.1.3,Win32,60,0.118518519,-0.328703704,1,0,0,0.133205,scale,,,,,,0.21373507,0.173205081,0.326485712,0.264575131,stimuli/lakes/304043_left.png,stimuli/lakes/304043_right.png,,,,0,94,94,43,1,,,,,
,,,,,,$5db2d2d3382f4400093b0b98,2020-07-21_17h10.04.973,fisher_task,2020.1.3,Win32,60,-0.137037037,-0.297222222,1,0,0,0.09283,scale,,,,,,0.326485712,0.264575131,0.21373507,0.173205081,stimuli/lakes/7080116_left.png,stimuli/lakes/7080116_right.png,,,,0,95,95,116,1,,,,,
,,,,,,$5db2d2d3382f4400093b0b98,2020-07-21_17h10.04.973,fisher_task,2020.1.3,Win32,60,0.149074074,-0.312962963,1,0,0,0.093085,scale,,,,,,0.1234,0.1,0.3702,0.3,stimuli/lakes/103032_left.png,stimuli/lakes/103032_right.png,,,,0,96,96,32,1,,,,,
,,,,,,$5db2d2d3382f4400093b0b98,2020-07-21_17h10.04.973,fisher_task,2020.1.3,Win32,60,0.147222222,-0.312962963,1,0,0,0.066465,scale,,,,,,0.326485712,0.264575131,0.21373507,0.173205081,stimuli/lakes/704047_left.png,stimuli/lakes/704047_right.png,,,,0,97,97,47,1,,,,,
,,,,,,$5db2d2d3382f4400093b0b98,2020-07-21_17h10.04.973,fisher_task,2020.1.3,Win32,60,0.136111111,-0.312037037,1,0,0,0.053095,scale,,,,,,0.174513954,0.141421356,0.349027907,0.282842712,stimuli/lakes/206081_left.png,stimuli/lakes/206081_right.png,,,,0,98,98,81,1,,,,,
,,,,,,$5db2d2d3382f4400093b0b98,2020-07-21_17h10.04.973,fisher_task,2020.1.3,Win32,60,0.136111111,-0.312037037,1,0,0,0.266665,scale,,,,,,0.1234,0.1,0.3702,0.3,stimuli/lakes/1080107_left.png,stimuli/lakes/1080107_right.png,,,,0,99,99,107,1,,,,,
,,,,,,$5db2d2d3382f4400093b0b98,2020-07-21_17h10.04.973,fisher_task,2020.1.3,Win32,60,0.135185185,-0.311111111,1,0,0,0.93357,scale,,,,,,0.1234,0.1,0.3702,0.3,stimuli/lakes/107098_left.png,stimuli/lakes/107098_right.png,,,,0,100,100,98,1,,,,,
,,,,,,$5db2d2d3382f4400093b0b98,2020-07-21_17h10.04.973,fisher_task,2020.1.3,Win32,60,0.134259259,-0.311111111,1,0,0,0.853525,scale,,,,,,0.349027907,0.282842712,0.174513954,0.141421356,stimuli/lakes/803030_left.png,stimuli/lakes/803030_right.png,,,,0,101,101,30,1,,,,,
,,,,,,$5db2d2d3382f4400093b0b98,2020-07-21_17h10.04.973,fisher_task,2020.1.3,Win32,60,-0.063888889,-0.283333333,1,0,0,0.093315,scale,,,,,,0.21373507,0.173205081,0.326485712,0.264575131,stimuli/lakes/3070100_left.png,stimuli/lakes/3070100_right.png,,,,0,102,102,100,1,,,,,
,,,,,,$5db2d2d3382f4400093b0b98,2020-07-21_17h10.04.973,fisher_task,2020.1.3,Win32,60,0.037037037,-0.303703704,1,0,0,2.574225,scale,,,,,,0.21373507,0.173205081,0.326485712,0.264575131,stimuli/lakes/305062_left.png,stimuli/lakes/305062_right.png,,,,0,103,103,62,1,,,,,
,,,,,,$5db2d2d3382f4400093b0b98,2020-07-21_17h10.04.973,fisher_task,2020.1.3,Win32,60,0.036111111,-0.411111111,1,0,0,31.4651,scale,,,,,,0.174513954,0.141421356,0.349027907,0.282842712,stimuli/lakes/204051_left.png,stimuli/lakes/204051_right.png,,,,0,104,104,51,1,,,,,
,,,,,,$5db2d2d3382f4400093b0b98,2020-07-21_17h10.04.973,fisher_task,2020.1.3,Win32,60,-0.137962963,-0.369444444,1,0,0,0.025675,scale,,,,,,0.302267034,0.244948974,0.2468,0.2,stimuli/lakes/6080114_left.png,stimuli/lakes/6080114_right.png,,,,0,105,105,114,1,,,,,
,,,,,,$5db2d2d3382f4400093b0b98,2020-07-21_17h10.04.973,fisher_task,2020.1.3,Win32,60,-0.041666667,-0.351851852,1,0,0,0.17292,scale,,,,,,0.1234,0.1,0.3702,0.3,stimuli/lakes/106071_left.png,stimuli/lakes/106071_right.png,,,,0,106,106,71,1,,,,,
,,,,,,$5db2d2d3382f4400093b0b98,2020-07-21_17h10.04.973,fisher_task,2020.1.3,Win32,60,0.028703704,-0.328703704,1,0,0,0.079905,scale,,,,,,0.2468,0.2,0.302267034,0.244948974,stimuli/lakes/4080112_left.png,stimuli/lakes/4080112_right.png,,,,0,107,107,112,1,,,,,
,,,,,,$5db2d2d3382f4400093b0b98,2020-07-21_17h10.04.973,fisher_task,2020.1.3,Win32,60,0.037962963,-0.29537037,1,0,0,0.11957,scale,,,,,,0.302267034,0.244948974,0.2468,0.2,stimuli/lakes/6080115_left.png,stimuli/lakes/6080115_right.png,,,,0,108,108,115,1,,,,,
,,,,,,$5db2d2d3382f4400093b0b98,2020-07-21_17h10.04.973,fisher_task,2020.1.3,Win32,60,0.09537037,-0.262037037,1,0,0,0.04011,scale,,,,,,0.21373507,0.173205081,0.326485712,0.264575131,stimuli/lakes/306073_left.png,stimuli/lakes/306073_right.png,,,,0,109,109,73,1,,,,,
,,,,,,$5db2d2d3382f4400093b0b98,2020-07-21_17h10.04.973,fisher_task,2020.1.3,Win32,60,0.096296296,-0.30462963,1,0,0,0.06642,scale,,,,,,0.174513954,0.141421356,0.349027907,0.282842712,stimuli/lakes/204042_left.png,stimuli/lakes/204042_right.png,,,space,0,110,110,42,1,0.926595,,,,
,,,,,,$5db2d2d3382f4400093b0b98,2020-07-21_17h10.04.973,fisher_task,2020.1.3,Win32,60,-0.089814815,-0.315740741,1,0,0,0.02664,scale,,,,,,0.349027907,0.282842712,0.174513954,0.141421356,stimuli/lakes/8070105_left.png,stimuli/lakes/8070105_right.png,,,,0,111,111,105,1,,,,,
,,,,,,$5db2d2d3382f4400093b0b98,2020-07-21_17h10.04.973,fisher_task,2020.1.3,Win32,60,-0.089814815,-0.315740741,1,0,0,0.18639,scale,,,,,,0.275930788,0.223606798,0.275930788,0.223606798,stimuli/lakes/503036_left.png,stimuli/lakes/503036_right.png,,,,0,112,112,36,1,,,,,
,,,,,,$5db2d2d3382f4400093b0b98,2020-07-21_17h10.04.973,fisher_task,2020.1.3,Win32,60,-0.089814815,-0.315740741,1,0,0,0.21309,scale,,,,,,0.349027907,0.282842712,0.174513954,0.141421356,stimuli/lakes/8080118_left.png,stimuli/lakes/8080118_right.png,,,,0,113,113,118,1,,,,,
,,,,,,$5db2d2d3382f4400093b0b98,2020-07-21_17h10.04.973,fisher_task,2020.1.3,Win32,60,-0.089814815,-0.315740741,1,0,0,0.066205,scale,,,,,,0.349027907,0.282842712,0.174513954,0.141421356,stimuli/lakes/807096_left.png,stimuli/lakes/807096_right.png,,,,0,114,114,96,1,,,,,
,,,,,,$5db2d2d3382f4400093b0b98,2020-07-21_17h10.04.973,fisher_task,2020.1.3,Win32,60,-0.047222222,-0.299074074,1,0,0,0.186285,scale,,,,,,0.349027907,0.282842712,0.174513954,0.141421356,stimuli/lakes/803039_left.png,stimuli/lakes/803039_right.png,,,,0,115,115,39,1,,,,,
,,,,,,$5db2d2d3382f4400093b0b98,2020-07-21_17h10.04.973,fisher_task,2020.1.3,Win32,60,0.02962963,-0.276851852,1,0,0,0.053035,scale,,,,,,0.3702,0.3,0.1234,0.1,stimuli/lakes/904049_left.png,stimuli/lakes/904049_right.png,,,,0,116,116,49,1,,,,,
,,,,,,$5db2d2d3382f4400093b0b98,2020-07-21_17h10.04.973,fisher_task,2020.1.3,Win32,60,0.066666667,-0.27962963,1,0,0,0.06649,scale,,,,,,0.275930788,0.223606798,0.275930788,0.223606798,stimuli/lakes/504054_left.png,stimuli/lakes/504054_right.png,,,,0,117,117,54,1,,,,,
,,,,,,$5db2d2d3382f4400093b0b98,2020-07-21_17h10.04.973,fisher_task,2020.1.3,Win32,60,0.068518519,-0.27962963,1,0,0,0.119875,scale,,,,,,0.174513954,0.141421356,0.349027907,0.282842712,stimuli/lakes/206072_left.png,stimuli/lakes/206072_right.png,,,,0,118,118,72,1,,,,,
,,,,,,$5db2d2d3382f4400093b0b98,2020-07-21_17h10.04.973,fisher_task,2020.1.3,Win32,60,0.068518519,-0.27962963,1,0,0,0.079925,scale,,,,,,0.326485712,0.264575131,0.21373507,0.173205081,stimuli/lakes/702019_left.png,stimuli/lakes/702019_right.png,,,,0,119,119,19,1,,,,,
,,,,,,$5db2d2d3382f4400093b0b98,2020-07-21_17h10.04.973,fisher_task,2020.1.3,Win32,60,0.068518519,-0.27962963,1,0,0,0.13312,scale,,,,,,0.21373507,0.173205081,0.326485712,0.264575131,stimuli/lakes/305061_left.png,stimuli/lakes/305061_right.png,,,,0,120,120,61,1,,,,,
,,,,,,$5db2d2d3382f4400093b0b98,2020-07-21_17h10.04.973,fisher_task,2020.1.3,Win32,60,0.068518519,-0.27962963,1,0,0,0.119605,scale,,,,,,0.326485712,0.264575131,0.21373507,0.173205081,stimuli/lakes/7090129_left.png,stimuli/lakes/7090129_right.png,,,,0,121,121,129,1,,,,,
,,,,,,$5db2d2d3382f4400093b0b98,2020-07-21_17h10.04.973,fisher_task,2020.1.3,Win32,60,0.068518519,-0.27962963,1,0,0,0.413225,scale,,,,,,0.326485712,0.264575131,0.21373507,0.173205081,stimuli/lakes/704056_left.png,stimuli/lakes/704056_right.png,,,,0,122,122,56,1,,,,,
,,,,,,$5db2d2d3382f4400093b0b98,2020-07-21_17h10.04.973,fisher_task,2020.1.3,Win32,60,0.091666667,-0.274074074,1,0,0,0.693415,scale,,,,,,0.302267034,0.244948974,0.2468,0.2,stimuli/lakes/6070103_left.png,stimuli/lakes/6070103_right.png,,,,0,123,123,103,1,,,,,
,,,,,,$5db2d2d3382f4400093b0b98,2020-07-21_17h10.04.973,fisher_task,2020.1.3,Win32,60,-0.159259259,-0.332407407,1,0,0,0.53329,scale,,,,,,0.302267034,0.244948974,0.2468,0.2,stimuli/lakes/604055_left.png,stimuli/lakes/604055_right.png,,,,0,124,124,55,1,,,,,
,,,,,,$5db2d2d3382f4400093b0b98,2020-07-21_17h10.04.973,fisher_task,2020.1.3,Win32,60,0.086111111,-0.288888889,1,0,0,0.039635,scale,,,,,,0.326485712,0.264575131,0.21373507,0.173205081,stimuli/lakes/70108_left.png,stimuli/lakes/70108_right.png,,,,0,125,125,8,1,,,,,
,,,,,,$5db2d2d3382f4400093b0b98,2020-07-21_17h10.04.973,fisher_task,2020.1.3,Win32,60,0.108333333,-0.328703704,1,0,0,2.44096,scale,,,,,,0.2468,0.2,0.302267034,0.244948974,stimuli/lakes/402014_left.png,stimuli/lakes/402014_right.png,,,,0,126,126,14,1,,,,,
,,,,,,$5db2d2d3382f4400093b0b98,2020-07-21_17h10.04.973,fisher_task,2020.1.3,Win32,60,0.106481481,-0.315740741,1,0,0,0.013435,scale,,,,,,0.2468,0.2,0.302267034,0.244948974,stimuli/lakes/406083_left.png,stimuli/lakes/406083_right.png,,,,0,127,127,83,1,,,,,
,,,,,,$5db2d2d3382f4400093b0b98,2020-07-21_17h10.04.973,fisher_task,2020.1.3,Win32,60,0.106481481,-0.315740741,1,0,0,0.70682,scale,,,,,,0.3702,0.3,0.1234,0.1,stimuli/lakes/9070106_left.png,stimuli/lakes/9070106_right.png,,,,0,128,128,106,1,,,,,
,,,,,,$5db2d2d3382f4400093b0b98,2020-07-21_17h10.04.973,fisher_task,2020.1.3,Win32,60,0.105555556,-0.314814815,1,0,0,0.213045,scale,,,,,,0.302267034,0.244948974,0.2468,0.2,stimuli/lakes/605066_left.png,stimuli/lakes/605066_right.png,,,,0,129,129,66,1,,,,,
,,,,,,$5db2d2d3382f4400093b0b98,2020-07-21_17h10.04.973,fisher_task,2020.1.3,Win32,60,,,,,,,,,,,,,,,,,,,,,,,,,,,,space,17.638665,space,4.571275
