keySpace.keys,instructions.thisRepN,instructions.thisTrialN,instructions.thisN,instructions.thisIndex,instructions.ran,participant,date,expName,psychopyVersion,OS,frameRate,fbclid,mouse.x,mouse.y,mouse.leftButton,mouse.midButton,mouse.rightButton,mouse.time,mouse.clicked_name,training.thisRepN,training.thisTrialN,training.thisN,training.thisIndex,training.ran,widthBasketLeft,heightBasketLeft,widthBasketRight,heightBasketRight,leftLake,rightLake,space2.keys,space2.rt,space1.keys,trials.thisRepN,trials.thisTrialN,trials.thisN,trials.thisIndex,trials.ran,space1.rt,finalSpace1.keys,finalSpace1.rt,finalSpace2.keys,finalSpace2.rt
,0,0,0,0,1,$5ec2ccb9bb23250d7ee425db,2020-07-20_14h38.56.898,fisher_task,2020.1.3,Win32,60,IwAR3TdExosWQJQBjV0ss3H59nqxlsONppn7wAdTuJqZAFVcI318DU3gLgoWg,,,,,,,,,,,,,,,,,,,,,,,,,,,,,,,
,,,,,,$5ec2ccb9bb23250d7ee425db,2020-07-20_14h38.56.898,fisher_task,2020.1.3,Win32,60,IwAR3TdExosWQJQBjV0ss3H59nqxlsONppn7wAdTuJqZAFVcI318DU3gLgoWg,0.172222238,-0.410185199,1,0,0,2.4575,scale,0,0,0,0,1,0.275930788,0.223606798,0.275930788,0.223606798,stimuli/training/20_left.png,stimuli/training/20_right.png,,,,,,,,,,,,,
,,,,,,$5ec2ccb9bb23250d7ee425db,2020-07-20_14h38.56.898,fisher_task,2020.1.3,Win32,60,IwAR3TdExosWQJQBjV0ss3H59nqxlsONppn7wAdTuJqZAFVcI318DU3gLgoWg,-0.172222212,-0.399074087,1,0,0,1.499585,scale,0,1,1,1,1,0.275930788,0.223606798,0.275930788,0.223606798,stimuli/training/80_left.png,stimuli/training/80_right.png,,,,,,,,,,,,,
,,,,,,$5ec2ccb9bb23250d7ee425db,2020-07-20_14h38.56.898,fisher_task,2020.1.3,Win32,60,IwAR3TdExosWQJQBjV0ss3H59nqxlsONppn7wAdTuJqZAFVcI318DU3gLgoWg,0.097222237,-0.280555567,1,0,0,2.061485,scale,0,2,2,2,1,0.174513954,0.141421356,0.349027907,0.282842712,stimuli/training/50_left.png,stimuli/training/50_right.png,,,,,,,,,,,,,
,,,,,,$5ec2ccb9bb23250d7ee425db,2020-07-20_14h38.56.898,fisher_task,2020.1.3,Win32,60,IwAR3TdExosWQJQBjV0ss3H59nqxlsONppn7wAdTuJqZAFVcI318DU3gLgoWg,-0.114814803,-0.262037048,1,0,0,2.10383,scale,0,3,3,3,1,0.349027907,0.282842712,0.174513954,0.141421356,stimuli/training/50_left.png,stimuli/training/50_right.png,,,,,,,,,,,,,
,,,,,,$5ec2ccb9bb23250d7ee425db,2020-07-20_14h38.56.898,fisher_task,2020.1.3,Win32,60,IwAR3TdExosWQJQBjV0ss3H59nqxlsONppn7wAdTuJqZAFVcI318DU3gLgoWg,0.0851852,-0.262962974,1,0,0,2.76921,scale,0,4,4,4,1,0.275930788,0.223606798,0.275930788,0.223606798,stimuli/training/50_left.png,stimuli/training/50_right.png,,,,,,,,,,,,,
,,,,,,$5ec2ccb9bb23250d7ee425db,2020-07-20_14h38.56.898,fisher_task,2020.1.3,Win32,60,IwAR3TdExosWQJQBjV0ss3H59nqxlsONppn7wAdTuJqZAFVcI318DU3gLgoWg,0.17870372,-0.425000014,1,0,0,1.644325,scale,0,5,5,5,1,0.174513954,0.141421356,0.349027907,0.282842712,stimuli/training/20_left.png,stimuli/training/20_right.png,,,,,,,,,,,,,
,,,,,,$5ec2ccb9bb23250d7ee425db,2020-07-20_14h38.56.898,fisher_task,2020.1.3,Win32,60,IwAR3TdExosWQJQBjV0ss3H59nqxlsONppn7wAdTuJqZAFVcI318DU3gLgoWg,-0.174074007,-0.422222236,1,0,0,1.352805,scale,0,6,6,6,1,0.349027907,0.282842712,0.174513954,0.141421356,stimuli/training/80_left.png,stimuli/training/80_right.png,,,,,,,,,,,,,
,,,,,,$5ec2ccb9bb23250d7ee425db,2020-07-20_14h38.56.898,fisher_task,2020.1.3,Win32,60,IwAR3TdExosWQJQBjV0ss3H59nqxlsONppn7wAdTuJqZAFVcI318DU3gLgoWg,0.159259275,-0.41666668,1,0,0,1.311815,scale,0,7,7,7,1,0.1234,0.1,0.3702,0.3,stimuli/training/30_left.png,stimuli/training/30_right.png,,,,,,,,,,,,,
,,,,,,$5ec2ccb9bb23250d7ee425db,2020-07-20_14h38.56.898,fisher_task,2020.1.3,Win32,60,IwAR3TdExosWQJQBjV0ss3H59nqxlsONppn7wAdTuJqZAFVcI318DU3gLgoWg,-0.185185175,-0.439814829,1,0,0,1.54105,scale,0,8,8,8,1,0.3702,0.3,0.1234,0.1,stimuli/training/70_left.png,stimuli/training/70_right.png,,,,,,,,,,,,,
,,,,,,$5ec2ccb9bb23250d7ee425db,2020-07-20_14h38.56.898,fisher_task,2020.1.3,Win32,60,IwAR3TdExosWQJQBjV0ss3H59nqxlsONppn7wAdTuJqZAFVcI318DU3gLgoWg,-0.184259249,-0.426851866,1,0,0,1.99955,scale,0,9,9,9,1,0.326485712,0.264575131,0.21373507,0.173205081,stimuli/training/90_left.png,stimuli/training/90_right.png,,,,,,,,,,,,,
,,,,,,$5ec2ccb9bb23250d7ee425db,2020-07-20_14h38.56.898,fisher_task,2020.1.3,Win32,60,IwAR3TdExosWQJQBjV0ss3H59nqxlsONppn7wAdTuJqZAFVcI318DU3gLgoWg,0.181481497,-0.433333347,1,0,0,1.415235,scale,0,10,10,10,1,0.21373507,0.173205081,0.326485712,0.264575131,stimuli/training/10_left.png,stimuli/training/10_right.png,,,,,,,,,,,,,
,,,,,,$5ec2ccb9bb23250d7ee425db,2020-07-20_14h38.56.898,fisher_task,2020.1.3,Win32,60,IwAR3TdExosWQJQBjV0ss3H59nqxlsONppn7wAdTuJqZAFVcI318DU3gLgoWg,0.11481483,-0.255555567,1,0,0,1.24934,scale,,,,,,0.2468,0.2,0.302267034,0.244948974,stimuli/lakes/405064_left.png,stimuli/lakes/405064_right.png,space,2.59217,,0,0,0,64,1,,,,,
,,,,,,$5ec2ccb9bb23250d7ee425db,2020-07-20_14h38.56.898,fisher_task,2020.1.3,Win32,60,IwAR3TdExosWQJQBjV0ss3H59nqxlsONppn7wAdTuJqZAFVcI318DU3gLgoWg,-0.1111111,-0.27314816,1,0,0,1.728075,scale,,,,,,0.326485712,0.264575131,0.21373507,0.173205081,stimuli/lakes/704056_left.png,stimuli/lakes/704056_right.png,,,,0,1,1,56,1,,,,,
,,,,,,$5ec2ccb9bb23250d7ee425db,2020-07-20_14h38.56.898,fisher_task,2020.1.3,Win32,60,IwAR3TdExosWQJQBjV0ss3H59nqxlsONppn7wAdTuJqZAFVcI318DU3gLgoWg,0.075000014,-0.24259266,1,0,0,1.87388,scale,,,,,,0.326485712,0.264575131,0.21373507,0.173205081,stimuli/lakes/703029_left.png,stimuli/lakes/703029_right.png,,,,0,2,2,29,1,,,,,
,,,,,,$5ec2ccb9bb23250d7ee425db,2020-07-20_14h38.56.898,fisher_task,2020.1.3,Win32,60,IwAR3TdExosWQJQBjV0ss3H59nqxlsONppn7wAdTuJqZAFVcI318DU3gLgoWg,-0.086111043,-0.24722229,1,0,0,2.12403,scale,,,,,,0.174513954,0.141421356,0.349027907,0.282842712,stimuli/lakes/207099_left.png,stimuli/lakes/207099_right.png,,,,0,3,3,99,1,,,,,
,,,,,,$5ec2ccb9bb23250d7ee425db,2020-07-20_14h38.56.898,fisher_task,2020.1.3,Win32,60,IwAR3TdExosWQJQBjV0ss3H59nqxlsONppn7wAdTuJqZAFVcI318DU3gLgoWg,0.154629645,-0.335185254,1,0,0,2.08231,scale,,,,,,0.21373507,0.173205081,0.326485712,0.264575131,stimuli/lakes/305062_left.png,stimuli/lakes/305062_right.png,,,,0,4,4,62,1,,,,,
,,,,,,$5ec2ccb9bb23250d7ee425db,2020-07-20_14h38.56.898,fisher_task,2020.1.3,Win32,60,IwAR3TdExosWQJQBjV0ss3H59nqxlsONppn7wAdTuJqZAFVcI318DU3gLgoWg,0.120370385,-0.272222234,1,0,0,1.560795,scale,,,,,,0.2468,0.2,0.302267034,0.244948974,stimuli/lakes/406083_left.png,stimuli/lakes/406083_right.png,,,,0,5,5,83,1,,,,,
,,,,,,$5ec2ccb9bb23250d7ee425db,2020-07-20_14h38.56.898,fisher_task,2020.1.3,Win32,60,IwAR3TdExosWQJQBjV0ss3H59nqxlsONppn7wAdTuJqZAFVcI318DU3gLgoWg,0.160185201,-0.35740742,1,0,0,1.93648,scale,,,,,,0.21373507,0.173205081,0.326485712,0.264575131,stimuli/lakes/304052_left.png,stimuli/lakes/304052_right.png,,,,0,6,6,52,1,,,,,
,,,,,,$5ec2ccb9bb23250d7ee425db,2020-07-20_14h38.56.898,fisher_task,2020.1.3,Win32,60,IwAR3TdExosWQJQBjV0ss3H59nqxlsONppn7wAdTuJqZAFVcI318DU3gLgoWg,-0.145370359,-0.326851864,1,0,0,1.790755,scale,,,,,,0.349027907,0.282842712,0.174513954,0.141421356,stimuli/lakes/806078_left.png,stimuli/lakes/806078_right.png,,,,0,7,7,78,1,,,,,
,,,,,,$5ec2ccb9bb23250d7ee425db,2020-07-20_14h38.56.898,fisher_task,2020.1.3,Win32,60,IwAR3TdExosWQJQBjV0ss3H59nqxlsONppn7wAdTuJqZAFVcI318DU3gLgoWg,-0.073148136,-0.239814826,1,0,0,2.123655,scale,,,,,,0.2468,0.2,0.302267034,0.244948974,stimuli/lakes/407092_left.png,stimuli/lakes/407092_right.png,,,,0,8,8,92,1,,,,,
,,,,,,$5ec2ccb9bb23250d7ee425db,2020-07-20_14h38.56.898,fisher_task,2020.1.3,Win32,60,IwAR3TdExosWQJQBjV0ss3H59nqxlsONppn7wAdTuJqZAFVcI318DU3gLgoWg,0.183333349,-0.430555569,1,0,0,1.58149,scale,,,,,,0.174513954,0.141421356,0.349027907,0.282842712,stimuli/lakes/202011_left.png,stimuli/lakes/202011_right.png,,,,0,9,9,11,1,,,,,
,,,,,,$5ec2ccb9bb23250d7ee425db,2020-07-20_14h38.56.898,fisher_task,2020.1.3,Win32,60,IwAR3TdExosWQJQBjV0ss3H59nqxlsONppn7wAdTuJqZAFVcI318DU3gLgoWg,-0.173148137,-0.431481495,1,0,0,1.211445,scale,,,,,,0.326485712,0.264575131,0.21373507,0.173205081,stimuli/lakes/7080116_left.png,stimuli/lakes/7080116_right.png,,,,0,10,10,116,1,,,,,
,,,,,,$5ec2ccb9bb23250d7ee425db,2020-07-20_14h38.56.898,fisher_task,2020.1.3,Win32,60,IwAR3TdExosWQJQBjV0ss3H59nqxlsONppn7wAdTuJqZAFVcI318DU3gLgoWg,0.123148163,-0.290740753,1,0,0,2.393835,scale,,,,,,0.302267034,0.244948974,0.2468,0.2,stimuli/lakes/60105_left.png,stimuli/lakes/60105_right.png,,,,0,11,11,5,1,,,,,
,,,,,,$5ec2ccb9bb23250d7ee425db,2020-07-20_14h38.56.898,fisher_task,2020.1.3,Win32,60,IwAR3TdExosWQJQBjV0ss3H59nqxlsONppn7wAdTuJqZAFVcI318DU3gLgoWg,-0.135185174,-0.310185197,1,0,0,2.457215,scale,,,,,,0.349027907,0.282842712,0.174513954,0.141421356,stimuli/lakes/8070105_left.png,stimuli/lakes/8070105_right.png,,,,0,12,12,105,1,,,,,
,,,,,,$5ec2ccb9bb23250d7ee425db,2020-07-20_14h38.56.898,fisher_task,2020.1.3,Win32,60,IwAR3TdExosWQJQBjV0ss3H59nqxlsONppn7wAdTuJqZAFVcI318DU3gLgoWg,-0.173148137,-0.383333346,1,0,0,1.520145,scale,,,,,,0.349027907,0.282842712,0.174513954,0.141421356,stimuli/lakes/806087_left.png,stimuli/lakes/806087_right.png,,,,0,13,13,87,1,,,,,
,,,,,,$5ec2ccb9bb23250d7ee425db,2020-07-20_14h38.56.898,fisher_task,2020.1.3,Win32,60,IwAR3TdExosWQJQBjV0ss3H59nqxlsONppn7wAdTuJqZAFVcI318DU3gLgoWg,-0.150925858,-0.336111124,1,0,0,1.35369,scale,,,,,,0.275930788,0.223606798,0.275930788,0.223606798,stimuli/lakes/506084_left.png,stimuli/lakes/506084_right.png,,,,0,14,14,84,1,,,,,
,,,,,,$5ec2ccb9bb23250d7ee425db,2020-07-20_14h38.56.898,fisher_task,2020.1.3,Win32,60,IwAR3TdExosWQJQBjV0ss3H59nqxlsONppn7wAdTuJqZAFVcI318DU3gLgoWg,0.05555557,-0.237037048,1,0,0,1.749825,scale,,,,,,0.326485712,0.264575131,0.21373507,0.173205081,stimuli/lakes/703038_left.png,stimuli/lakes/703038_right.png,,,,0,15,15,38,1,,,,,
,,,,,,$5ec2ccb9bb23250d7ee425db,2020-07-20_14h38.56.898,fisher_task,2020.1.3,Win32,60,IwAR3TdExosWQJQBjV0ss3H59nqxlsONppn7wAdTuJqZAFVcI318DU3gLgoWg,0.075000014,-0.24259266,1,0,0,1.68711,scale,,,,,,0.1234,0.1,0.3702,0.3,stimuli/lakes/106071_left.png,stimuli/lakes/106071_right.png,,,,0,16,16,71,1,,,,,
,,,,,,$5ec2ccb9bb23250d7ee425db,2020-07-20_14h38.56.898,fisher_task,2020.1.3,Win32,60,IwAR3TdExosWQJQBjV0ss3H59nqxlsONppn7wAdTuJqZAFVcI318DU3gLgoWg,-0.180555545,-0.432407478,1,0,0,1.269855,scale,,,,,,0.3702,0.3,0.1234,0.1,stimuli/lakes/907097_left.png,stimuli/lakes/907097_right.png,,,,0,17,17,97,1,,,,,
,,,,,,$5ec2ccb9bb23250d7ee425db,2020-07-20_14h38.56.898,fisher_task,2020.1.3,Win32,60,IwAR3TdExosWQJQBjV0ss3H59nqxlsONppn7wAdTuJqZAFVcI318DU3gLgoWg,-0.133333322,-0.294444456,1,0,0,1.915425,scale,,,,,,0.2468,0.2,0.302267034,0.244948974,stimuli/lakes/4090123_left.png,stimuli/lakes/4090123_right.png,,,,0,18,18,123,1,,,,,
,,,,,,$5ec2ccb9bb23250d7ee425db,2020-07-20_14h38.56.898,fisher_task,2020.1.3,Win32,60,IwAR3TdExosWQJQBjV0ss3H59nqxlsONppn7wAdTuJqZAFVcI318DU3gLgoWg,-0.001851839,-0.23796303,1,0,0,3.64548,scale,,,,,,0.326485712,0.264575131,0.21373507,0.173205081,stimuli/lakes/705068_left.png,stimuli/lakes/705068_right.png,,,,0,19,19,68,1,,,,,
,,,,,,$5ec2ccb9bb23250d7ee425db,2020-07-20_14h38.56.898,fisher_task,2020.1.3,Win32,60,IwAR3TdExosWQJQBjV0ss3H59nqxlsONppn7wAdTuJqZAFVcI318DU3gLgoWg,0.158333349,-0.419444458,1,0,0,1.72844,scale,,,,,,0.1234,0.1,0.3702,0.3,stimuli/lakes/103032_left.png,stimuli/lakes/103032_right.png,,,,0,20,20,32,1,,,,,
,,,,,,$5ec2ccb9bb23250d7ee425db,2020-07-20_14h38.56.898,fisher_task,2020.1.3,Win32,60,IwAR3TdExosWQJQBjV0ss3H59nqxlsONppn7wAdTuJqZAFVcI318DU3gLgoWg,0.102777793,-0.276851863,1,0,0,2.290955,scale,,,,,,0.3702,0.3,0.1234,0.1,stimuli/lakes/902022_left.png,stimuli/lakes/902022_right.png,,,,0,21,21,22,1,,,,,
,,,,,,$5ec2ccb9bb23250d7ee425db,2020-07-20_14h38.56.898,fisher_task,2020.1.3,Win32,60,IwAR3TdExosWQJQBjV0ss3H59nqxlsONppn7wAdTuJqZAFVcI318DU3gLgoWg,-0.153703693,-0.381481551,1,0,0,1.24751,scale,,,,,,0.302267034,0.244948974,0.2468,0.2,stimuli/lakes/607094_left.png,stimuli/lakes/607094_right.png,,,space,0,22,22,94,1,2.444765,,,,
,,,,,,$5ec2ccb9bb23250d7ee425db,2020-07-20_14h38.56.898,fisher_task,2020.1.3,Win32,60,IwAR3TdExosWQJQBjV0ss3H59nqxlsONppn7wAdTuJqZAFVcI318DU3gLgoWg,0.163888905,-0.420370384,1,0,0,1.165225,scale,,,,,,0.2468,0.2,0.302267034,0.244948974,stimuli/lakes/402015_left.png,stimuli/lakes/402015_right.png,,,,0,23,23,15,1,,,,,
,,,,,,$5ec2ccb9bb23250d7ee425db,2020-07-20_14h38.56.898,fisher_task,2020.1.3,Win32,60,IwAR3TdExosWQJQBjV0ss3H59nqxlsONppn7wAdTuJqZAFVcI318DU3gLgoWg,0.172222238,-0.436111125,1,0,0,0.89537,scale,,,,,,0.2468,0.2,0.302267034,0.244948974,stimuli/lakes/40102_left.png,stimuli/lakes/40102_right.png,,,,0,24,24,2,1,,,,,
,,,,,,$5ec2ccb9bb23250d7ee425db,2020-07-20_14h38.56.898,fisher_task,2020.1.3,Win32,60,IwAR3TdExosWQJQBjV0ss3H59nqxlsONppn7wAdTuJqZAFVcI318DU3gLgoWg,-0.153703693,-0.328703716,1,0,0,1.727345,scale,,,,,,0.1234,0.1,0.3702,0.3,stimuli/lakes/1090119_left.png,stimuli/lakes/1090119_right.png,,,,0,25,25,119,1,,,,,
,,,,,,$5ec2ccb9bb23250d7ee425db,2020-07-20_14h38.56.898,fisher_task,2020.1.3,Win32,60,IwAR3TdExosWQJQBjV0ss3H59nqxlsONppn7wAdTuJqZAFVcI318DU3gLgoWg,0.129629645,-0.291666678,1,0,0,1.95729,scale,,,,,,0.326485712,0.264575131,0.21373507,0.173205081,stimuli/lakes/70107_left.png,stimuli/lakes/70107_right.png,,,,0,26,26,7,1,,,,,
,,,,,,$5ec2ccb9bb23250d7ee425db,2020-07-20_14h38.56.898,fisher_task,2020.1.3,Win32,60,IwAR3TdExosWQJQBjV0ss3H59nqxlsONppn7wAdTuJqZAFVcI318DU3gLgoWg,-0.146296229,-0.324074086,1,0,0,1.936275,scale,,,,,,0.174513954,0.141421356,0.349027907,0.282842712,stimuli/lakes/2090120_left.png,stimuli/lakes/2090120_right.png,,,,0,27,27,120,1,,,,,
,,,,,,$5ec2ccb9bb23250d7ee425db,2020-07-20_14h38.56.898,fisher_task,2020.1.3,Win32,60,IwAR3TdExosWQJQBjV0ss3H59nqxlsONppn7wAdTuJqZAFVcI318DU3gLgoWg,0.076851866,-0.25185192,1,0,0,1.561785,scale,,,,,,0.326485712,0.264575131,0.21373507,0.173205081,stimuli/lakes/704047_left.png,stimuli/lakes/704047_right.png,,,,0,28,28,47,1,,,,,
,,,,,,$5ec2ccb9bb23250d7ee425db,2020-07-20_14h38.56.898,fisher_task,2020.1.3,Win32,60,IwAR3TdExosWQJQBjV0ss3H59nqxlsONppn7wAdTuJqZAFVcI318DU3gLgoWg,-0.040740728,-0.241666678,1,0,0,3.64544,scale,,,,,,0.349027907,0.282842712,0.174513954,0.141421356,stimuli/lakes/804057_left.png,stimuli/lakes/804057_right.png,,,,0,29,29,57,1,,,,,
,,,,,,$5ec2ccb9bb23250d7ee425db,2020-07-20_14h38.56.898,fisher_task,2020.1.3,Win32,60,IwAR3TdExosWQJQBjV0ss3H59nqxlsONppn7wAdTuJqZAFVcI318DU3gLgoWg,0.07592594,-0.260185197,1,0,0,1.603105,scale,,,,,,0.349027907,0.282842712,0.174513954,0.141421356,stimuli/lakes/803030_left.png,stimuli/lakes/803030_right.png,,,,0,30,30,30,1,,,,,
,,,,,,$5ec2ccb9bb23250d7ee425db,2020-07-20_14h38.56.898,fisher_task,2020.1.3,Win32,60,IwAR3TdExosWQJQBjV0ss3H59nqxlsONppn7wAdTuJqZAFVcI318DU3gLgoWg,-0.166666656,-0.38703705,1,0,0,1.58211,scale,,,,,,0.349027907,0.282842712,0.174513954,0.141421356,stimuli/lakes/807096_left.png,stimuli/lakes/807096_right.png,,,,0,31,31,96,1,,,,,
,,,,,,$5ec2ccb9bb23250d7ee425db,2020-07-20_14h38.56.898,fisher_task,2020.1.3,Win32,60,IwAR3TdExosWQJQBjV0ss3H59nqxlsONppn7wAdTuJqZAFVcI318DU3gLgoWg,-0.068518506,-0.261111179,1,0,0,1.74922,scale,,,,,,0.3702,0.3,0.1234,0.1,stimuli/lakes/905070_left.png,stimuli/lakes/905070_right.png,,,,0,32,32,70,1,,,,,
,,,,,,$5ec2ccb9bb23250d7ee425db,2020-07-20_14h38.56.898,fisher_task,2020.1.3,Win32,60,IwAR3TdExosWQJQBjV0ss3H59nqxlsONppn7wAdTuJqZAFVcI318DU3gLgoWg,-0.156481471,-0.430555569,1,0,0,1.478325,scale,,,,,,0.326485712,0.264575131,0.21373507,0.173205081,stimuli/lakes/7090128_left.png,stimuli/lakes/7090128_right.png,,,,0,33,33,128,1,,,,,
,,,,,,$5ec2ccb9bb23250d7ee425db,2020-07-20_14h38.56.898,fisher_task,2020.1.3,Win32,60,IwAR3TdExosWQJQBjV0ss3H59nqxlsONppn7wAdTuJqZAFVcI318DU3gLgoWg,-0.171296286,-0.412962977,1,0,0,1.290155,scale,,,,,,0.3702,0.3,0.1234,0.1,stimuli/lakes/906088_left.png,stimuli/lakes/906088_right.png,,,,0,34,34,88,1,,,,,
,,,,,,$5ec2ccb9bb23250d7ee425db,2020-07-20_14h38.56.898,fisher_task,2020.1.3,Win32,60,IwAR3TdExosWQJQBjV0ss3H59nqxlsONppn7wAdTuJqZAFVcI318DU3gLgoWg,0.047222236,-0.253703715,1,0,0,2.498755,scale,,,,,,0.275930788,0.223606798,0.275930788,0.223606798,stimuli/lakes/5090125_left.png,stimuli/lakes/5090125_right.png,,,,0,35,35,125,1,,,,,
,,,,,,$5ec2ccb9bb23250d7ee425db,2020-07-20_14h38.56.898,fisher_task,2020.1.3,Win32,60,IwAR3TdExosWQJQBjV0ss3H59nqxlsONppn7wAdTuJqZAFVcI318DU3gLgoWg,-0.130555544,-0.348148161,1,0,0,1.95771,scale,,,,,,0.302267034,0.244948974,0.2468,0.2,stimuli/lakes/6090126_left.png,stimuli/lakes/6090126_right.png,,,,0,36,36,126,1,,,,,
,,,,,,$5ec2ccb9bb23250d7ee425db,2020-07-20_14h38.56.898,fisher_task,2020.1.3,Win32,60,IwAR3TdExosWQJQBjV0ss3H59nqxlsONppn7wAdTuJqZAFVcI318DU3gLgoWg,0.152777793,-0.367592662,1,0,0,1.270345,scale,,,,,,0.275930788,0.223606798,0.275930788,0.223606798,stimuli/lakes/503036_left.png,stimuli/lakes/503036_right.png,,,,0,37,37,36,1,,,,,
,,,,,,$5ec2ccb9bb23250d7ee425db,2020-07-20_14h38.56.898,fisher_task,2020.1.3,Win32,60,IwAR3TdExosWQJQBjV0ss3H59nqxlsONppn7wAdTuJqZAFVcI318DU3gLgoWg,0.096296311,-0.277777789,1,0,0,1.416345,scale,,,,,,0.326485712,0.264575131,0.21373507,0.173205081,stimuli/lakes/702019_left.png,stimuli/lakes/702019_right.png,,,,0,38,38,19,1,,,,,
,,,,,,$5ec2ccb9bb23250d7ee425db,2020-07-20_14h38.56.898,fisher_task,2020.1.3,Win32,60,IwAR3TdExosWQJQBjV0ss3H59nqxlsONppn7wAdTuJqZAFVcI318DU3gLgoWg,0.125000015,-0.331481494,1,0,0,1.083115,scale,,,,,,0.174513954,0.141421356,0.349027907,0.282842712,stimuli/lakes/203024_left.png,stimuli/lakes/203024_right.png,,,,0,39,39,24,1,,,,,
,,,,,,$5ec2ccb9bb23250d7ee425db,2020-07-20_14h38.56.898,fisher_task,2020.1.3,Win32,60,IwAR3TdExosWQJQBjV0ss3H59nqxlsONppn7wAdTuJqZAFVcI318DU3gLgoWg,-0.053703635,-0.246296307,1,0,0,1.93598,scale,,,,,,0.349027907,0.282842712,0.174513954,0.141421356,stimuli/lakes/804048_left.png,stimuli/lakes/804048_right.png,,,,0,40,40,48,1,,,,,
,,,,,,$5ec2ccb9bb23250d7ee425db,2020-07-20_14h38.56.898,fisher_task,2020.1.3,Win32,60,IwAR3TdExosWQJQBjV0ss3H59nqxlsONppn7wAdTuJqZAFVcI318DU3gLgoWg,-0.151851841,-0.39537044,1,0,0,1.895375,scale,,,,,,0.302267034,0.244948974,0.2468,0.2,stimuli/lakes/6090127_left.png,stimuli/lakes/6090127_right.png,,,,0,41,41,127,1,,,,,
,,,,,,$5ec2ccb9bb23250d7ee425db,2020-07-20_14h38.56.898,fisher_task,2020.1.3,Win32,60,IwAR3TdExosWQJQBjV0ss3H59nqxlsONppn7wAdTuJqZAFVcI318DU3gLgoWg,-0.104629561,-0.298148217,1,0,0,1.936705,scale,,,,,,0.302267034,0.244948974,0.2468,0.2,stimuli/lakes/606076_left.png,stimuli/lakes/606076_right.png,,,,0,42,42,76,1,,,,,
,,,,,,$5ec2ccb9bb23250d7ee425db,2020-07-20_14h38.56.898,fisher_task,2020.1.3,Win32,60,IwAR3TdExosWQJQBjV0ss3H59nqxlsONppn7wAdTuJqZAFVcI318DU3gLgoWg,0.0851852,-0.283333345,1,0,0,2.06159,scale,,,,,,0.1234,0.1,0.3702,0.3,stimuli/lakes/104041_left.png,stimuli/lakes/104041_right.png,,,,0,43,43,41,1,,,,,
,,,,,,$5ec2ccb9bb23250d7ee425db,2020-07-20_14h38.56.898,fisher_task,2020.1.3,Win32,60,IwAR3TdExosWQJQBjV0ss3H59nqxlsONppn7wAdTuJqZAFVcI318DU3gLgoWg,0.05555557,-0.274074086,1,0,0,2.290775,scale,,,,,,0.2468,0.2,0.302267034,0.244948974,stimuli/lakes/405063_left.png,stimuli/lakes/405063_right.png,,,space,0,44,44,63,1,0.96976,,,,
,,,,,,$5ec2ccb9bb23250d7ee425db,2020-07-20_14h38.56.898,fisher_task,2020.1.3,Win32,60,IwAR3TdExosWQJQBjV0ss3H59nqxlsONppn7wAdTuJqZAFVcI318DU3gLgoWg,-0.04722221,-0.264814826,1,0,0,2.457725,scale,,,,,,0.21373507,0.173205081,0.326485712,0.264575131,stimuli/lakes/306082_left.png,stimuli/lakes/306082_right.png,,,,0,45,45,82,1,,,,,
,,,,,,$5ec2ccb9bb23250d7ee425db,2020-07-20_14h38.56.898,fisher_task,2020.1.3,Win32,60,IwAR3TdExosWQJQBjV0ss3H59nqxlsONppn7wAdTuJqZAFVcI318DU3gLgoWg,0.115740756,-0.301851864,1,0,0,1.5197,scale,,,,,,0.2468,0.2,0.302267034,0.244948974,stimuli/lakes/404053_left.png,stimuli/lakes/404053_right.png,,,,0,46,46,53,1,,,,,
,,,,,,$5ec2ccb9bb23250d7ee425db,2020-07-20_14h38.56.898,fisher_task,2020.1.3,Win32,60,IwAR3TdExosWQJQBjV0ss3H59nqxlsONppn7wAdTuJqZAFVcI318DU3gLgoWg,0.0851852,-0.278703715,1,0,0,1.478435,scale,,,,,,0.174513954,0.141421356,0.349027907,0.282842712,stimuli/lakes/204051_left.png,stimuli/lakes/204051_right.png,,,,0,47,47,51,1,,,,,
,,,,,,$5ec2ccb9bb23250d7ee425db,2020-07-20_14h38.56.898,fisher_task,2020.1.3,Win32,60,IwAR3TdExosWQJQBjV0ss3H59nqxlsONppn7wAdTuJqZAFVcI318DU3gLgoWg,-0.062962894,-0.260185197,1,0,0,1.87462,scale,,,,,,0.302267034,0.244948974,0.2468,0.2,stimuli/lakes/604046_left.png,stimuli/lakes/604046_right.png,,,,0,48,48,46,1,,,,,
,,,,,,$5ec2ccb9bb23250d7ee425db,2020-07-20_14h38.56.898,fisher_task,2020.1.3,Win32,60,IwAR3TdExosWQJQBjV0ss3H59nqxlsONppn7wAdTuJqZAFVcI318DU3gLgoWg,0.089814829,-0.297222234,1,0,0,1.45806,scale,,,,,,0.174513954,0.141421356,0.349027907,0.282842712,stimuli/lakes/206081_left.png,stimuli/lakes/206081_right.png,,,,0,49,49,81,1,,,,,
,,,,,,$5ec2ccb9bb23250d7ee425db,2020-07-20_14h38.56.898,fisher_task,2020.1.3,Win32,60,IwAR3TdExosWQJQBjV0ss3H59nqxlsONppn7wAdTuJqZAFVcI318DU3gLgoWg,0.162962979,-0.430555569,1,0,0,1.47842,scale,,,,,,0.21373507,0.173205081,0.326485712,0.264575131,stimuli/lakes/30101_left.png,stimuli/lakes/30101_right.png,,,,0,50,50,1,1,,,,,
,,,,,,$5ec2ccb9bb23250d7ee425db,2020-07-20_14h38.56.898,fisher_task,2020.1.3,Win32,60,IwAR3TdExosWQJQBjV0ss3H59nqxlsONppn7wAdTuJqZAFVcI318DU3gLgoWg,0.120370385,-0.320370383,1,0,0,1.35294,scale,,,,,,0.1234,0.1,0.3702,0.3,stimuli/lakes/105059_left.png,stimuli/lakes/105059_right.png,,,,0,51,51,59,1,,,,,
,,,,,,$5ec2ccb9bb23250d7ee425db,2020-07-20_14h38.56.898,fisher_task,2020.1.3,Win32,60,IwAR3TdExosWQJQBjV0ss3H59nqxlsONppn7wAdTuJqZAFVcI318DU3gLgoWg,0.102777793,-0.295370382,1,0,0,2.060915,scale,,,,,,0.302267034,0.244948974,0.2468,0.2,stimuli/lakes/603028_left.png,stimuli/lakes/603028_right.png,,,,0,52,52,28,1,,,,,
,,,,,,$5ec2ccb9bb23250d7ee425db,2020-07-20_14h38.56.898,fisher_task,2020.1.3,Win32,60,IwAR3TdExosWQJQBjV0ss3H59nqxlsONppn7wAdTuJqZAFVcI318DU3gLgoWg,0.084259274,-0.289814827,1,0,0,1.60368,scale,,,,,,0.275930788,0.223606798,0.275930788,0.223606798,stimuli/lakes/504054_left.png,stimuli/lakes/504054_right.png,,,,0,53,53,54,1,,,,,
,,,,,,$5ec2ccb9bb23250d7ee425db,2020-07-20_14h38.56.898,fisher_task,2020.1.3,Win32,60,IwAR3TdExosWQJQBjV0ss3H59nqxlsONppn7wAdTuJqZAFVcI318DU3gLgoWg,0.124074089,-0.33703705,1,0,0,1.22897,scale,,,,,,0.302267034,0.244948974,0.2468,0.2,stimuli/lakes/60106_left.png,stimuli/lakes/60106_right.png,,,,0,54,54,6,1,,,,,
,,,,,,$5ec2ccb9bb23250d7ee425db,2020-07-20_14h38.56.898,fisher_task,2020.1.3,Win32,60,IwAR3TdExosWQJQBjV0ss3H59nqxlsONppn7wAdTuJqZAFVcI318DU3gLgoWg,-0.157407397,-0.399074087,1,0,0,1.74878,scale,,,,,,0.3702,0.3,0.1234,0.1,stimuli/lakes/9070106_left.png,stimuli/lakes/9070106_right.png,,,,0,55,55,106,1,,,,,
,,,,,,$5ec2ccb9bb23250d7ee425db,2020-07-20_14h38.56.898,fisher_task,2020.1.3,Win32,60,IwAR3TdExosWQJQBjV0ss3H59nqxlsONppn7wAdTuJqZAFVcI318DU3gLgoWg,-0.053703635,-0.276851863,1,0,0,1.729035,scale,,,,,,0.302267034,0.244948974,0.2468,0.2,stimuli/lakes/604055_left.png,stimuli/lakes/604055_right.png,,,,0,56,56,55,1,,,,,
,,,,,,$5ec2ccb9bb23250d7ee425db,2020-07-20_14h38.56.898,fisher_task,2020.1.3,Win32,60,IwAR3TdExosWQJQBjV0ss3H59nqxlsONppn7wAdTuJqZAFVcI318DU3gLgoWg,0.142592608,-0.335185254,1,0,0,1.124765,scale,,,,,,0.21373507,0.173205081,0.326485712,0.264575131,stimuli/lakes/303034_left.png,stimuli/lakes/303034_right.png,,,,0,57,57,34,1,,,,,
,,,,,,$5ec2ccb9bb23250d7ee425db,2020-07-20_14h38.56.898,fisher_task,2020.1.3,Win32,60,IwAR3TdExosWQJQBjV0ss3H59nqxlsONppn7wAdTuJqZAFVcI318DU3gLgoWg,-0.075925914,-0.287037049,1,0,0,1.311775,scale,,,,,,0.302267034,0.244948974,0.2468,0.2,stimuli/lakes/605066_left.png,stimuli/lakes/605066_right.png,,,,0,58,58,66,1,,,,,
,,,,,,$5ec2ccb9bb23250d7ee425db,2020-07-20_14h38.56.898,fisher_task,2020.1.3,Win32,60,IwAR3TdExosWQJQBjV0ss3H59nqxlsONppn7wAdTuJqZAFVcI318DU3gLgoWg,0.154629645,-0.342592605,1,0,0,1.498565,scale,,,,,,0.2468,0.2,0.302267034,0.244948974,stimuli/lakes/402014_left.png,stimuli/lakes/402014_right.png,,,,0,59,59,14,1,,,,,
,,,,,,$5ec2ccb9bb23250d7ee425db,2020-07-20_14h38.56.898,fisher_task,2020.1.3,Win32,60,IwAR3TdExosWQJQBjV0ss3H59nqxlsONppn7wAdTuJqZAFVcI318DU3gLgoWg,-0.075925914,-0.281481493,1,0,0,2.166195,scale,,,,,,0.174513954,0.141421356,0.349027907,0.282842712,stimuli/lakes/2080108_left.png,stimuli/lakes/2080108_right.png,,,,0,60,60,108,1,,,,,
,,,,,,$5ec2ccb9bb23250d7ee425db,2020-07-20_14h38.56.898,fisher_task,2020.1.3,Win32,60,IwAR3TdExosWQJQBjV0ss3H59nqxlsONppn7wAdTuJqZAFVcI318DU3gLgoWg,0.070370385,-0.286111123,1,0,0,1.332905,scale,,,,,,0.326485712,0.264575131,0.21373507,0.173205081,stimuli/lakes/702020_left.png,stimuli/lakes/702020_right.png,,,,0,61,61,20,1,,,,,
,,,,,,$5ec2ccb9bb23250d7ee425db,2020-07-20_14h38.56.898,fisher_task,2020.1.3,Win32,60,IwAR3TdExosWQJQBjV0ss3H59nqxlsONppn7wAdTuJqZAFVcI318DU3gLgoWg,-0.13240734,-0.329629642,1,0,0,1.6035,scale,,,,,,0.302267034,0.244948974,0.2468,0.2,stimuli/lakes/606085_left.png,stimuli/lakes/606085_right.png,,,,0,62,62,85,1,,,,,
,,,,,,$5ec2ccb9bb23250d7ee425db,2020-07-20_14h38.56.898,fisher_task,2020.1.3,Win32,60,IwAR3TdExosWQJQBjV0ss3H59nqxlsONppn7wAdTuJqZAFVcI318DU3gLgoWg,0.088888903,-0.290740753,1,0,0,1.207305,scale,,,,,,0.326485712,0.264575131,0.21373507,0.173205081,stimuli/lakes/70108_left.png,stimuli/lakes/70108_right.png,,,,0,63,63,8,1,,,,,
,,,,,,$5ec2ccb9bb23250d7ee425db,2020-07-20_14h38.56.898,fisher_task,2020.1.3,Win32,60,IwAR3TdExosWQJQBjV0ss3H59nqxlsONppn7wAdTuJqZAFVcI318DU3gLgoWg,0.133333349,-0.33240742,1,0,0,1.666235,scale,,,,,,0.2468,0.2,0.302267034,0.244948974,stimuli/lakes/404044_left.png,stimuli/lakes/404044_right.png,,,,0,64,64,44,1,,,,,
,,,,,,$5ec2ccb9bb23250d7ee425db,2020-07-20_14h38.56.898,fisher_task,2020.1.3,Win32,60,IwAR3TdExosWQJQBjV0ss3H59nqxlsONppn7wAdTuJqZAFVcI318DU3gLgoWg,0.147222238,-0.39166668,1,0,0,2.54119,scale,,,,,,0.349027907,0.282842712,0.174513954,0.141421356,stimuli/lakes/80109_left.png,stimuli/lakes/80109_right.png,,,,0,65,65,9,1,,,,,
,,,,,,$5ec2ccb9bb23250d7ee425db,2020-07-20_14h38.56.898,fisher_task,2020.1.3,Win32,60,IwAR3TdExosWQJQBjV0ss3H59nqxlsONppn7wAdTuJqZAFVcI318DU3gLgoWg,0.108333348,-0.312037106,1,0,0,1.72184,scale,,,,,,0.2468,0.2,0.302267034,0.244948974,stimuli/lakes/403026_left.png,stimuli/lakes/403026_right.png,,,space,0,66,66,26,1,0.96739,,,,
,,,,,,$5ec2ccb9bb23250d7ee425db,2020-07-20_14h38.56.898,fisher_task,2020.1.3,Win32,60,IwAR3TdExosWQJQBjV0ss3H59nqxlsONppn7wAdTuJqZAFVcI318DU3gLgoWg,0.121296311,-0.333333346,1,0,0,2.020185,scale,,,,,,0.1234,0.1,0.3702,0.3,stimuli/lakes/103023_left.png,stimuli/lakes/103023_right.png,,,,0,67,67,23,1,,,,,
,,,,,,$5ec2ccb9bb23250d7ee425db,2020-07-20_14h38.56.898,fisher_task,2020.1.3,Win32,60,IwAR3TdExosWQJQBjV0ss3H59nqxlsONppn7wAdTuJqZAFVcI318DU3gLgoWg,-0.089814803,-0.27314816,1,0,0,1.47815,scale,,,,,,0.326485712,0.264575131,0.21373507,0.173205081,stimuli/lakes/705067_left.png,stimuli/lakes/705067_right.png,,,,0,68,68,67,1,,,,,
,,,,,,$5ec2ccb9bb23250d7ee425db,2020-07-20_14h38.56.898,fisher_task,2020.1.3,Win32,60,IwAR3TdExosWQJQBjV0ss3H59nqxlsONppn7wAdTuJqZAFVcI318DU3gLgoWg,-0.121296285,-0.325000012,1,0,0,1.56206,scale,,,,,,0.2468,0.2,0.302267034,0.244948974,stimuli/lakes/4090124_left.png,stimuli/lakes/4090124_right.png,,,,0,69,69,124,1,,,,,
,,,,,,$5ec2ccb9bb23250d7ee425db,2020-07-20_14h38.56.898,fisher_task,2020.1.3,Win32,60,IwAR3TdExosWQJQBjV0ss3H59nqxlsONppn7wAdTuJqZAFVcI318DU3gLgoWg,0.129629645,-0.314814827,1,0,0,0.936185,scale,,,,,,0.174513954,0.141421356,0.349027907,0.282842712,stimuli/lakes/203033_left.png,stimuli/lakes/203033_right.png,,,,0,70,70,33,1,,,,,
,,,,,,$5ec2ccb9bb23250d7ee425db,2020-07-20_14h38.56.898,fisher_task,2020.1.3,Win32,60,IwAR3TdExosWQJQBjV0ss3H59nqxlsONppn7wAdTuJqZAFVcI318DU3gLgoWg,-0.173148137,-0.401851865,1,0,0,1.26977,scale,,,,,,0.302267034,0.244948974,0.2468,0.2,stimuli/lakes/6080114_left.png,stimuli/lakes/6080114_right.png,,,,0,71,71,114,1,,,,,
,,,,,,$5ec2ccb9bb23250d7ee425db,2020-07-20_14h38.56.898,fisher_task,2020.1.3,Win32,60,IwAR3TdExosWQJQBjV0ss3H59nqxlsONppn7wAdTuJqZAFVcI318DU3gLgoWg,-0.080555544,-0.280555567,1,0,0,1.41519,scale,,,,,,0.2468,0.2,0.302267034,0.244948974,stimuli/lakes/4080111_left.png,stimuli/lakes/4080111_right.png,,,,0,72,72,111,1,,,,,
,,,,,,$5ec2ccb9bb23250d7ee425db,2020-07-20_14h38.56.898,fisher_task,2020.1.3,Win32,60,IwAR3TdExosWQJQBjV0ss3H59nqxlsONppn7wAdTuJqZAFVcI318DU3gLgoWg,-0.149999989,-0.424074088,1,0,0,1.166225,scale,,,,,,0.326485712,0.264575131,0.21373507,0.173205081,stimuli/lakes/7080117_left.png,stimuli/lakes/7080117_right.png,,,,0,73,73,117,1,,,,,
,,,,,,$5ec2ccb9bb23250d7ee425db,2020-07-20_14h38.56.898,fisher_task,2020.1.3,Win32,60,IwAR3TdExosWQJQBjV0ss3H59nqxlsONppn7wAdTuJqZAFVcI318DU3gLgoWg,0.002777791,-0.265740809,1,0,0,2.51915,scale,,,,,,0.302267034,0.244948974,0.2468,0.2,stimuli/lakes/605065_left.png,stimuli/lakes/605065_right.png,,,,0,74,74,65,1,,,,,
,,,,,,$5ec2ccb9bb23250d7ee425db,2020-07-20_14h38.56.898,fisher_task,2020.1.3,Win32,60,IwAR3TdExosWQJQBjV0ss3H59nqxlsONppn7wAdTuJqZAFVcI318DU3gLgoWg,0.097222237,-0.291666678,1,0,0,2.68543,scale,,,,,,0.3702,0.3,0.1234,0.1,stimuli/lakes/901010_left.png,stimuli/lakes/901010_right.png,,,,0,75,75,10,1,,,,,
,,,,,,$5ec2ccb9bb23250d7ee425db,2020-07-20_14h38.56.898,fisher_task,2020.1.3,Win32,60,IwAR3TdExosWQJQBjV0ss3H59nqxlsONppn7wAdTuJqZAFVcI318DU3gLgoWg,-0.143518507,-0.4046297,1,0,0,1.498545,scale,,,,,,0.275930788,0.223606798,0.275930788,0.223606798,stimuli/lakes/507093_left.png,stimuli/lakes/507093_right.png,,,,0,76,76,93,1,,,,,
,,,,,,$5ec2ccb9bb23250d7ee425db,2020-07-20_14h38.56.898,fisher_task,2020.1.3,Win32,60,IwAR3TdExosWQJQBjV0ss3H59nqxlsONppn7wAdTuJqZAFVcI318DU3gLgoWg,-0.150925858,-0.399074087,1,0,0,2.665515,scale,,,,,,0.275930788,0.223606798,0.275930788,0.223606798,stimuli/lakes/506075_left.png,stimuli/lakes/506075_right.png,,,,0,77,77,75,1,,,,,
,,,,,,$5ec2ccb9bb23250d7ee425db,2020-07-20_14h38.56.898,fisher_task,2020.1.3,Win32,60,IwAR3TdExosWQJQBjV0ss3H59nqxlsONppn7wAdTuJqZAFVcI318DU3gLgoWg,-0.094444433,-0.292592604,1,0,0,1.4998,scale,,,,,,0.1234,0.1,0.3702,0.3,stimuli/lakes/1080107_left.png,stimuli/lakes/1080107_right.png,,,,0,78,78,107,1,,,,,
,,,,,,$5ec2ccb9bb23250d7ee425db,2020-07-20_14h38.56.898,fisher_task,2020.1.3,Win32,60,IwAR3TdExosWQJQBjV0ss3H59nqxlsONppn7wAdTuJqZAFVcI318DU3gLgoWg,-0.072222154,-0.279629698,1,0,0,1.81105,scale,,,,,,0.21373507,0.173205081,0.326485712,0.264575131,stimuli/lakes/3090121_left.png,stimuli/lakes/3090121_right.png,,,,0,79,79,121,1,,,,,
,,,,,,$5ec2ccb9bb23250d7ee425db,2020-07-20_14h38.56.898,fisher_task,2020.1.3,Win32,60,IwAR3TdExosWQJQBjV0ss3H59nqxlsONppn7wAdTuJqZAFVcI318DU3gLgoWg,0.068518533,-0.278703715,1,0,0,2.54124,scale,,,,,,0.302267034,0.244948974,0.2468,0.2,stimuli/lakes/603037_left.png,stimuli/lakes/603037_right.png,,,,0,80,80,37,1,,,,,
,,,,,,$5ec2ccb9bb23250d7ee425db,2020-07-20_14h38.56.898,fisher_task,2020.1.3,Win32,60,IwAR3TdExosWQJQBjV0ss3H59nqxlsONppn7wAdTuJqZAFVcI318DU3gLgoWg,1.32455E-08,-0.2638889,1,0,0,2.54116,scale,,,,,,0.21373507,0.173205081,0.326485712,0.264575131,stimuli/lakes/305061_left.png,stimuli/lakes/305061_right.png,,,,0,81,81,61,1,,,,,
,,,,,,$5ec2ccb9bb23250d7ee425db,2020-07-20_14h38.56.898,fisher_task,2020.1.3,Win32,60,IwAR3TdExosWQJQBjV0ss3H59nqxlsONppn7wAdTuJqZAFVcI318DU3gLgoWg,0.156481497,-0.372222292,1,0,0,1.458205,scale,,,,,,0.275930788,0.223606798,0.275930788,0.223606798,stimuli/lakes/503027_left.png,stimuli/lakes/503027_right.png,,,,0,82,82,27,1,,,,,
,,,,,,$5ec2ccb9bb23250d7ee425db,2020-07-20_14h38.56.898,fisher_task,2020.1.3,Win32,60,IwAR3TdExosWQJQBjV0ss3H59nqxlsONppn7wAdTuJqZAFVcI318DU3gLgoWg,0.126851867,-0.314814827,1,0,0,1.311895,scale,,,,,,0.2468,0.2,0.302267034,0.244948974,stimuli/lakes/403035_left.png,stimuli/lakes/403035_right.png,,,,0,83,83,35,1,,,,,
,,,,,,$5ec2ccb9bb23250d7ee425db,2020-07-20_14h38.56.898,fisher_task,2020.1.3,Win32,60,IwAR3TdExosWQJQBjV0ss3H59nqxlsONppn7wAdTuJqZAFVcI318DU3gLgoWg,-0.159259248,-0.402777791,1,0,0,1.25015,scale,,,,,,0.275930788,0.223606798,0.275930788,0.223606798,stimuli/lakes/5070102_left.png,stimuli/lakes/5070102_right.png,,,,0,84,84,102,1,,,,,
,,,,,,$5ec2ccb9bb23250d7ee425db,2020-07-20_14h38.56.898,fisher_task,2020.1.3,Win32,60,IwAR3TdExosWQJQBjV0ss3H59nqxlsONppn7wAdTuJqZAFVcI318DU3gLgoWg,0.133333349,-0.343518531,1,0,0,1.22854,scale,,,,,,0.21373507,0.173205081,0.326485712,0.264575131,stimuli/lakes/303025_left.png,stimuli/lakes/303025_right.png,,,,0,85,85,25,1,,,,,
,,,,,,$5ec2ccb9bb23250d7ee425db,2020-07-20_14h38.56.898,fisher_task,2020.1.3,Win32,60,IwAR3TdExosWQJQBjV0ss3H59nqxlsONppn7wAdTuJqZAFVcI318DU3gLgoWg,0.099074089,-0.293518587,1,0,0,1.291675,scale,,,,,,0.349027907,0.282842712,0.174513954,0.141421356,stimuli/lakes/802021_left.png,stimuli/lakes/802021_right.png,,,,0,86,86,21,1,,,,,
,,,,,,$5ec2ccb9bb23250d7ee425db,2020-07-20_14h38.56.898,fisher_task,2020.1.3,Win32,60,IwAR3TdExosWQJQBjV0ss3H59nqxlsONppn7wAdTuJqZAFVcI318DU3gLgoWg,0.116666682,-0.304629642,1,0,0,2.394655,scale,,,,,,0.302267034,0.244948974,0.2468,0.2,stimuli/lakes/602018_left.png,stimuli/lakes/602018_right.png,,,,0,87,87,18,1,,,,,
,,,,,,$5ec2ccb9bb23250d7ee425db,2020-07-20_14h38.56.898,fisher_task,2020.1.3,Win32,60,IwAR3TdExosWQJQBjV0ss3H59nqxlsONppn7wAdTuJqZAFVcI318DU3gLgoWg,0.154629645,-0.405555569,1,0,0,1.62315,scale,,,,,,0.21373507,0.173205081,0.326485712,0.264575131,stimuli/lakes/302012_left.png,stimuli/lakes/302012_right.png,,,space,0,88,88,12,1,0.898485,,,,
,,,,,,$5ec2ccb9bb23250d7ee425db,2020-07-20_14h38.56.898,fisher_task,2020.1.3,Win32,60,IwAR3TdExosWQJQBjV0ss3H59nqxlsONppn7wAdTuJqZAFVcI318DU3gLgoWg,0.153703719,-0.428703718,1,0,0,1.04043,scale,,,,,,0.275930788,0.223606798,0.275930788,0.223606798,stimuli/lakes/502016_left.png,stimuli/lakes/502016_right.png,,,,0,89,89,16,1,,,,,
,,,,,,$5ec2ccb9bb23250d7ee425db,2020-07-20_14h38.56.898,fisher_task,2020.1.3,Win32,60,IwAR3TdExosWQJQBjV0ss3H59nqxlsONppn7wAdTuJqZAFVcI318DU3gLgoWg,-0.092592581,-0.294444456,1,0,0,1.999755,scale,,,,,,0.349027907,0.282842712,0.174513954,0.141421356,stimuli/lakes/805069_left.png,stimuli/lakes/805069_right.png,,,,0,90,90,69,1,,,,,
,,,,,,$5ec2ccb9bb23250d7ee425db,2020-07-20_14h38.56.898,fisher_task,2020.1.3,Win32,60,IwAR3TdExosWQJQBjV0ss3H59nqxlsONppn7wAdTuJqZAFVcI318DU3gLgoWg,-0.051851839,-0.272222234,1,0,0,2.54125,scale,,,,,,0.1234,0.1,0.3702,0.3,stimuli/lakes/107089_left.png,stimuli/lakes/107089_right.png,,,,0,91,91,89,1,,,,,
,,,,,,$5ec2ccb9bb23250d7ee425db,2020-07-20_14h38.56.898,fisher_task,2020.1.3,Win32,60,IwAR3TdExosWQJQBjV0ss3H59nqxlsONppn7wAdTuJqZAFVcI318DU3gLgoWg,0.005555569,-0.254629641,1,0,0,2.082975,scale,,,,,,0.1234,0.1,0.3702,0.3,stimuli/lakes/106080_left.png,stimuli/lakes/106080_right.png,,,,0,92,92,80,1,,,,,
,,,,,,$5ec2ccb9bb23250d7ee425db,2020-07-20_14h38.56.898,fisher_task,2020.1.3,Win32,60,IwAR3TdExosWQJQBjV0ss3H59nqxlsONppn7wAdTuJqZAFVcI318DU3gLgoWg,0.182407423,-0.431481495,1,0,0,1.33127,scale,,,,,,0.2468,0.2,0.302267034,0.244948974,stimuli/lakes/40103_left.png,stimuli/lakes/40103_right.png,,,,0,93,93,3,1,,,,,
,,,,,,$5ec2ccb9bb23250d7ee425db,2020-07-20_14h38.56.898,fisher_task,2020.1.3,Win32,60,IwAR3TdExosWQJQBjV0ss3H59nqxlsONppn7wAdTuJqZAFVcI318DU3gLgoWg,0.076851866,-0.287962975,1,0,0,2.14559,scale,,,,,,0.174513954,0.141421356,0.349027907,0.282842712,stimuli/lakes/205060_left.png,stimuli/lakes/205060_right.png,,,,0,94,94,60,1,,,,,
,,,,,,$5ec2ccb9bb23250d7ee425db,2020-07-20_14h38.56.898,fisher_task,2020.1.3,Win32,60,IwAR3TdExosWQJQBjV0ss3H59nqxlsONppn7wAdTuJqZAFVcI318DU3gLgoWg,-0.155555488,-0.388888902,1,0,0,1.56213,scale,,,,,,0.2468,0.2,0.302267034,0.244948974,stimuli/lakes/4070101_left.png,stimuli/lakes/4070101_right.png,,,,0,95,95,101,1,,,,,
,,,,,,$5ec2ccb9bb23250d7ee425db,2020-07-20_14h38.56.898,fisher_task,2020.1.3,Win32,60,IwAR3TdExosWQJQBjV0ss3H59nqxlsONppn7wAdTuJqZAFVcI318DU3gLgoWg,0.078703718,-0.276851863,1,0,0,2.37259,scale,,,,,,0.3702,0.3,0.1234,0.1,stimuli/lakes/904049_left.png,stimuli/lakes/904049_right.png,,,,0,96,96,49,1,,,,,
,,,,,,$5ec2ccb9bb23250d7ee425db,2020-07-20_14h38.56.898,fisher_task,2020.1.3,Win32,60,IwAR3TdExosWQJQBjV0ss3H59nqxlsONppn7wAdTuJqZAFVcI318DU3gLgoWg,-0.014814802,-0.272222234,1,0,0,1.95807,scale,,,,,,0.21373507,0.173205081,0.326485712,0.264575131,stimuli/lakes/304043_left.png,stimuli/lakes/304043_right.png,,,,0,97,97,43,1,,,,,
,,,,,,$5ec2ccb9bb23250d7ee425db,2020-07-20_14h38.56.898,fisher_task,2020.1.3,Win32,60,IwAR3TdExosWQJQBjV0ss3H59nqxlsONppn7wAdTuJqZAFVcI318DU3gLgoWg,-0.120370359,-0.315740753,1,0,0,1.20749,scale,,,,,,0.2468,0.2,0.302267034,0.244948974,stimuli/lakes/4080112_left.png,stimuli/lakes/4080112_right.png,,,,0,98,98,112,1,,,,,
,,,,,,$5ec2ccb9bb23250d7ee425db,2020-07-20_14h38.56.898,fisher_task,2020.1.3,Win32,60,IwAR3TdExosWQJQBjV0ss3H59nqxlsONppn7wAdTuJqZAFVcI318DU3gLgoWg,-0.054629617,-0.261111179,1,0,0,1.60384,scale,,,,,,0.21373507,0.173205081,0.326485712,0.264575131,stimuli/lakes/3070100_left.png,stimuli/lakes/3070100_right.png,,,,0,99,99,100,1,,,,,
,,,,,,$5ec2ccb9bb23250d7ee425db,2020-07-20_14h38.56.898,fisher_task,2020.1.3,Win32,60,IwAR3TdExosWQJQBjV0ss3H59nqxlsONppn7wAdTuJqZAFVcI318DU3gLgoWg,0.160185201,-0.431481495,1,0,0,1.624355,scale,,,,,,0.275930788,0.223606798,0.275930788,0.223606798,stimuli/lakes/50104_left.png,stimuli/lakes/50104_right.png,,,,0,100,100,4,1,,,,,
,,,,,,$5ec2ccb9bb23250d7ee425db,2020-07-20_14h38.56.898,fisher_task,2020.1.3,Win32,60,IwAR3TdExosWQJQBjV0ss3H59nqxlsONppn7wAdTuJqZAFVcI318DU3gLgoWg,0.158333349,-0.410185199,1,0,0,1.78957,scale,,,,,,0.275930788,0.223606798,0.275930788,0.223606798,stimuli/lakes/504045_left.png,stimuli/lakes/504045_right.png,,,,0,101,101,45,1,,,,,
,,,,,,$5ec2ccb9bb23250d7ee425db,2020-07-20_14h38.56.898,fisher_task,2020.1.3,Win32,60,IwAR3TdExosWQJQBjV0ss3H59nqxlsONppn7wAdTuJqZAFVcI318DU3gLgoWg,0.05555557,-0.269444456,1,0,0,1.91499,scale,,,,,,0.349027907,0.282842712,0.174513954,0.141421356,stimuli/lakes/803039_left.png,stimuli/lakes/803039_right.png,,,,0,102,102,39,1,,,,,
,,,,,,$5ec2ccb9bb23250d7ee425db,2020-07-20_14h38.56.898,fisher_task,2020.1.3,Win32,60,IwAR3TdExosWQJQBjV0ss3H59nqxlsONppn7wAdTuJqZAFVcI318DU3gLgoWg,-0.158333322,-0.397222236,1,0,0,1.956885,scale,,,,,,0.302267034,0.244948974,0.2468,0.2,stimuli/lakes/6080115_left.png,stimuli/lakes/6080115_right.png,,,,0,103,103,115,1,,,,,
,,,,,,$5ec2ccb9bb23250d7ee425db,2020-07-20_14h38.56.898,fisher_task,2020.1.3,Win32,60,IwAR3TdExosWQJQBjV0ss3H59nqxlsONppn7wAdTuJqZAFVcI318DU3gLgoWg,-0.054629617,-0.271296308,1,0,0,1.14417,scale,,,,,,0.21373507,0.173205081,0.326485712,0.264575131,stimuli/lakes/3080109_left.png,stimuli/lakes/3080109_right.png,,,,0,104,104,109,1,,,,,
,,,,,,$5ec2ccb9bb23250d7ee425db,2020-07-20_14h38.56.898,fisher_task,2020.1.3,Win32,60,IwAR3TdExosWQJQBjV0ss3H59nqxlsONppn7wAdTuJqZAFVcI318DU3gLgoWg,0.077777792,-0.284259327,1,0,0,2.124395,scale,,,,,,0.3702,0.3,0.1234,0.1,stimuli/lakes/903040_left.png,stimuli/lakes/903040_right.png,,,,0,105,105,40,1,,,,,
,,,,,,$5ec2ccb9bb23250d7ee425db,2020-07-20_14h38.56.898,fisher_task,2020.1.3,Win32,60,IwAR3TdExosWQJQBjV0ss3H59nqxlsONppn7wAdTuJqZAFVcI318DU3gLgoWg,-0.150925858,-0.390740811,1,0,0,1.89539,scale,,,,,,0.326485712,0.264575131,0.21373507,0.173205081,stimuli/lakes/707095_left.png,stimuli/lakes/707095_right.png,,,,0,106,106,95,1,,,,,
,,,,,,$5ec2ccb9bb23250d7ee425db,2020-07-20_14h38.56.898,fisher_task,2020.1.3,Win32,60,IwAR3TdExosWQJQBjV0ss3H59nqxlsONppn7wAdTuJqZAFVcI318DU3gLgoWg,0.145370386,-0.333333346,1,0,0,1.9368,scale,,,,,,0.1234,0.1,0.3702,0.3,stimuli/lakes/104050_left.png,stimuli/lakes/104050_right.png,,,,0,107,107,50,1,,,,,
,,,,,,$5ec2ccb9bb23250d7ee425db,2020-07-20_14h38.56.898,fisher_task,2020.1.3,Win32,60,IwAR3TdExosWQJQBjV0ss3H59nqxlsONppn7wAdTuJqZAFVcI318DU3gLgoWg,-0.148148137,-0.36203705,1,0,0,1.39532,scale,,,,,,0.326485712,0.264575131,0.21373507,0.173205081,stimuli/lakes/706086_left.png,stimuli/lakes/706086_right.png,,,,0,108,108,86,1,,,,,
,,,,,,$5ec2ccb9bb23250d7ee425db,2020-07-20_14h38.56.898,fisher_task,2020.1.3,Win32,60,IwAR3TdExosWQJQBjV0ss3H59nqxlsONppn7wAdTuJqZAFVcI318DU3gLgoWg,-0.040740728,-0.265740809,1,0,0,2.166435,scale,,,,,,0.3702,0.3,0.1234,0.1,stimuli/lakes/903031_left.png,stimuli/lakes/903031_right.png,,,,0,109,109,31,1,,,,,
,,,,,,$5ec2ccb9bb23250d7ee425db,2020-07-20_14h38.56.898,fisher_task,2020.1.3,Win32,60,IwAR3TdExosWQJQBjV0ss3H59nqxlsONppn7wAdTuJqZAFVcI318DU3gLgoWg,-0.09722221,-0.290740753,1,0,0,1.374245,scale,,,,,,0.174513954,0.141421356,0.349027907,0.282842712,stimuli/lakes/207090_left.png,stimuli/lakes/207090_right.png,,,space,0,110,110,90,1,0.898795,,,,
,,,,,,$5ec2ccb9bb23250d7ee425db,2020-07-20_14h38.56.898,fisher_task,2020.1.3,Win32,60,IwAR3TdExosWQJQBjV0ss3H59nqxlsONppn7wAdTuJqZAFVcI318DU3gLgoWg,-0.128703692,-0.347222235,1,0,0,2.624395,scale,,,,,,0.326485712,0.264575131,0.21373507,0.173205081,stimuli/lakes/706077_left.png,stimuli/lakes/706077_right.png,,,,0,111,111,77,1,,,,,
,,,,,,$5ec2ccb9bb23250d7ee425db,2020-07-20_14h38.56.898,fisher_task,2020.1.3,Win32,60,IwAR3TdExosWQJQBjV0ss3H59nqxlsONppn7wAdTuJqZAFVcI318DU3gLgoWg,-0.039814746,-0.250000011,1,0,0,1.874015,scale,,,,,,0.2468,0.2,0.302267034,0.244948974,stimuli/lakes/406074_left.png,stimuli/lakes/406074_right.png,,,,0,112,112,74,1,,,,,
,,,,,,$5ec2ccb9bb23250d7ee425db,2020-07-20_14h38.56.898,fisher_task,2020.1.3,Win32,60,IwAR3TdExosWQJQBjV0ss3H59nqxlsONppn7wAdTuJqZAFVcI318DU3gLgoWg,0.104629644,-0.285185197,1,0,0,1.64541,scale,,,,,,0.21373507,0.173205081,0.326485712,0.264575131,stimuli/lakes/306073_left.png,stimuli/lakes/306073_right.png,,,,0,113,113,73,1,,,,,
,,,,,,$5ec2ccb9bb23250d7ee425db,2020-07-20_14h38.56.898,fisher_task,2020.1.3,Win32,60,IwAR3TdExosWQJQBjV0ss3H59nqxlsONppn7wAdTuJqZAFVcI318DU3gLgoWg,-0.118518451,-0.313888901,1,0,0,1.207935,scale,,,,,,0.302267034,0.244948974,0.2468,0.2,stimuli/lakes/6070103_left.png,stimuli/lakes/6070103_right.png,,,,0,114,114,103,1,,,,,
,,,,,,$5ec2ccb9bb23250d7ee425db,2020-07-20_14h38.56.898,fisher_task,2020.1.3,Win32,60,IwAR3TdExosWQJQBjV0ss3H59nqxlsONppn7wAdTuJqZAFVcI318DU3gLgoWg,0.10555557,-0.307407476,1,0,0,1.708285,scale,,,,,,0.1234,0.1,0.3702,0.3,stimuli/lakes/107098_left.png,stimuli/lakes/107098_right.png,,,,0,115,115,98,1,,,,,
,,,,,,$5ec2ccb9bb23250d7ee425db,2020-07-20_14h38.56.898,fisher_task,2020.1.3,Win32,60,IwAR3TdExosWQJQBjV0ss3H59nqxlsONppn7wAdTuJqZAFVcI318DU3gLgoWg,0.141666682,-0.335185254,1,0,0,1.76891,scale,,,,,,0.174513954,0.141421356,0.349027907,0.282842712,stimuli/lakes/204042_left.png,stimuli/lakes/204042_right.png,,,,0,116,116,42,1,,,,,
,,,,,,$5ec2ccb9bb23250d7ee425db,2020-07-20_14h38.56.898,fisher_task,2020.1.3,Win32,60,IwAR3TdExosWQJQBjV0ss3H59nqxlsONppn7wAdTuJqZAFVcI318DU3gLgoWg,-0.057407395,-0.2638889,1,0,0,1.68741,scale,,,,,,0.21373507,0.173205081,0.326485712,0.264575131,stimuli/lakes/3080110_left.png,stimuli/lakes/3080110_right.png,,,,0,117,117,110,1,,,,,
,,,,,,$5ec2ccb9bb23250d7ee425db,2020-07-20_14h38.56.898,fisher_task,2020.1.3,Win32,60,IwAR3TdExosWQJQBjV0ss3H59nqxlsONppn7wAdTuJqZAFVcI318DU3gLgoWg,-0.162037026,-0.4046297,1,0,0,1.207965,scale,,,,,,0.349027907,0.282842712,0.174513954,0.141421356,stimuli/lakes/8080118_left.png,stimuli/lakes/8080118_right.png,,,,0,118,118,118,1,,,,,
,,,,,,$5ec2ccb9bb23250d7ee425db,2020-07-20_14h38.56.898,fisher_task,2020.1.3,Win32,60,IwAR3TdExosWQJQBjV0ss3H59nqxlsONppn7wAdTuJqZAFVcI318DU3gLgoWg,0.146296312,-0.412037051,1,0,0,1.62506,scale,,,,,,0.21373507,0.173205081,0.326485712,0.264575131,stimuli/lakes/302013_left.png,stimuli/lakes/302013_right.png,,,,0,119,119,13,1,,,,,
,,,,,,$5ec2ccb9bb23250d7ee425db,2020-07-20_14h38.56.898,fisher_task,2020.1.3,Win32,60,IwAR3TdExosWQJQBjV0ss3H59nqxlsONppn7wAdTuJqZAFVcI318DU3gLgoWg,-0.160185118,-0.42592594,1,0,0,1.39478,scale,,,,,,0.275930788,0.223606798,0.275930788,0.223606798,stimuli/lakes/5080113_left.png,stimuli/lakes/5080113_right.png,,,,0,120,120,113,1,,,,,
,,,,,,$5ec2ccb9bb23250d7ee425db,2020-07-20_14h38.56.898,fisher_task,2020.1.3,Win32,60,IwAR3TdExosWQJQBjV0ss3H59nqxlsONppn7wAdTuJqZAFVcI318DU3gLgoWg,-0.133333322,-0.313888901,1,0,0,2.291285,scale,,,,,,0.21373507,0.173205081,0.326485712,0.264575131,stimuli/lakes/3090122_left.png,stimuli/lakes/3090122_right.png,,,,0,121,121,122,1,,,,,
,,,,,,$5ec2ccb9bb23250d7ee425db,2020-07-20_14h38.56.898,fisher_task,2020.1.3,Win32,60,IwAR3TdExosWQJQBjV0ss3H59nqxlsONppn7wAdTuJqZAFVcI318DU3gLgoWg,0.087037052,-0.293518587,1,0,0,1.47872,scale,,,,,,0.302267034,0.244948974,0.2468,0.2,stimuli/lakes/602017_left.png,stimuli/lakes/602017_right.png,,,,0,122,122,17,1,,,,,
,,,,,,$5ec2ccb9bb23250d7ee425db,2020-07-20_14h38.56.898,fisher_task,2020.1.3,Win32,60,IwAR3TdExosWQJQBjV0ss3H59nqxlsONppn7wAdTuJqZAFVcI318DU3gLgoWg,-0.138888878,-0.331481494,1,0,0,1.458255,scale,,,,,,0.326485712,0.264575131,0.21373507,0.173205081,stimuli/lakes/7070104_left.png,stimuli/lakes/7070104_right.png,,,,0,123,123,104,1,,,,,
,,,,,,$5ec2ccb9bb23250d7ee425db,2020-07-20_14h38.56.898,fisher_task,2020.1.3,Win32,60,IwAR3TdExosWQJQBjV0ss3H59nqxlsONppn7wAdTuJqZAFVcI318DU3gLgoWg,-0.150925858,-0.429629643,1,0,0,1.061845,scale,,,,,,0.326485712,0.264575131,0.21373507,0.173205081,stimuli/lakes/7090129_left.png,stimuli/lakes/7090129_right.png,,,,0,124,124,129,1,,,,,
,,,,,,$5ec2ccb9bb23250d7ee425db,2020-07-20_14h38.56.898,fisher_task,2020.1.3,Win32,60,IwAR3TdExosWQJQBjV0ss3H59nqxlsONppn7wAdTuJqZAFVcI318DU3gLgoWg,-0.074999988,-0.275000068,1,0,0,1.81215,scale,,,,,,0.3702,0.3,0.1234,0.1,stimuli/lakes/904058_left.png,stimuli/lakes/904058_right.png,,,,0,125,125,58,1,,,,,
,,,,,,$5ec2ccb9bb23250d7ee425db,2020-07-20_14h38.56.898,fisher_task,2020.1.3,Win32,60,IwAR3TdExosWQJQBjV0ss3H59nqxlsONppn7wAdTuJqZAFVcI318DU3gLgoWg,-0.133333322,-0.344444514,1,0,0,1.43658,scale,,,,,,0.3702,0.3,0.1234,0.1,stimuli/lakes/906079_left.png,stimuli/lakes/906079_right.png,,,,0,126,126,79,1,,,,,
,,,,,,$5ec2ccb9bb23250d7ee425db,2020-07-20_14h38.56.898,fisher_task,2020.1.3,Win32,60,IwAR3TdExosWQJQBjV0ss3H59nqxlsONppn7wAdTuJqZAFVcI318DU3gLgoWg,0.164814831,-0.428703718,1,0,0,1.37477,scale,,,,,,0.21373507,0.173205081,0.326485712,0.264575131,stimuli/lakes/30100_left.png,stimuli/lakes/30100_right.png,,,,0,127,127,0,1,,,,,
,,,,,,$5ec2ccb9bb23250d7ee425db,2020-07-20_14h38.56.898,fisher_task,2020.1.3,Win32,60,IwAR3TdExosWQJQBjV0ss3H59nqxlsONppn7wAdTuJqZAFVcI318DU3gLgoWg,0.049074088,-0.266666678,1,0,0,1.957555,scale,,,,,,0.174513954,0.141421356,0.349027907,0.282842712,stimuli/lakes/206072_left.png,stimuli/lakes/206072_right.png,,,,0,128,128,72,1,,,,,
,,,,,,$5ec2ccb9bb23250d7ee425db,2020-07-20_14h38.56.898,fisher_task,2020.1.3,Win32,60,IwAR3TdExosWQJQBjV0ss3H59nqxlsONppn7wAdTuJqZAFVcI318DU3gLgoWg,-0.060185173,-0.277777789,1,0,0,1.145315,scale,,,,,,0.21373507,0.173205081,0.326485712,0.264575131,stimuli/lakes/307091_left.png,stimuli/lakes/307091_right.png,,,,0,129,129,91,1,,,,,
,,,,,,$5ec2ccb9bb23250d7ee425db,2020-07-20_14h38.56.898,fisher_task,2020.1.3,Win32,60,IwAR3TdExosWQJQBjV0ss3H59nqxlsONppn7wAdTuJqZAFVcI318DU3gLgoWg,,,,,,,,,,,,,,,,,,,,,,,,,,,,space,3.98124,space,9.656585
