keySpace.keys,keySpace.rt,instructions.thisRepN,instructions.thisTrialN,instructions.thisN,instructions.thisIndex,instructions.ran,participant,date,expName,psychopyVersion,OS,frameRate,mouse.x,mouse.y,mouse.leftButton,mouse.midButton,mouse.rightButton,mouse.time,mouse.clicked_name,training.thisRepN,training.thisTrialN,training.thisN,training.thisIndex,training.ran,widthBasketLeft,heightBasketLeft,widthBasketRight,heightBasketRight,leftLake,rightLake,space2.keys,space2.rt,space1.keys,trials.thisRepN,trials.thisTrialN,trials.thisN,trials.thisIndex,trials.ran,space1.rt,finalSpace1.keys,finalSpace1.rt,finalSpace2.keys,finalSpace2.rt
space,0.21588,0,0,0,0,1,$5ebb228e21254f0fac2504d0,2020-07-20_14h34.31.257,fisher_task,2020.1.3,Win32,60,,,,,,,,,,,,,,,,,,,,,,,,,,,,,,,
space,0.217185,1,0,1,0,1,$5ebb228e21254f0fac2504d0,2020-07-20_14h34.31.257,fisher_task,2020.1.3,Win32,60,,,,,,,,,,,,,,,,,,,,,,,,,,,,,,,
,,2,0,2,0,1,$5ebb228e21254f0fac2504d0,2020-07-20_14h34.31.257,fisher_task,2020.1.3,Win32,60,,,,,,,,,,,,,,,,,,,,,,,,,,,,,,,
,,,,,,,$5ebb228e21254f0fac2504d0,2020-07-20_14h34.31.257,fisher_task,2020.1.3,Win32,60,0.017592593,-0.022222222,1,0,0,1.000815,scale,0,0,0,0,1,0.275930788,0.223606798,0.275930788,0.223606798,stimuli/training/20_left.png,stimuli/training/20_right.png,,,,,,,,,,,,,
,,,,,,,$5ebb228e21254f0fac2504d0,2020-07-20_14h34.31.257,fisher_task,2020.1.3,Win32,60,-0.141666667,-0.306481481,1,0,0,1.3162,scale,0,1,1,1,1,0.275930788,0.223606798,0.275930788,0.223606798,stimuli/training/80_left.png,stimuli/training/80_right.png,,,,,,,,,,,,,
,,,,,,,$5ebb228e21254f0fac2504d0,2020-07-20_14h34.31.257,fisher_task,2020.1.3,Win32,60,-0.008333333,-0.005555556,1,0,0,0.51671,scale,0,2,2,2,1,0.174513954,0.141421356,0.349027907,0.282842712,stimuli/training/50_left.png,stimuli/training/50_right.png,,,,,,,,,,,,,
,,,,,,,$5ebb228e21254f0fac2504d0,2020-07-20_14h34.31.257,fisher_task,2020.1.3,Win32,60,-0.232407407,0.326851852,1,0,0,1.30149,scale,0,3,3,3,1,0.349027907,0.282842712,0.174513954,0.141421356,stimuli/training/50_left.png,stimuli/training/50_right.png,,,,,,,,,,,,,
,,,,,,,$5ebb228e21254f0fac2504d0,2020-07-20_14h34.31.257,fisher_task,2020.1.3,Win32,60,-0.246296296,-0.012962963,1,0,0,0.06682,scale,0,4,4,4,1,0.275930788,0.223606798,0.275930788,0.223606798,stimuli/training/50_left.png,stimuli/training/50_right.png,,,,,,,,,,,,,
,,,,,,,$5ebb228e21254f0fac2504d0,2020-07-20_14h34.31.257,fisher_task,2020.1.3,Win32,60,0.221296296,0.296296296,1,0,0,1.449955,scale,0,5,5,5,1,0.174513954,0.141421356,0.349027907,0.282842712,stimuli/training/20_left.png,stimuli/training/20_right.png,,,,,,,,,,,,,
,,,,,,,$5ebb228e21254f0fac2504d0,2020-07-20_14h34.31.257,fisher_task,2020.1.3,Win32,60,0.227777778,0.252777778,1,0,0,0.667015,scale,0,6,6,6,1,0.349027907,0.282842712,0.174513954,0.141421356,stimuli/training/80_left.png,stimuli/training/80_right.png,,,,,,,,,,,,,
,,,,,,,$5ebb228e21254f0fac2504d0,2020-07-20_14h34.31.257,fisher_task,2020.1.3,Win32,60,0.325,0.012962963,1,0,0,0.084465,scale,0,7,7,7,1,0.1234,0.1,0.3702,0.3,stimuli/training/30_left.png,stimuli/training/30_right.png,,,,,,,,,,,,,
,,,,,,,$5ebb228e21254f0fac2504d0,2020-07-20_14h34.31.257,fisher_task,2020.1.3,Win32,60,0.236111111,0.24537037,1,0,0,0.46607,scale,0,8,8,8,1,0.3702,0.3,0.1234,0.1,stimuli/training/70_left.png,stimuli/training/70_right.png,,,,,,,,,,,,,
,,,,,,,$5ebb228e21254f0fac2504d0,2020-07-20_14h34.31.257,fisher_task,2020.1.3,Win32,60,-0.194444444,0.237037037,1,0,0,0.482525,scale,0,9,9,9,1,0.326485712,0.264575131,0.21373507,0.173205081,stimuli/training/90_left.png,stimuli/training/90_right.png,,,,,,,,,,,,,
,,,,,,,$5ebb228e21254f0fac2504d0,2020-07-20_14h34.31.257,fisher_task,2020.1.3,Win32,60,0.257407407,0.287962963,1,0,0,0.78489,scale,0,10,10,10,1,0.21373507,0.173205081,0.326485712,0.264575131,stimuli/training/10_left.png,stimuli/training/10_right.png,,,,,,,,,,,,,
,,,,,,,$5ebb228e21254f0fac2504d0,2020-07-20_14h34.31.257,fisher_task,2020.1.3,Win32,60,-0.250925926,0.281481481,1,0,0,2.13274,scale,,,,,,0.2468,0.2,0.302267034,0.244948974,stimuli/lakes/4090123_left.png,stimuli/lakes/4090123_right.png,space,6.000465,,0,0,0,123,1,,,,,
,,,,,,,$5ebb228e21254f0fac2504d0,2020-07-20_14h34.31.257,fisher_task,2020.1.3,Win32,60,-0.210185185,0.275925926,1,0,0,0.716385,scale,,,,,,0.1234,0.1,0.3702,0.3,stimuli/lakes/106071_left.png,stimuli/lakes/106071_right.png,,,,0,1,1,71,1,,,,,
,,,,,,,$5ebb228e21254f0fac2504d0,2020-07-20_14h34.31.257,fisher_task,2020.1.3,Win32,60,0.292592593,0.311111111,1,0,0,0.698315,scale,,,,,,0.275930788,0.223606798,0.275930788,0.223606798,stimuli/lakes/504045_left.png,stimuli/lakes/504045_right.png,,,,0,2,2,45,1,,,,,
,,,,,,,$5ebb228e21254f0fac2504d0,2020-07-20_14h34.31.257,fisher_task,2020.1.3,Win32,60,0.246296296,0.287962963,1,0,0,0.715605,scale,,,,,,0.21373507,0.173205081,0.326485712,0.264575131,stimuli/lakes/303025_left.png,stimuli/lakes/303025_right.png,,,,0,3,3,25,1,,,,,
,,,,,,,$5ebb228e21254f0fac2504d0,2020-07-20_14h34.31.257,fisher_task,2020.1.3,Win32,60,-0.217592593,0.308333333,1,0,0,1.48377,scale,,,,,,0.302267034,0.244948974,0.2468,0.2,stimuli/lakes/605065_left.png,stimuli/lakes/605065_right.png,,,,0,4,4,65,1,,,,,
,,,,,,,$5ebb228e21254f0fac2504d0,2020-07-20_14h34.31.257,fisher_task,2020.1.3,Win32,60,0.239814815,0.267592593,1,0,0,0.949725,scale,,,,,,0.21373507,0.173205081,0.326485712,0.264575131,stimuli/lakes/305061_left.png,stimuli/lakes/305061_right.png,,,,0,5,5,61,1,,,,,
,,,,,,,$5ebb228e21254f0fac2504d0,2020-07-20_14h34.31.257,fisher_task,2020.1.3,Win32,60,0.187037037,0.308333333,1,0,0,0.88307,scale,,,,,,0.302267034,0.244948974,0.2468,0.2,stimuli/lakes/60105_left.png,stimuli/lakes/60105_right.png,,,,0,6,6,5,1,,,,,
,,,,,,,$5ebb228e21254f0fac2504d0,2020-07-20_14h34.31.257,fisher_task,2020.1.3,Win32,60,0.239814815,0.285185185,1,0,0,0.89913,scale,,,,,,0.2468,0.2,0.302267034,0.244948974,stimuli/lakes/404044_left.png,stimuli/lakes/404044_right.png,,,,0,7,7,44,1,,,,,
,,,,,,,$5ebb228e21254f0fac2504d0,2020-07-20_14h34.31.257,fisher_task,2020.1.3,Win32,60,0.033333333,-0.032407407,1,0,0,0.968165,scale,,,,,,0.2468,0.2,0.302267034,0.244948974,stimuli/lakes/406083_left.png,stimuli/lakes/406083_right.png,,,,0,8,8,83,1,,,,,
,,,,,,,$5ebb228e21254f0fac2504d0,2020-07-20_14h34.31.257,fisher_task,2020.1.3,Win32,60,0.184259259,0.291666667,1,0,0,1.383255,scale,,,,,,0.275930788,0.223606798,0.275930788,0.223606798,stimuli/lakes/502016_left.png,stimuli/lakes/502016_right.png,,,,0,9,9,16,1,,,,,
,,,,,,,$5ebb228e21254f0fac2504d0,2020-07-20_14h34.31.257,fisher_task,2020.1.3,Win32,60,0.158333333,0.013888889,1,0,0,0.08299,scale,,,,,,0.174513954,0.141421356,0.349027907,0.282842712,stimuli/lakes/2090120_left.png,stimuli/lakes/2090120_right.png,,,,0,10,10,120,1,,,,,
,,,,,,,$5ebb228e21254f0fac2504d0,2020-07-20_14h34.31.257,fisher_task,2020.1.3,Win32,60,0.014814815,-0.262037037,1,0,0,0.648835,scale,,,,,,0.326485712,0.264575131,0.21373507,0.173205081,stimuli/lakes/702019_left.png,stimuli/lakes/702019_right.png,,,,0,11,11,19,1,,,,,
,,,,,,,$5ebb228e21254f0fac2504d0,2020-07-20_14h34.31.257,fisher_task,2020.1.3,Win32,60,-0.021296296,-0.268518519,1,0,0,0.4017,scale,,,,,,0.2468,0.2,0.302267034,0.244948974,stimuli/lakes/403026_left.png,stimuli/lakes/403026_right.png,,,,0,12,12,26,1,,,,,
,,,,,,,$5ebb228e21254f0fac2504d0,2020-07-20_14h34.31.257,fisher_task,2020.1.3,Win32,60,-0.175,-0.251851852,1,0,0,0.132115,scale,,,,,,0.326485712,0.264575131,0.21373507,0.173205081,stimuli/lakes/705067_left.png,stimuli/lakes/705067_right.png,,,,0,13,13,67,1,,,,,
,,,,,,,$5ebb228e21254f0fac2504d0,2020-07-20_14h34.31.257,fisher_task,2020.1.3,Win32,60,0.226851852,0.023148148,1,0,0,0.08207,scale,,,,,,0.349027907,0.282842712,0.174513954,0.141421356,stimuli/lakes/807096_left.png,stimuli/lakes/807096_right.png,,,,0,14,14,96,1,,,,,
,,,,,,,$5ebb228e21254f0fac2504d0,2020-07-20_14h34.31.257,fisher_task,2020.1.3,Win32,60,-0.207407407,0.225925926,1,0,0,0.365435,scale,,,,,,0.1234,0.1,0.3702,0.3,stimuli/lakes/103032_left.png,stimuli/lakes/103032_right.png,,,,0,15,15,32,1,,,,,
,,,,,,,$5ebb228e21254f0fac2504d0,2020-07-20_14h34.31.257,fisher_task,2020.1.3,Win32,60,-0.224074074,0.351851852,1,0,0,1.94751,scale,,,,,,0.302267034,0.244948974,0.2468,0.2,stimuli/lakes/604046_left.png,stimuli/lakes/604046_right.png,,,,0,16,16,46,1,,,,,
,,,,,,,$5ebb228e21254f0fac2504d0,2020-07-20_14h34.31.257,fisher_task,2020.1.3,Win32,60,0.036111111,-0.006481481,1,0,0,0.44979,scale,,,,,,0.174513954,0.141421356,0.349027907,0.282842712,stimuli/lakes/204051_left.png,stimuli/lakes/204051_right.png,,,,0,17,17,51,1,,,,,
,,,,,,,$5ebb228e21254f0fac2504d0,2020-07-20_14h34.31.257,fisher_task,2020.1.3,Win32,60,0.198148148,0.258333333,1,0,0,0.36849,scale,,,,,,0.21373507,0.173205081,0.326485712,0.264575131,stimuli/lakes/306073_left.png,stimuli/lakes/306073_right.png,,,,0,18,18,73,1,,,,,
,,,,,,,$5ebb228e21254f0fac2504d0,2020-07-20_14h34.31.257,fisher_task,2020.1.3,Win32,60,0.291666667,0.25462963,1,0,0,0.41673,scale,,,,,,0.326485712,0.264575131,0.21373507,0.173205081,stimuli/lakes/703038_left.png,stimuli/lakes/703038_right.png,,,,0,19,19,38,1,,,,,
,,,,,,,$5ebb228e21254f0fac2504d0,2020-07-20_14h34.31.257,fisher_task,2020.1.3,Win32,60,0.233333333,0.313888889,1,0,0,0.88427,scale,,,,,,0.3702,0.3,0.1234,0.1,stimuli/lakes/906079_left.png,stimuli/lakes/906079_right.png,,,,0,20,20,79,1,,,,,
,,,,,,,$5ebb228e21254f0fac2504d0,2020-07-20_14h34.31.257,fisher_task,2020.1.3,Win32,60,0.167592593,0.299074074,1,0,0,0.5291,scale,,,,,,0.2468,0.2,0.302267034,0.244948974,stimuli/lakes/4080112_left.png,stimuli/lakes/4080112_right.png,,,,0,21,21,112,1,,,,,
,,,,,,,$5ebb228e21254f0fac2504d0,2020-07-20_14h34.31.257,fisher_task,2020.1.3,Win32,60,0.164814815,-0.412037037,1,0,0,1.712065,scale,,,,,,0.2468,0.2,0.302267034,0.244948974,stimuli/lakes/405063_left.png,stimuli/lakes/405063_right.png,,,space,0,22,22,63,1,6.95177,,,,
,,,,,,,$5ebb228e21254f0fac2504d0,2020-07-20_14h34.31.257,fisher_task,2020.1.3,Win32,60,0.162962963,-0.417592593,1,0,0,0.532685,scale,,,,,,0.1234,0.1,0.3702,0.3,stimuli/lakes/1080107_left.png,stimuli/lakes/1080107_right.png,,,,0,23,23,107,1,,,,,
,,,,,,,$5ebb228e21254f0fac2504d0,2020-07-20_14h34.31.257,fisher_task,2020.1.3,Win32,60,0.141666667,-0.408333333,1,0,0,0.716525,scale,,,,,,0.174513954,0.141421356,0.349027907,0.282842712,stimuli/lakes/207090_left.png,stimuli/lakes/207090_right.png,,,,0,24,24,90,1,,,,,
,,,,,,,$5ebb228e21254f0fac2504d0,2020-07-20_14h34.31.257,fisher_task,2020.1.3,Win32,60,-0.139814815,-0.388888889,1,0,0,0.58304,scale,,,,,,0.349027907,0.282842712,0.174513954,0.141421356,stimuli/lakes/8080118_left.png,stimuli/lakes/8080118_right.png,,,,0,25,25,118,1,,,,,
,,,,,,,$5ebb228e21254f0fac2504d0,2020-07-20_14h34.31.257,fisher_task,2020.1.3,Win32,60,-0.139814815,-0.388888889,1,0,0,0.39694,scale,,,,,,0.326485712,0.264575131,0.21373507,0.173205081,stimuli/lakes/707095_left.png,stimuli/lakes/707095_right.png,,,,0,26,26,95,1,,,,,
,,,,,,,$5ebb228e21254f0fac2504d0,2020-07-20_14h34.31.257,fisher_task,2020.1.3,Win32,60,0.181481481,-0.391666667,1,0,0,0.4498,scale,,,,,,0.2468,0.2,0.302267034,0.244948974,stimuli/lakes/406074_left.png,stimuli/lakes/406074_right.png,,,,0,27,27,74,1,,,,,
,,,,,,,$5ebb228e21254f0fac2504d0,2020-07-20_14h34.31.257,fisher_task,2020.1.3,Win32,60,-0.168518519,-0.391666667,1,0,0,0.450435,scale,,,,,,0.302267034,0.244948974,0.2468,0.2,stimuli/lakes/6080115_left.png,stimuli/lakes/6080115_right.png,,,,0,28,28,115,1,,,,,
,,,,,,,$5ebb228e21254f0fac2504d0,2020-07-20_14h34.31.257,fisher_task,2020.1.3,Win32,60,-0.165740741,-0.384259259,1,0,0,0.36433,scale,,,,,,0.3702,0.3,0.1234,0.1,stimuli/lakes/903031_left.png,stimuli/lakes/903031_right.png,,,,0,29,29,31,1,,,,,
,,,,,,,$5ebb228e21254f0fac2504d0,2020-07-20_14h34.31.257,fisher_task,2020.1.3,Win32,60,0.158333333,-0.376851852,1,0,0,0.4989,scale,,,,,,0.2468,0.2,0.302267034,0.244948974,stimuli/lakes/40102_left.png,stimuli/lakes/40102_right.png,,,,0,30,30,2,1,,,,,
,,,,,,,$5ebb228e21254f0fac2504d0,2020-07-20_14h34.31.257,fisher_task,2020.1.3,Win32,60,-0.167592593,-0.409259259,1,0,0,0.515775,scale,,,,,,0.302267034,0.244948974,0.2468,0.2,stimuli/lakes/603028_left.png,stimuli/lakes/603028_right.png,,,,0,31,31,28,1,,,,,
,,,,,,,$5ebb228e21254f0fac2504d0,2020-07-20_14h34.31.257,fisher_task,2020.1.3,Win32,60,0.142592593,-0.417592593,1,0,0,0.65058,scale,,,,,,0.1234,0.1,0.3702,0.3,stimuli/lakes/105059_left.png,stimuli/lakes/105059_right.png,,,,0,32,32,59,1,,,,,
,,,,,,,$5ebb228e21254f0fac2504d0,2020-07-20_14h34.31.257,fisher_task,2020.1.3,Win32,60,-0.122222222,-0.401851852,1,0,0,0.5002,scale,,,,,,0.326485712,0.264575131,0.21373507,0.173205081,stimuli/lakes/7090128_left.png,stimuli/lakes/7090128_right.png,,,,0,33,33,128,1,,,,,
,,,,,,,$5ebb228e21254f0fac2504d0,2020-07-20_14h34.31.257,fisher_task,2020.1.3,Win32,60,0.12962963,-0.408333333,1,0,0,0.465775,scale,,,,,,0.174513954,0.141421356,0.349027907,0.282842712,stimuli/lakes/206081_left.png,stimuli/lakes/206081_right.png,,,,0,34,34,81,1,,,,,
,,,,,,,$5ebb228e21254f0fac2504d0,2020-07-20_14h34.31.257,fisher_task,2020.1.3,Win32,60,0.132407407,-0.403703704,1,0,0,0.499855,scale,,,,,,0.21373507,0.173205081,0.326485712,0.264575131,stimuli/lakes/30101_left.png,stimuli/lakes/30101_right.png,,,,0,35,35,1,1,,,,,
,,,,,,,$5ebb228e21254f0fac2504d0,2020-07-20_14h34.31.257,fisher_task,2020.1.3,Win32,60,-0.253703704,-0.373148148,0,0,1,0.267095,scale,,,,,,0.326485712,0.264575131,0.21373507,0.173205081,stimuli/lakes/70107_left.png,stimuli/lakes/70107_right.png,,,,0,36,36,7,1,,,,,
,,,,,,,$5ebb228e21254f0fac2504d0,2020-07-20_14h34.31.257,fisher_task,2020.1.3,Win32,60,0.186111111,-0.422222222,1,0,0,0.482885,scale,,,,,,0.21373507,0.173205081,0.326485712,0.264575131,stimuli/lakes/302013_left.png,stimuli/lakes/302013_right.png,,,,0,37,37,13,1,,,,,
,,,,,,,$5ebb228e21254f0fac2504d0,2020-07-20_14h34.31.257,fisher_task,2020.1.3,Win32,60,0.211111111,-0.414814815,1,0,0,0.416915,scale,,,,,,0.2468,0.2,0.302267034,0.244948974,stimuli/lakes/4090124_left.png,stimuli/lakes/4090124_right.png,,,,0,38,38,124,1,,,,,
,,,,,,,$5ebb228e21254f0fac2504d0,2020-07-20_14h34.31.257,fisher_task,2020.1.3,Win32,60,-0.186111111,-0.427777778,1,0,0,1.59879,scale,,,,,,0.3702,0.3,0.1234,0.1,stimuli/lakes/907097_left.png,stimuli/lakes/907097_right.png,,,,0,39,39,97,1,,,,,
,,,,,,,$5ebb228e21254f0fac2504d0,2020-07-20_14h34.31.257,fisher_task,2020.1.3,Win32,60,-0.156481481,-0.411111111,1,0,0,1.25204,scale,,,,,,0.2468,0.2,0.302267034,0.244948974,stimuli/lakes/4070101_left.png,stimuli/lakes/4070101_right.png,,,,0,40,40,101,1,,,,,
,,,,,,,$5ebb228e21254f0fac2504d0,2020-07-20_14h34.31.257,fisher_task,2020.1.3,Win32,60,-0.156481481,-0.411111111,1,0,0,0.70026,scale,,,,,,0.2468,0.2,0.302267034,0.244948974,stimuli/lakes/407092_left.png,stimuli/lakes/407092_right.png,,,,0,41,41,92,1,,,,,
,,,,,,,$5ebb228e21254f0fac2504d0,2020-07-20_14h34.31.257,fisher_task,2020.1.3,Win32,60,-0.156481481,-0.411111111,1,0,0,0.916785,scale,,,,,,0.275930788,0.223606798,0.275930788,0.223606798,stimuli/lakes/5080113_left.png,stimuli/lakes/5080113_right.png,,,,0,42,42,113,1,,,,,
,,,,,,,$5ebb228e21254f0fac2504d0,2020-07-20_14h34.31.257,fisher_task,2020.1.3,Win32,60,-0.005555556,-0.188888889,1,0,0,2.067235,scale,,,,,,0.302267034,0.244948974,0.2468,0.2,stimuli/lakes/605066_left.png,stimuli/lakes/605066_right.png,,,,0,43,43,66,1,,,,,
,,,,,,,$5ebb228e21254f0fac2504d0,2020-07-20_14h34.31.257,fisher_task,2020.1.3,Win32,60,0.142592593,-0.396296296,1,0,0,0.999985,scale,,,,,,0.174513954,0.141421356,0.349027907,0.282842712,stimuli/lakes/202011_left.png,stimuli/lakes/202011_right.png,,,space,0,44,44,11,1,11.06786,,,,
,,,,,,,$5ebb228e21254f0fac2504d0,2020-07-20_14h34.31.257,fisher_task,2020.1.3,Win32,60,0.113888889,-0.406481481,1,0,0,0.78317,scale,,,,,,0.275930788,0.223606798,0.275930788,0.223606798,stimuli/lakes/50104_left.png,stimuli/lakes/50104_right.png,,,,0,45,45,4,1,,,,,
,,,,,,,$5ebb228e21254f0fac2504d0,2020-07-20_14h34.31.257,fisher_task,2020.1.3,Win32,60,0.22037037,-0.051851852,1,0,0,0.0843,scale,,,,,,0.21373507,0.173205081,0.326485712,0.264575131,stimuli/lakes/306082_left.png,stimuli/lakes/306082_right.png,,,,0,46,46,82,1,,,,,
,,,,,,,$5ebb228e21254f0fac2504d0,2020-07-20_14h34.31.257,fisher_task,2020.1.3,Win32,60,0.012962963,-0.271296296,1,0,0,1.91595,scale,,,,,,0.21373507,0.173205081,0.326485712,0.264575131,stimuli/lakes/305062_left.png,stimuli/lakes/305062_right.png,,,,0,47,47,62,1,,,,,
,,,,,,,$5ebb228e21254f0fac2504d0,2020-07-20_14h34.31.257,fisher_task,2020.1.3,Win32,60,-0.15,-0.422222222,1,0,0,1.321275,scale,,,,,,0.326485712,0.264575131,0.21373507,0.173205081,stimuli/lakes/7080116_left.png,stimuli/lakes/7080116_right.png,,,,0,48,48,116,1,,,,,
,,,,,,,$5ebb228e21254f0fac2504d0,2020-07-20_14h34.31.257,fisher_task,2020.1.3,Win32,60,0.139814815,-0.406481481,1,0,0,1.211655,scale,,,,,,0.326485712,0.264575131,0.21373507,0.173205081,stimuli/lakes/703029_left.png,stimuli/lakes/703029_right.png,,,,0,49,49,29,1,,,,,
,,,,,,,$5ebb228e21254f0fac2504d0,2020-07-20_14h34.31.257,fisher_task,2020.1.3,Win32,60,-0.164814815,-0.40462963,1,0,0,1.25104,scale,,,,,,0.21373507,0.173205081,0.326485712,0.264575131,stimuli/lakes/3080110_left.png,stimuli/lakes/3080110_right.png,,,,0,50,50,110,1,,,,,
,,,,,,,$5ebb228e21254f0fac2504d0,2020-07-20_14h34.31.257,fisher_task,2020.1.3,Win32,60,0.143518519,-0.405555556,1,0,0,1.18381,scale,,,,,,0.302267034,0.244948974,0.2468,0.2,stimuli/lakes/603037_left.png,stimuli/lakes/603037_right.png,,,,0,51,51,37,1,,,,,
,,,,,,,$5ebb228e21254f0fac2504d0,2020-07-20_14h34.31.257,fisher_task,2020.1.3,Win32,60,0.130555556,-0.385185185,1,0,0,1.81702,scale,,,,,,0.2468,0.2,0.302267034,0.244948974,stimuli/lakes/404053_left.png,stimuli/lakes/404053_right.png,,,,0,52,52,53,1,,,,,
,,,,,,,$5ebb228e21254f0fac2504d0,2020-07-20_14h34.31.257,fisher_task,2020.1.3,Win32,60,0.128703704,-0.414814815,1,0,0,1.20027,scale,,,,,,0.3702,0.3,0.1234,0.1,stimuli/lakes/904058_left.png,stimuli/lakes/904058_right.png,,,,0,53,53,58,1,,,,,
,,,,,,,$5ebb228e21254f0fac2504d0,2020-07-20_14h34.31.257,fisher_task,2020.1.3,Win32,60,0.109259259,-0.40462963,1,0,0,1.006305,scale,,,,,,0.2468,0.2,0.302267034,0.244948974,stimuli/lakes/403035_left.png,stimuli/lakes/403035_right.png,,,,0,54,54,35,1,,,,,
,,,,,,,$5ebb228e21254f0fac2504d0,2020-07-20_14h34.31.257,fisher_task,2020.1.3,Win32,60,-0.166666667,-0.418518519,1,0,0,1.317555,scale,,,,,,0.3702,0.3,0.1234,0.1,stimuli/lakes/9070106_left.png,stimuli/lakes/9070106_right.png,,,,0,55,55,106,1,,,,,
,,,,,,,$5ebb228e21254f0fac2504d0,2020-07-20_14h34.31.257,fisher_task,2020.1.3,Win32,60,0.169444444,-0.401851852,1,0,0,1.28334,scale,,,,,,0.1234,0.1,0.3702,0.3,stimuli/lakes/104050_left.png,stimuli/lakes/104050_right.png,,,,0,56,56,50,1,,,,,
,,,,,,,$5ebb228e21254f0fac2504d0,2020-07-20_14h34.31.257,fisher_task,2020.1.3,Win32,60,0.150925926,-0.415740741,1,0,0,7.287345,scale,,,,,,0.326485712,0.264575131,0.21373507,0.173205081,stimuli/lakes/704056_left.png,stimuli/lakes/704056_right.png,,,,0,57,57,56,1,,,,,
,,,,,,,$5ebb228e21254f0fac2504d0,2020-07-20_14h34.31.257,fisher_task,2020.1.3,Win32,60,-0.15462963,-0.385185185,1,0,0,9.54461,scale,,,,,,0.21373507,0.173205081,0.326485712,0.264575131,stimuli/lakes/3080109_left.png,stimuli/lakes/3080109_right.png,,,,0,58,58,109,1,,,,,
,,,,,,,$5ebb228e21254f0fac2504d0,2020-07-20_14h34.31.257,fisher_task,2020.1.3,Win32,60,0.151851852,-0.399074074,1,0,0,3.511735,scale,,,,,,0.326485712,0.264575131,0.21373507,0.173205081,stimuli/lakes/704047_left.png,stimuli/lakes/704047_right.png,,,,0,59,59,47,1,,,,,
,,,,,,,$5ebb228e21254f0fac2504d0,2020-07-20_14h34.31.257,fisher_task,2020.1.3,Win32,60,-0.141666667,-0.405555556,1,0,0,1.38416,scale,,,,,,0.302267034,0.244948974,0.2468,0.2,stimuli/lakes/6090127_left.png,stimuli/lakes/6090127_right.png,,,,0,60,60,127,1,,,,,
,,,,,,,$5ebb228e21254f0fac2504d0,2020-07-20_14h34.31.257,fisher_task,2020.1.3,Win32,60,0.168518519,-0.422222222,1,0,0,1.31097,scale,,,,,,0.275930788,0.223606798,0.275930788,0.223606798,stimuli/lakes/503036_left.png,stimuli/lakes/503036_right.png,,,,0,61,61,36,1,,,,,
,,,,,,,$5ebb228e21254f0fac2504d0,2020-07-20_14h34.31.257,fisher_task,2020.1.3,Win32,60,-0.162962963,-0.407407407,1,0,0,1.41684,scale,,,,,,0.275930788,0.223606798,0.275930788,0.223606798,stimuli/lakes/5070102_left.png,stimuli/lakes/5070102_right.png,,,,0,62,62,102,1,,,,,
,,,,,,,$5ebb228e21254f0fac2504d0,2020-07-20_14h34.31.257,fisher_task,2020.1.3,Win32,60,-0.165740741,-0.401851852,1,0,0,1.599945,scale,,,,,,0.349027907,0.282842712,0.174513954,0.141421356,stimuli/lakes/8070105_left.png,stimuli/lakes/8070105_right.png,,,,0,63,63,105,1,,,,,
,,,,,,,$5ebb228e21254f0fac2504d0,2020-07-20_14h34.31.257,fisher_task,2020.1.3,Win32,60,0.15462963,-0.411111111,1,0,0,2.79447,scale,,,,,,0.21373507,0.173205081,0.326485712,0.264575131,stimuli/lakes/30100_left.png,stimuli/lakes/30100_right.png,,,,0,64,64,0,1,,,,,
,,,,,,,$5ebb228e21254f0fac2504d0,2020-07-20_14h34.31.257,fisher_task,2020.1.3,Win32,60,-0.139814815,-0.402777778,1,0,0,1.38402,scale,,,,,,0.302267034,0.244948974,0.2468,0.2,stimuli/lakes/607094_left.png,stimuli/lakes/607094_right.png,,,,0,65,65,94,1,,,,,
,,,,,,,$5ebb228e21254f0fac2504d0,2020-07-20_14h34.31.257,fisher_task,2020.1.3,Win32,60,-0.122222222,-0.414814815,1,0,0,2.58338,scale,,,,,,0.1234,0.1,0.3702,0.3,stimuli/lakes/106080_left.png,stimuli/lakes/106080_right.png,,,space,0,66,66,80,1,1.819485,,,,
,,,,,,,$5ebb228e21254f0fac2504d0,2020-07-20_14h34.31.257,fisher_task,2020.1.3,Win32,60,-0.148148148,-0.418518519,1,0,0,1.98284,scale,,,,,,0.326485712,0.264575131,0.21373507,0.173205081,stimuli/lakes/706086_left.png,stimuli/lakes/706086_right.png,,,,0,67,67,86,1,,,,,
,,,,,,,$5ebb228e21254f0fac2504d0,2020-07-20_14h34.31.257,fisher_task,2020.1.3,Win32,60,-0.176851852,-0.423148148,1,0,0,1.266705,scale,,,,,,0.302267034,0.244948974,0.2468,0.2,stimuli/lakes/606076_left.png,stimuli/lakes/606076_right.png,,,,0,68,68,76,1,,,,,
,,,,,,,$5ebb228e21254f0fac2504d0,2020-07-20_14h34.31.257,fisher_task,2020.1.3,Win32,60,0.176851852,-0.431481481,1,0,0,1.283825,scale,,,,,,0.21373507,0.173205081,0.326485712,0.264575131,stimuli/lakes/303034_left.png,stimuli/lakes/303034_right.png,,,,0,69,69,34,1,,,,,
,,,,,,,$5ebb228e21254f0fac2504d0,2020-07-20_14h34.31.257,fisher_task,2020.1.3,Win32,60,0.160185185,-0.414814815,1,0,0,0.73334,scale,,,,,,0.1234,0.1,0.3702,0.3,stimuli/lakes/104041_left.png,stimuli/lakes/104041_right.png,,,,0,70,70,41,1,,,,,
,,,,,,,$5ebb228e21254f0fac2504d0,2020-07-20_14h34.31.257,fisher_task,2020.1.3,Win32,60,0.160185185,-0.414814815,1,0,0,0.48314,scale,,,,,,0.302267034,0.244948974,0.2468,0.2,stimuli/lakes/6070103_left.png,stimuli/lakes/6070103_right.png,,,,0,71,71,103,1,,,,,
,,,,,,,$5ebb228e21254f0fac2504d0,2020-07-20_14h34.31.257,fisher_task,2020.1.3,Win32,60,0.159259259,-0.416666667,1,0,0,0.266945,scale,,,,,,0.275930788,0.223606798,0.275930788,0.223606798,stimuli/lakes/506075_left.png,stimuli/lakes/506075_right.png,,,,0,72,72,75,1,,,,,
,,,,,,,$5ebb228e21254f0fac2504d0,2020-07-20_14h34.31.257,fisher_task,2020.1.3,Win32,60,0.159259259,-0.416666667,1,0,0,0.03502,scale,,,,,,0.21373507,0.173205081,0.326485712,0.264575131,stimuli/lakes/3090121_left.png,stimuli/lakes/3090121_right.png,,,,0,73,73,121,1,,,,,
,,,,,,,$5ebb228e21254f0fac2504d0,2020-07-20_14h34.31.257,fisher_task,2020.1.3,Win32,60,0.159259259,-0.416666667,1,0,0,0.03475,scale,,,,,,0.326485712,0.264575131,0.21373507,0.173205081,stimuli/lakes/7070104_left.png,stimuli/lakes/7070104_right.png,,,,0,74,74,104,1,,,,,
,,,,,,,$5ebb228e21254f0fac2504d0,2020-07-20_14h34.31.257,fisher_task,2020.1.3,Win32,60,0.159259259,-0.416666667,1,0,0,0.033845,scale,,,,,,0.349027907,0.282842712,0.174513954,0.141421356,stimuli/lakes/804048_left.png,stimuli/lakes/804048_right.png,,,,0,75,75,48,1,,,,,
,,,,,,,$5ebb228e21254f0fac2504d0,2020-07-20_14h34.31.257,fisher_task,2020.1.3,Win32,60,0.159259259,-0.416666667,1,0,0,0.0988,scale,,,,,,0.326485712,0.264575131,0.21373507,0.173205081,stimuli/lakes/7080117_left.png,stimuli/lakes/7080117_right.png,,,,0,76,76,117,1,,,,,
,,,,,,,$5ebb228e21254f0fac2504d0,2020-07-20_14h34.31.257,fisher_task,2020.1.3,Win32,60,0.159259259,-0.416666667,1,0,0,0.03522,scale,,,,,,0.21373507,0.173205081,0.326485712,0.264575131,stimuli/lakes/3090122_left.png,stimuli/lakes/3090122_right.png,,,,0,77,77,122,1,,,,,
,,,,,,,$5ebb228e21254f0fac2504d0,2020-07-20_14h34.31.257,fisher_task,2020.1.3,Win32,60,0.159259259,-0.416666667,1,0,0,0.03491,scale,,,,,,0.3702,0.3,0.1234,0.1,stimuli/lakes/904049_left.png,stimuli/lakes/904049_right.png,,,,0,78,78,49,1,,,,,
,,,,,,,$5ebb228e21254f0fac2504d0,2020-07-20_14h34.31.257,fisher_task,2020.1.3,Win32,60,0.159259259,-0.416666667,1,0,0,0.13314,scale,,,,,,0.3702,0.3,0.1234,0.1,stimuli/lakes/902022_left.png,stimuli/lakes/902022_right.png,,,,0,79,79,22,1,,,,,
,,,,,,,$5ebb228e21254f0fac2504d0,2020-07-20_14h34.31.257,fisher_task,2020.1.3,Win32,60,0.159259259,-0.416666667,1,0,0,0.03438,scale,,,,,,0.21373507,0.173205081,0.326485712,0.264575131,stimuli/lakes/302012_left.png,stimuli/lakes/302012_right.png,,,,0,80,80,12,1,,,,,
,,,,,,,$5ebb228e21254f0fac2504d0,2020-07-20_14h34.31.257,fisher_task,2020.1.3,Win32,60,0.159259259,-0.416666667,1,0,0,0.146675,scale,,,,,,0.275930788,0.223606798,0.275930788,0.223606798,stimuli/lakes/5090125_left.png,stimuli/lakes/5090125_right.png,,,,0,81,81,125,1,,,,,
,,,,,,,$5ebb228e21254f0fac2504d0,2020-07-20_14h34.31.257,fisher_task,2020.1.3,Win32,60,0.159259259,-0.416666667,1,0,0,0.03347,scale,,,,,,0.275930788,0.223606798,0.275930788,0.223606798,stimuli/lakes/503027_left.png,stimuli/lakes/503027_right.png,,,,0,82,82,27,1,,,,,
,,,,,,,$5ebb228e21254f0fac2504d0,2020-07-20_14h34.31.257,fisher_task,2020.1.3,Win32,60,0.159259259,-0.416666667,1,0,0,0.034775,scale,,,,,,0.302267034,0.244948974,0.2468,0.2,stimuli/lakes/604055_left.png,stimuli/lakes/604055_right.png,,,,0,83,83,55,1,,,,,
,,,,,,,$5ebb228e21254f0fac2504d0,2020-07-20_14h34.31.257,fisher_task,2020.1.3,Win32,60,0.159259259,-0.416666667,1,0,0,0.13266,scale,,,,,,0.21373507,0.173205081,0.326485712,0.264575131,stimuli/lakes/304043_left.png,stimuli/lakes/304043_right.png,,,,0,84,84,43,1,,,,,
,,,,,,,$5ebb228e21254f0fac2504d0,2020-07-20_14h34.31.257,fisher_task,2020.1.3,Win32,60,0.159259259,-0.416666667,1,0,0,0.03406,scale,,,,,,0.302267034,0.244948974,0.2468,0.2,stimuli/lakes/602018_left.png,stimuli/lakes/602018_right.png,,,,0,85,85,18,1,,,,,
,,,,,,,$5ebb228e21254f0fac2504d0,2020-07-20_14h34.31.257,fisher_task,2020.1.3,Win32,60,0.159259259,-0.416666667,1,0,0,0.047435,scale,,,,,,0.2468,0.2,0.302267034,0.244948974,stimuli/lakes/40103_left.png,stimuli/lakes/40103_right.png,,,,0,86,86,3,1,,,,,
,,,,,,,$5ebb228e21254f0fac2504d0,2020-07-20_14h34.31.257,fisher_task,2020.1.3,Win32,60,0.159259259,-0.416666667,1,0,0,0.017205,scale,,,,,,0.349027907,0.282842712,0.174513954,0.141421356,stimuli/lakes/806087_left.png,stimuli/lakes/806087_right.png,,,,0,87,87,87,1,,,,,
,,,,,,,$5ebb228e21254f0fac2504d0,2020-07-20_14h34.31.257,fisher_task,2020.1.3,Win32,60,0.159259259,-0.416666667,1,0,0,0.01665,scale,,,,,,0.2468,0.2,0.302267034,0.244948974,stimuli/lakes/402015_left.png,stimuli/lakes/402015_right.png,,,space,0,88,88,15,1,1.30143,,,,
,,,,,,,$5ebb228e21254f0fac2504d0,2020-07-20_14h34.31.257,fisher_task,2020.1.3,Win32,60,0.159259259,-0.416666667,1,0,0,0.03443,scale,,,,,,0.275930788,0.223606798,0.275930788,0.223606798,stimuli/lakes/506084_left.png,stimuli/lakes/506084_right.png,,,,0,89,89,84,1,,,,,
,,,,,,,$5ebb228e21254f0fac2504d0,2020-07-20_14h34.31.257,fisher_task,2020.1.3,Win32,60,0.159259259,-0.416666667,1,0,0,0.017705,scale,,,,,,0.349027907,0.282842712,0.174513954,0.141421356,stimuli/lakes/80109_left.png,stimuli/lakes/80109_right.png,,,,0,90,90,9,1,,,,,
,,,,,,,$5ebb228e21254f0fac2504d0,2020-07-20_14h34.31.257,fisher_task,2020.1.3,Win32,60,0.161111111,-0.42037037,1,0,0,0.017,scale,,,,,,0.275930788,0.223606798,0.275930788,0.223606798,stimuli/lakes/507093_left.png,stimuli/lakes/507093_right.png,,,,0,91,91,93,1,,,,,
,,,,,,,$5ebb228e21254f0fac2504d0,2020-07-20_14h34.31.257,fisher_task,2020.1.3,Win32,60,0.143518519,-0.415740741,1,0,0,3.033555,scale,,,,,,0.3702,0.3,0.1234,0.1,stimuli/lakes/901010_left.png,stimuli/lakes/901010_right.png,,,,0,92,92,10,1,,,,,
,,,,,,,$5ebb228e21254f0fac2504d0,2020-07-20_14h34.31.257,fisher_task,2020.1.3,Win32,60,0.150925926,-0.412962963,1,0,0,0.01727,scale,,,,,,0.1234,0.1,0.3702,0.3,stimuli/lakes/1090119_left.png,stimuli/lakes/1090119_right.png,,,,0,93,93,119,1,,,,,
,,,,,,,$5ebb228e21254f0fac2504d0,2020-07-20_14h34.31.257,fisher_task,2020.1.3,Win32,60,0.150925926,-0.412962963,1,0,0,0.03473,scale,,,,,,0.302267034,0.244948974,0.2468,0.2,stimuli/lakes/6090126_left.png,stimuli/lakes/6090126_right.png,,,,0,94,94,126,1,,,,,
,,,,,,,$5ebb228e21254f0fac2504d0,2020-07-20_14h34.31.257,fisher_task,2020.1.3,Win32,60,0.150925926,-0.412962963,1,0,0,0.01802,scale,,,,,,0.349027907,0.282842712,0.174513954,0.141421356,stimuli/lakes/805069_left.png,stimuli/lakes/805069_right.png,,,,0,95,95,69,1,,,,,
,,,,,,,$5ebb228e21254f0fac2504d0,2020-07-20_14h34.31.257,fisher_task,2020.1.3,Win32,60,0.150925926,-0.412962963,1,0,0,0.016715,scale,,,,,,0.349027907,0.282842712,0.174513954,0.141421356,stimuli/lakes/806078_left.png,stimuli/lakes/806078_right.png,,,,0,96,96,78,1,,,,,
,,,,,,,$5ebb228e21254f0fac2504d0,2020-07-20_14h34.31.257,fisher_task,2020.1.3,Win32,60,0.150925926,-0.412962963,1,0,0,0.244585,scale,,,,,,0.326485712,0.264575131,0.21373507,0.173205081,stimuli/lakes/702020_left.png,stimuli/lakes/702020_right.png,,,,0,97,97,20,1,,,,,
,,,,,,,$5ebb228e21254f0fac2504d0,2020-07-20_14h34.31.257,fisher_task,2020.1.3,Win32,60,0.150925926,-0.412962963,1,0,0,0.148735,scale,,,,,,0.349027907,0.282842712,0.174513954,0.141421356,stimuli/lakes/803039_left.png,stimuli/lakes/803039_right.png,,,,0,98,98,39,1,,,,,
,,,,,,,$5ebb228e21254f0fac2504d0,2020-07-20_14h34.31.257,fisher_task,2020.1.3,Win32,60,0.150925926,-0.412962963,1,0,0,0.01697,scale,,,,,,0.3702,0.3,0.1234,0.1,stimuli/lakes/906088_left.png,stimuli/lakes/906088_right.png,,,,0,99,99,88,1,,,,,
,,,,,,,$5ebb228e21254f0fac2504d0,2020-07-20_14h34.31.257,fisher_task,2020.1.3,Win32,60,0.150925926,-0.412962963,1,0,0,0.1508,scale,,,,,,0.2468,0.2,0.302267034,0.244948974,stimuli/lakes/402014_left.png,stimuli/lakes/402014_right.png,,,,0,100,100,14,1,,,,,
,,,,,,,$5ebb228e21254f0fac2504d0,2020-07-20_14h34.31.257,fisher_task,2020.1.3,Win32,60,0.150925926,-0.412962963,1,0,0,0.034505,scale,,,,,,0.3702,0.3,0.1234,0.1,stimuli/lakes/905070_left.png,stimuli/lakes/905070_right.png,,,,0,101,101,70,1,,,,,
,,,,,,,$5ebb228e21254f0fac2504d0,2020-07-20_14h34.31.257,fisher_task,2020.1.3,Win32,60,0.150925926,-0.412962963,1,0,0,0.017655,scale,,,,,,0.302267034,0.244948974,0.2468,0.2,stimuli/lakes/606085_left.png,stimuli/lakes/606085_right.png,,,,0,102,102,85,1,,,,,
,,,,,,,$5ebb228e21254f0fac2504d0,2020-07-20_14h34.31.257,fisher_task,2020.1.3,Win32,60,0.150925926,-0.412962963,1,0,0,0.033585,scale,,,,,,0.2468,0.2,0.302267034,0.244948974,stimuli/lakes/4080111_left.png,stimuli/lakes/4080111_right.png,,,,0,103,103,111,1,,,,,
,,,,,,,$5ebb228e21254f0fac2504d0,2020-07-20_14h34.31.257,fisher_task,2020.1.3,Win32,60,0.150925926,-0.412962963,1,0,0,0.034305,scale,,,,,,0.174513954,0.141421356,0.349027907,0.282842712,stimuli/lakes/206072_left.png,stimuli/lakes/206072_right.png,,,,0,104,104,72,1,,,,,
,,,,,,,$5ebb228e21254f0fac2504d0,2020-07-20_14h34.31.257,fisher_task,2020.1.3,Win32,60,0.150925926,-0.412962963,1,0,0,0.01743,scale,,,,,,0.3702,0.3,0.1234,0.1,stimuli/lakes/903040_left.png,stimuli/lakes/903040_right.png,,,,0,105,105,40,1,,,,,
,,,,,,,$5ebb228e21254f0fac2504d0,2020-07-20_14h34.31.257,fisher_task,2020.1.3,Win32,60,0.150925926,-0.412962963,1,0,0,0.148955,scale,,,,,,0.174513954,0.141421356,0.349027907,0.282842712,stimuli/lakes/205060_left.png,stimuli/lakes/205060_right.png,,,,0,106,106,60,1,,,,,
,,,,,,,$5ebb228e21254f0fac2504d0,2020-07-20_14h34.31.257,fisher_task,2020.1.3,Win32,60,0.150925926,-0.412962963,1,0,0,0.01713,scale,,,,,,0.349027907,0.282842712,0.174513954,0.141421356,stimuli/lakes/804057_left.png,stimuli/lakes/804057_right.png,,,,0,107,107,57,1,,,,,
,,,,,,,$5ebb228e21254f0fac2504d0,2020-07-20_14h34.31.257,fisher_task,2020.1.3,Win32,60,0.150925926,-0.412962963,1,0,0,0.034785,scale,,,,,,0.21373507,0.173205081,0.326485712,0.264575131,stimuli/lakes/3070100_left.png,stimuli/lakes/3070100_right.png,,,,0,108,108,100,1,,,,,
,,,,,,,$5ebb228e21254f0fac2504d0,2020-07-20_14h34.31.257,fisher_task,2020.1.3,Win32,60,0.150925926,-0.412962963,1,0,0,0.13531,scale,,,,,,0.302267034,0.244948974,0.2468,0.2,stimuli/lakes/602017_left.png,stimuli/lakes/602017_right.png,,,,0,109,109,17,1,,,,,
,,,,,,,$5ebb228e21254f0fac2504d0,2020-07-20_14h34.31.257,fisher_task,2020.1.3,Win32,60,0.150925926,-0.412962963,1,0,0,0.08349,scale,,,,,,0.1234,0.1,0.3702,0.3,stimuli/lakes/107089_left.png,stimuli/lakes/107089_right.png,,,space,0,110,110,89,1,7.336585,,,,
,,,,,,,$5ebb228e21254f0fac2504d0,2020-07-20_14h34.31.257,fisher_task,2020.1.3,Win32,60,0.150925926,-0.412962963,1,0,0,0.033785,scale,,,,,,0.174513954,0.141421356,0.349027907,0.282842712,stimuli/lakes/204042_left.png,stimuli/lakes/204042_right.png,,,,0,111,111,42,1,,,,,
,,,,,,,$5ebb228e21254f0fac2504d0,2020-07-20_14h34.31.257,fisher_task,2020.1.3,Win32,60,-0.155555556,-0.403703704,1,0,0,0.350785,scale,,,,,,0.326485712,0.264575131,0.21373507,0.173205081,stimuli/lakes/70108_left.png,stimuli/lakes/70108_right.png,,,,0,112,112,8,1,,,,,
,,,,,,,$5ebb228e21254f0fac2504d0,2020-07-20_14h34.31.257,fisher_task,2020.1.3,Win32,60,-0.155555556,-0.405555556,1,0,0,0.100095,scale,,,,,,0.349027907,0.282842712,0.174513954,0.141421356,stimuli/lakes/803030_left.png,stimuli/lakes/803030_right.png,,,,0,113,113,30,1,,,,,
,,,,,,,$5ebb228e21254f0fac2504d0,2020-07-20_14h34.31.257,fisher_task,2020.1.3,Win32,60,-0.155555556,-0.405555556,1,0,0,0.01756,scale,,,,,,0.349027907,0.282842712,0.174513954,0.141421356,stimuli/lakes/802021_left.png,stimuli/lakes/802021_right.png,,,,0,114,114,21,1,,,,,
,,,,,,,$5ebb228e21254f0fac2504d0,2020-07-20_14h34.31.257,fisher_task,2020.1.3,Win32,60,-0.155555556,-0.405555556,1,0,0,0.034295,scale,,,,,,0.275930788,0.223606798,0.275930788,0.223606798,stimuli/lakes/504054_left.png,stimuli/lakes/504054_right.png,,,,0,115,115,54,1,,,,,
,,,,,,,$5ebb228e21254f0fac2504d0,2020-07-20_14h34.31.257,fisher_task,2020.1.3,Win32,60,-0.155555556,-0.405555556,1,0,0,0.161805,scale,,,,,,0.302267034,0.244948974,0.2468,0.2,stimuli/lakes/6080114_left.png,stimuli/lakes/6080114_right.png,,,,0,116,116,114,1,,,,,
,,,,,,,$5ebb228e21254f0fac2504d0,2020-07-20_14h34.31.257,fisher_task,2020.1.3,Win32,60,-0.155555556,-0.405555556,1,0,0,0.400195,scale,,,,,,0.21373507,0.173205081,0.326485712,0.264575131,stimuli/lakes/307091_left.png,stimuli/lakes/307091_right.png,,,,0,117,117,91,1,,,,,
,,,,,,,$5ebb228e21254f0fac2504d0,2020-07-20_14h34.31.257,fisher_task,2020.1.3,Win32,60,-0.155555556,-0.405555556,1,0,0,0.383885,scale,,,,,,0.302267034,0.244948974,0.2468,0.2,stimuli/lakes/60106_left.png,stimuli/lakes/60106_right.png,,,,0,118,118,6,1,,,,,
,,,,,,,$5ebb228e21254f0fac2504d0,2020-07-20_14h34.31.257,fisher_task,2020.1.3,Win32,60,-0.155555556,-0.405555556,1,0,0,0.033995,scale,,,,,,0.174513954,0.141421356,0.349027907,0.282842712,stimuli/lakes/207099_left.png,stimuli/lakes/207099_right.png,,,,0,119,119,99,1,,,,,
,,,,,,,$5ebb228e21254f0fac2504d0,2020-07-20_14h34.31.257,fisher_task,2020.1.3,Win32,60,-0.155555556,-0.405555556,1,0,0,0.01681,scale,,,,,,0.1234,0.1,0.3702,0.3,stimuli/lakes/103023_left.png,stimuli/lakes/103023_right.png,,,,0,120,120,23,1,,,,,
,,,,,,,$5ebb228e21254f0fac2504d0,2020-07-20_14h34.31.257,fisher_task,2020.1.3,Win32,60,0.309259259,0.085185185,1,0,0,0.16696,scale,,,,,,0.174513954,0.141421356,0.349027907,0.282842712,stimuli/lakes/203033_left.png,stimuli/lakes/203033_right.png,,,,0,121,121,33,1,,,,,
,,,,,,,$5ebb228e21254f0fac2504d0,2020-07-20_14h34.31.257,fisher_task,2020.1.3,Win32,60,0.134259259,-0.408333333,1,0,0,1.96669,scale,,,,,,0.326485712,0.264575131,0.21373507,0.173205081,stimuli/lakes/705068_left.png,stimuli/lakes/705068_right.png,,,,0,122,122,68,1,,,,,
,,,,,,,$5ebb228e21254f0fac2504d0,2020-07-20_14h34.31.257,fisher_task,2020.1.3,Win32,60,-0.143518519,-0.400925926,1,0,0,1.55529,scale,,,,,,0.174513954,0.141421356,0.349027907,0.282842712,stimuli/lakes/2080108_left.png,stimuli/lakes/2080108_right.png,,,,0,123,123,108,1,,,,,
,,,,,,,$5ebb228e21254f0fac2504d0,2020-07-20_14h34.31.257,fisher_task,2020.1.3,Win32,60,-0.142592593,-0.4,1,0,0,1.79937,scale,,,,,,0.326485712,0.264575131,0.21373507,0.173205081,stimuli/lakes/706077_left.png,stimuli/lakes/706077_right.png,,,,0,124,124,77,1,,,,,
,,,,,,,$5ebb228e21254f0fac2504d0,2020-07-20_14h34.31.257,fisher_task,2020.1.3,Win32,60,0.156481481,-0.418518519,1,0,0,1.765215,scale,,,,,,0.21373507,0.173205081,0.326485712,0.264575131,stimuli/lakes/304052_left.png,stimuli/lakes/304052_right.png,,,,0,125,125,52,1,,,,,
,,,,,,,$5ebb228e21254f0fac2504d0,2020-07-20_14h34.31.257,fisher_task,2020.1.3,Win32,60,-0.177777778,-0.407407407,1,0,0,1.41738,scale,,,,,,0.1234,0.1,0.3702,0.3,stimuli/lakes/107098_left.png,stimuli/lakes/107098_right.png,,,,0,126,126,98,1,,,,,
,,,,,,,$5ebb228e21254f0fac2504d0,2020-07-20_14h34.31.257,fisher_task,2020.1.3,Win32,60,0.162037037,-0.418518519,1,0,0,1.10034,scale,,,,,,0.174513954,0.141421356,0.349027907,0.282842712,stimuli/lakes/203024_left.png,stimuli/lakes/203024_right.png,,,,0,127,127,24,1,,,,,
,,,,,,,$5ebb228e21254f0fac2504d0,2020-07-20_14h34.31.257,fisher_task,2020.1.3,Win32,60,-0.166666667,-0.405555556,1,0,0,1.33385,scale,,,,,,0.326485712,0.264575131,0.21373507,0.173205081,stimuli/lakes/7090129_left.png,stimuli/lakes/7090129_right.png,,,,0,128,128,129,1,,,,,
,,,,,,,$5ebb228e21254f0fac2504d0,2020-07-20_14h34.31.257,fisher_task,2020.1.3,Win32,60,0.186111111,-0.42962963,1,0,0,2.083495,scale,,,,,,0.2468,0.2,0.302267034,0.244948974,stimuli/lakes/405064_left.png,stimuli/lakes/405064_right.png,,,,0,129,129,64,1,,,,,
,,,,,,,$5ebb228e21254f0fac2504d0,2020-07-20_14h34.31.257,fisher_task,2020.1.3,Win32,60,,,,,,,,,,,,,,,,,,,,,,,,,,,,space,4.452355,space,4.23058
