keySpace.keys,instructions.thisRepN,instructions.thisTrialN,instructions.thisN,instructions.thisIndex,instructions.ran,participant,date,expName,psychopyVersion,OS,frameRate,mouse.x,mouse.y,mouse.leftButton,mouse.midButton,mouse.rightButton,mouse.time,mouse.clicked_name,training.thisRepN,training.thisTrialN,training.thisN,training.thisIndex,training.ran,widthBasketLeft,heightBasketLeft,widthBasketRight,heightBasketRight,leftLake,rightLake,space2.keys,space2.rt,space1.keys,trials.thisRepN,trials.thisTrialN,trials.thisN,trials.thisIndex,trials.ran,space1.rt,finalSpace1.keys,finalSpace1.rt,finalSpace2.keys,finalSpace2.rt
,0,0,0,0,1,$5edacd962514f672908c9e3b,2020-07-20_15h39.43.477,fisher_task,2020.1.3,Win32,60,,,,,,,,,,,,,,,,,,,,,,,,,,,,,,,
,,,,,,$5edacd962514f672908c9e3b,2020-07-20_15h39.43.477,fisher_task,2020.1.3,Win32,60,0.17962963,-0.419444444,1,0,0,6.84006,scale,0,0,0,0,1,0.275930788,0.223606798,0.275930788,0.223606798,stimuli/training/20_left.png,stimuli/training/20_right.png,,,,,,,,,,,,,
,,,,,,$5edacd962514f672908c9e3b,2020-07-20_15h39.43.477,fisher_task,2020.1.3,Win32,60,-0.163888889,-0.425925926,1,0,0,1.853175,scale,0,1,1,1,1,0.275930788,0.223606798,0.275930788,0.223606798,stimuli/training/80_left.png,stimuli/training/80_right.png,,,,,,,,,,,,,
,,,,,,$5edacd962514f672908c9e3b,2020-07-20_15h39.43.477,fisher_task,2020.1.3,Win32,60,0.123148148,-0.342592593,1,0,0,2.54152,scale,0,2,2,2,1,0.174513954,0.141421356,0.349027907,0.282842712,stimuli/training/50_left.png,stimuli/training/50_right.png,,,,,,,,,,,,,
,,,,,,$5edacd962514f672908c9e3b,2020-07-20_15h39.43.477,fisher_task,2020.1.3,Win32,60,-0.158333333,-0.430555556,1,0,0,2.51399,scale,0,3,3,3,1,0.349027907,0.282842712,0.174513954,0.141421356,stimuli/training/50_left.png,stimuli/training/50_right.png,,,,,,,,,,,,,
,,,,,,$5edacd962514f672908c9e3b,2020-07-20_15h39.43.477,fisher_task,2020.1.3,Win32,60,0.000925926,-0.242592593,1,0,0,2.70111,scale,0,4,4,4,1,0.275930788,0.223606798,0.275930788,0.223606798,stimuli/training/50_left.png,stimuli/training/50_right.png,,,,,,,,,,,,,
,,,,,,$5edacd962514f672908c9e3b,2020-07-20_15h39.43.477,fisher_task,2020.1.3,Win32,60,0.171296296,-0.433333333,1,0,0,1.48651,scale,0,5,5,5,1,0.174513954,0.141421356,0.349027907,0.282842712,stimuli/training/20_left.png,stimuli/training/20_right.png,,,,,,,,,,,,,
,,,,,,$5edacd962514f672908c9e3b,2020-07-20_15h39.43.477,fisher_task,2020.1.3,Win32,60,-0.161111111,-0.433333333,1,0,0,1.34007,scale,0,6,6,6,1,0.349027907,0.282842712,0.174513954,0.141421356,stimuli/training/80_left.png,stimuli/training/80_right.png,,,,,,,,,,,,,
,,,,,,$5edacd962514f672908c9e3b,2020-07-20_15h39.43.477,fisher_task,2020.1.3,Win32,60,0.150925926,-0.436111111,1,0,0,1.22856,scale,0,7,7,7,1,0.1234,0.1,0.3702,0.3,stimuli/training/30_left.png,stimuli/training/30_right.png,,,,,,,,,,,,,
,,,,,,$5edacd962514f672908c9e3b,2020-07-20_15h39.43.477,fisher_task,2020.1.3,Win32,60,-0.153703704,-0.427777778,1,0,0,1.624865,scale,0,8,8,8,1,0.3702,0.3,0.1234,0.1,stimuli/training/70_left.png,stimuli/training/70_right.png,,,,,,,,,,,,,
,,,,,,$5edacd962514f672908c9e3b,2020-07-20_15h39.43.477,fisher_task,2020.1.3,Win32,60,-0.15,-0.436111111,1,0,0,1.083715,scale,0,9,9,9,1,0.326485712,0.264575131,0.21373507,0.173205081,stimuli/training/90_left.png,stimuli/training/90_right.png,,,,,,,,,,,,,
,,,,,,$5edacd962514f672908c9e3b,2020-07-20_15h39.43.477,fisher_task,2020.1.3,Win32,60,0.168518519,-0.430555556,1,0,0,1.13887,scale,0,10,10,10,1,0.21373507,0.173205081,0.326485712,0.264575131,stimuli/training/10_left.png,stimuli/training/10_right.png,,,,,,,,,,,,,
,,,,,,$5edacd962514f672908c9e3b,2020-07-20_15h39.43.477,fisher_task,2020.1.3,Win32,60,-0.168518519,-0.42962963,1,0,0,1.87462,scale,,,,,,0.302267034,0.244948974,0.2468,0.2,stimuli/lakes/6070103_left.png,stimuli/lakes/6070103_right.png,space,8.027715,,0,0,0,103,1,,,,,
,,,,,,$5edacd962514f672908c9e3b,2020-07-20_15h39.43.477,fisher_task,2020.1.3,Win32,60,-0.156481481,-0.422222222,1,0,0,1.375035,scale,,,,,,0.275930788,0.223606798,0.275930788,0.223606798,stimuli/lakes/507093_left.png,stimuli/lakes/507093_right.png,,,,0,1,1,93,1,,,,,
,,,,,,$5edacd962514f672908c9e3b,2020-07-20_15h39.43.477,fisher_task,2020.1.3,Win32,60,0.137037037,-0.351851852,1,0,0,2.0415,scale,,,,,,0.1234,0.1,0.3702,0.3,stimuli/lakes/105059_left.png,stimuli/lakes/105059_right.png,,,,0,2,2,59,1,,,,,
,,,,,,$5edacd962514f672908c9e3b,2020-07-20_15h39.43.477,fisher_task,2020.1.3,Win32,60,0.164814815,-0.431481481,1,0,0,1.70129,scale,,,,,,0.1234,0.1,0.3702,0.3,stimuli/lakes/103023_left.png,stimuli/lakes/103023_right.png,,,,0,3,3,23,1,,,,,
,,,,,,$5edacd962514f672908c9e3b,2020-07-20_15h39.43.477,fisher_task,2020.1.3,Win32,60,-0.138888889,-0.322222222,1,0,0,3.54224,scale,,,,,,0.174513954,0.141421356,0.349027907,0.282842712,stimuli/lakes/207090_left.png,stimuli/lakes/207090_right.png,,,,0,4,4,90,1,,,,,
,,,,,,$5edacd962514f672908c9e3b,2020-07-20_15h39.43.477,fisher_task,2020.1.3,Win32,60,0.130555556,-0.319444444,1,0,0,1.374785,scale,,,,,,0.275930788,0.223606798,0.275930788,0.223606798,stimuli/lakes/503036_left.png,stimuli/lakes/503036_right.png,,,,0,5,5,36,1,,,,,
,,,,,,$5edacd962514f672908c9e3b,2020-07-20_15h39.43.477,fisher_task,2020.1.3,Win32,60,0.17962963,-0.421296296,1,0,0,1.395535,scale,,,,,,0.1234,0.1,0.3702,0.3,stimuli/lakes/104050_left.png,stimuli/lakes/104050_right.png,,,,0,6,6,50,1,,,,,
,,,,,,$5edacd962514f672908c9e3b,2020-07-20_15h39.43.477,fisher_task,2020.1.3,Win32,60,-0.175,-0.434259259,1,0,0,1.9721,scale,,,,,,0.302267034,0.244948974,0.2468,0.2,stimuli/lakes/6090127_left.png,stimuli/lakes/6090127_right.png,,,,0,7,7,127,1,,,,,
,,,,,,$5edacd962514f672908c9e3b,2020-07-20_15h39.43.477,fisher_task,2020.1.3,Win32,60,0.165740741,-0.427777778,1,0,0,1.631985,scale,,,,,,0.326485712,0.264575131,0.21373507,0.173205081,stimuli/lakes/70108_left.png,stimuli/lakes/70108_right.png,,,,0,8,8,8,1,,,,,
,,,,,,$5edacd962514f672908c9e3b,2020-07-20_15h39.43.477,fisher_task,2020.1.3,Win32,60,-0.147222222,-0.42037037,1,0,0,1.30552,scale,,,,,,0.302267034,0.244948974,0.2468,0.2,stimuli/lakes/606085_left.png,stimuli/lakes/606085_right.png,,,,0,9,9,85,1,,,,,
,,,,,,$5edacd962514f672908c9e3b,2020-07-20_15h39.43.477,fisher_task,2020.1.3,Win32,60,0.163888889,-0.430555556,1,0,0,1.15953,scale,,,,,,0.326485712,0.264575131,0.21373507,0.173205081,stimuli/lakes/702019_left.png,stimuli/lakes/702019_right.png,,,,0,10,10,19,1,,,,,
,,,,,,$5edacd962514f672908c9e3b,2020-07-20_15h39.43.477,fisher_task,2020.1.3,Win32,60,0.163888889,-0.431481481,1,0,0,0.99987,scale,,,,,,0.326485712,0.264575131,0.21373507,0.173205081,stimuli/lakes/703038_left.png,stimuli/lakes/703038_right.png,,,,0,11,11,38,1,,,,,
,,,,,,$5edacd962514f672908c9e3b,2020-07-20_15h39.43.477,fisher_task,2020.1.3,Win32,60,0.160185185,-0.430555556,1,0,0,0.951325,scale,,,,,,0.2468,0.2,0.302267034,0.244948974,stimuli/lakes/404044_left.png,stimuli/lakes/404044_right.png,,,,0,12,12,44,1,,,,,
,,,,,,$5edacd962514f672908c9e3b,2020-07-20_15h39.43.477,fisher_task,2020.1.3,Win32,60,-0.016666667,-0.25462963,1,0,0,1.382295,scale,,,,,,0.21373507,0.173205081,0.326485712,0.264575131,stimuli/lakes/307091_left.png,stimuli/lakes/307091_right.png,,,,0,13,13,91,1,,,,,
,,,,,,$5edacd962514f672908c9e3b,2020-07-20_15h39.43.477,fisher_task,2020.1.3,Win32,60,0.114814815,-0.315740741,1,0,0,0.958105,scale,,,,,,0.275930788,0.223606798,0.275930788,0.223606798,stimuli/lakes/504054_left.png,stimuli/lakes/504054_right.png,,,,0,14,14,54,1,,,,,
,,,,,,$5edacd962514f672908c9e3b,2020-07-20_15h39.43.477,fisher_task,2020.1.3,Win32,60,-0.162037037,-0.434259259,1,0,0,1.20841,scale,,,,,,0.21373507,0.173205081,0.326485712,0.264575131,stimuli/lakes/3090121_left.png,stimuli/lakes/3090121_right.png,,,,0,15,15,121,1,,,,,
,,,,,,$5edacd962514f672908c9e3b,2020-07-20_15h39.43.477,fisher_task,2020.1.3,Win32,60,-0.168518519,-0.437037037,1,0,0,1.076335,scale,,,,,,0.2468,0.2,0.302267034,0.244948974,stimuli/lakes/4080112_left.png,stimuli/lakes/4080112_right.png,,,,0,16,16,112,1,,,,,
,,,,,,$5edacd962514f672908c9e3b,2020-07-20_15h39.43.477,fisher_task,2020.1.3,Win32,60,0.176851852,-0.434259259,1,0,0,1.04155,scale,,,,,,0.21373507,0.173205081,0.326485712,0.264575131,stimuli/lakes/30100_left.png,stimuli/lakes/30100_right.png,,,,0,17,17,0,1,,,,,
,,,,,,$5edacd962514f672908c9e3b,2020-07-20_15h39.43.477,fisher_task,2020.1.3,Win32,60,-0.176851852,-0.42962963,1,0,0,1.090275,scale,,,,,,0.326485712,0.264575131,0.21373507,0.173205081,stimuli/lakes/707095_left.png,stimuli/lakes/707095_right.png,,,,0,18,18,95,1,,,,,
,,,,,,$5edacd962514f672908c9e3b,2020-07-20_15h39.43.477,fisher_task,2020.1.3,Win32,60,0.153703704,-0.316666667,1,0,0,2.31908,scale,,,,,,0.3702,0.3,0.1234,0.1,stimuli/lakes/903031_left.png,stimuli/lakes/903031_right.png,,,,0,19,19,31,1,,,,,
,,,,,,$5edacd962514f672908c9e3b,2020-07-20_15h39.43.477,fisher_task,2020.1.3,Win32,60,0.002777778,-0.244444444,1,0,0,2.10401,scale,,,,,,0.21373507,0.173205081,0.326485712,0.264575131,stimuli/lakes/305061_left.png,stimuli/lakes/305061_right.png,,,,0,20,20,61,1,,,,,
,,,,,,$5edacd962514f672908c9e3b,2020-07-20_15h39.43.477,fisher_task,2020.1.3,Win32,60,0.136111111,-0.319444444,1,0,0,3.29858,scale,,,,,,0.2468,0.2,0.302267034,0.244948974,stimuli/lakes/406083_left.png,stimuli/lakes/406083_right.png,,,,0,21,21,83,1,,,,,
,,,,,,$5edacd962514f672908c9e3b,2020-07-20_15h39.43.477,fisher_task,2020.1.3,Win32,60,-0.163888889,-0.433333333,1,0,0,1.055115,scale,,,,,,0.326485712,0.264575131,0.21373507,0.173205081,stimuli/lakes/7080117_left.png,stimuli/lakes/7080117_right.png,,,space,0,22,22,117,1,4.774125,,,,
,,,,,,$5edacd962514f672908c9e3b,2020-07-20_15h39.43.477,fisher_task,2020.1.3,Win32,60,-0.118518519,-0.337962963,1,0,0,1.993025,scale,,,,,,0.1234,0.1,0.3702,0.3,stimuli/lakes/1090119_left.png,stimuli/lakes/1090119_right.png,,,,0,23,23,119,1,,,,,
,,,,,,$5edacd962514f672908c9e3b,2020-07-20_15h39.43.477,fisher_task,2020.1.3,Win32,60,-0.12037037,-0.338888889,1,0,0,1.298315,scale,,,,,,0.302267034,0.244948974,0.2468,0.2,stimuli/lakes/605065_left.png,stimuli/lakes/605065_right.png,,,,0,24,24,65,1,,,,,
,,,,,,$5edacd962514f672908c9e3b,2020-07-20_15h39.43.477,fisher_task,2020.1.3,Win32,60,-0.162962963,-0.427777778,1,0,0,1.041685,scale,,,,,,0.275930788,0.223606798,0.275930788,0.223606798,stimuli/lakes/5080113_left.png,stimuli/lakes/5080113_right.png,,,,0,25,25,113,1,,,,,
,,,,,,$5edacd962514f672908c9e3b,2020-07-20_15h39.43.477,fisher_task,2020.1.3,Win32,60,0.167592593,-0.433333333,1,0,0,0.659465,scale,,,,,,0.174513954,0.141421356,0.349027907,0.282842712,stimuli/lakes/203033_left.png,stimuli/lakes/203033_right.png,,,,0,26,26,33,1,,,,,
,,,,,,$5edacd962514f672908c9e3b,2020-07-20_15h39.43.477,fisher_task,2020.1.3,Win32,60,0.180555556,-0.433333333,1,0,0,0.6385,scale,,,,,,0.1234,0.1,0.3702,0.3,stimuli/lakes/104041_left.png,stimuli/lakes/104041_right.png,,,,0,27,27,41,1,,,,,
,,,,,,$5edacd962514f672908c9e3b,2020-07-20_15h39.43.477,fisher_task,2020.1.3,Win32,60,0.149074074,-0.331481481,1,0,0,1.24297,scale,,,,,,0.21373507,0.173205081,0.326485712,0.264575131,stimuli/lakes/305062_left.png,stimuli/lakes/305062_right.png,,,,0,28,28,62,1,,,,,
,,,,,,$5edacd962514f672908c9e3b,2020-07-20_15h39.43.477,fisher_task,2020.1.3,Win32,60,0.155555556,-0.432407407,1,0,0,1.25008,scale,,,,,,0.21373507,0.173205081,0.326485712,0.264575131,stimuli/lakes/302012_left.png,stimuli/lakes/302012_right.png,,,,0,29,29,12,1,,,,,
,,,,,,$5edacd962514f672908c9e3b,2020-07-20_15h39.43.477,fisher_task,2020.1.3,Win32,60,0.130555556,-0.307407407,1,0,0,1.13213,scale,,,,,,0.326485712,0.264575131,0.21373507,0.173205081,stimuli/lakes/702020_left.png,stimuli/lakes/702020_right.png,,,,0,30,30,20,1,,,,,
,,,,,,$5edacd962514f672908c9e3b,2020-07-20_15h39.43.477,fisher_task,2020.1.3,Win32,60,-0.141666667,-0.307407407,1,0,0,1.243,scale,,,,,,0.2468,0.2,0.302267034,0.244948974,stimuli/lakes/4090124_left.png,stimuli/lakes/4090124_right.png,,,,0,31,31,124,1,,,,,
,,,,,,$5edacd962514f672908c9e3b,2020-07-20_15h39.43.477,fisher_task,2020.1.3,Win32,60,0.117592593,-0.313888889,1,0,0,0.95843,scale,,,,,,0.302267034,0.244948974,0.2468,0.2,stimuli/lakes/60105_left.png,stimuli/lakes/60105_right.png,,,,0,32,32,5,1,,,,,
,,,,,,$5edacd962514f672908c9e3b,2020-07-20_15h39.43.477,fisher_task,2020.1.3,Win32,60,-0.147222222,-0.32037037,1,0,0,0.84034,scale,,,,,,0.1234,0.1,0.3702,0.3,stimuli/lakes/106080_left.png,stimuli/lakes/106080_right.png,,,,0,33,33,80,1,,,,,
,,,,,,$5edacd962514f672908c9e3b,2020-07-20_15h39.43.477,fisher_task,2020.1.3,Win32,60,0.166666667,-0.303703704,1,0,0,1.48588,scale,,,,,,0.21373507,0.173205081,0.326485712,0.264575131,stimuli/lakes/306082_left.png,stimuli/lakes/306082_right.png,,,,0,34,34,82,1,,,,,
,,,,,,$5edacd962514f672908c9e3b,2020-07-20_15h39.43.477,fisher_task,2020.1.3,Win32,60,0.15,-0.323148148,1,0,0,1.978855,scale,,,,,,0.349027907,0.282842712,0.174513954,0.141421356,stimuli/lakes/803039_left.png,stimuli/lakes/803039_right.png,,,,0,35,35,39,1,,,,,
,,,,,,$5edacd962514f672908c9e3b,2020-07-20_15h39.43.477,fisher_task,2020.1.3,Win32,60,0.14537037,-0.421296296,1,0,0,1.068805,scale,,,,,,0.2468,0.2,0.302267034,0.244948974,stimuli/lakes/40102_left.png,stimuli/lakes/40102_right.png,,,,0,36,36,2,1,,,,,
,,,,,,$5edacd962514f672908c9e3b,2020-07-20_15h39.43.477,fisher_task,2020.1.3,Win32,60,0.105555556,-0.30462963,1,0,0,1.31949,scale,,,,,,0.349027907,0.282842712,0.174513954,0.141421356,stimuli/lakes/803030_left.png,stimuli/lakes/803030_right.png,,,,0,37,37,30,1,,,,,
,,,,,,$5edacd962514f672908c9e3b,2020-07-20_15h39.43.477,fisher_task,2020.1.3,Win32,60,0.119444444,-0.322222222,1,0,0,1.069385,scale,,,,,,0.349027907,0.282842712,0.174513954,0.141421356,stimuli/lakes/804057_left.png,stimuli/lakes/804057_right.png,,,,0,38,38,57,1,,,,,
,,,,,,$5edacd962514f672908c9e3b,2020-07-20_15h39.43.477,fisher_task,2020.1.3,Win32,60,0.126851852,-0.330555556,1,0,0,1.49291,scale,,,,,,0.349027907,0.282842712,0.174513954,0.141421356,stimuli/lakes/80109_left.png,stimuli/lakes/80109_right.png,,,,0,39,39,9,1,,,,,
,,,,,,$5edacd962514f672908c9e3b,2020-07-20_15h39.43.477,fisher_task,2020.1.3,Win32,60,0.140740741,-0.312962963,1,0,0,0.930445,scale,,,,,,0.2468,0.2,0.302267034,0.244948974,stimuli/lakes/403026_left.png,stimuli/lakes/403026_right.png,,,,0,40,40,26,1,,,,,
,,,,,,$5edacd962514f672908c9e3b,2020-07-20_15h39.43.477,fisher_task,2020.1.3,Win32,60,-0.149074074,-0.332407407,1,0,0,1.39561,scale,,,,,,0.2468,0.2,0.302267034,0.244948974,stimuli/lakes/407092_left.png,stimuli/lakes/407092_right.png,,,,0,41,41,92,1,,,,,
,,,,,,$5edacd962514f672908c9e3b,2020-07-20_15h39.43.477,fisher_task,2020.1.3,Win32,60,-0.113888889,-0.276851852,1,0,0,1.72875,scale,,,,,,0.2468,0.2,0.302267034,0.244948974,stimuli/lakes/4080111_left.png,stimuli/lakes/4080111_right.png,,,,0,42,42,111,1,,,,,
,,,,,,$5edacd962514f672908c9e3b,2020-07-20_15h39.43.477,fisher_task,2020.1.3,Win32,60,0.180555556,-0.435185185,1,0,0,1.715305,scale,,,,,,0.275930788,0.223606798,0.275930788,0.223606798,stimuli/lakes/50104_left.png,stimuli/lakes/50104_right.png,,,,0,43,43,4,1,,,,,
,,,,,,$5edacd962514f672908c9e3b,2020-07-20_15h39.43.477,fisher_task,2020.1.3,Win32,60,0.144444444,-0.32037037,1,0,0,1.090025,scale,,,,,,0.3702,0.3,0.1234,0.1,stimuli/lakes/901010_left.png,stimuli/lakes/901010_right.png,,,space,0,44,44,10,1,3.91072,,,,
,,,,,,$5edacd962514f672908c9e3b,2020-07-20_15h39.43.477,fisher_task,2020.1.3,Win32,60,-0.100925926,-0.35,1,0,0,0.785175,scale,,,,,,0.174513954,0.141421356,0.349027907,0.282842712,stimuli/lakes/206081_left.png,stimuli/lakes/206081_right.png,,,,0,45,45,81,1,,,,,
,,,,,,$5edacd962514f672908c9e3b,2020-07-20_15h39.43.477,fisher_task,2020.1.3,Win32,60,-0.1,-0.290740741,1,0,0,0.847225,scale,,,,,,0.349027907,0.282842712,0.174513954,0.141421356,stimuli/lakes/805069_left.png,stimuli/lakes/805069_right.png,,,,0,46,46,69,1,,,,,
,,,,,,$5edacd962514f672908c9e3b,2020-07-20_15h39.43.477,fisher_task,2020.1.3,Win32,60,-0.139814815,-0.296296296,1,0,0,0.97847,scale,,,,,,0.275930788,0.223606798,0.275930788,0.223606798,stimuli/lakes/506075_left.png,stimuli/lakes/506075_right.png,,,,0,47,47,75,1,,,,,
,,,,,,$5edacd962514f672908c9e3b,2020-07-20_15h39.43.477,fisher_task,2020.1.3,Win32,60,0.149074074,-0.282407407,1,0,0,1.04835,scale,,,,,,0.326485712,0.264575131,0.21373507,0.173205081,stimuli/lakes/705068_left.png,stimuli/lakes/705068_right.png,,,,0,48,48,68,1,,,,,
,,,,,,$5edacd962514f672908c9e3b,2020-07-20_15h39.43.477,fisher_task,2020.1.3,Win32,60,0.159259259,-0.432407407,1,0,0,0.846875,scale,,,,,,0.302267034,0.244948974,0.2468,0.2,stimuli/lakes/602017_left.png,stimuli/lakes/602017_right.png,,,,0,49,49,17,1,,,,,
,,,,,,$5edacd962514f672908c9e3b,2020-07-20_15h39.43.477,fisher_task,2020.1.3,Win32,60,-0.151851852,-0.428703704,1,0,0,0.978335,scale,,,,,,0.326485712,0.264575131,0.21373507,0.173205081,stimuli/lakes/7090128_left.png,stimuli/lakes/7090128_right.png,,,,0,50,50,128,1,,,,,
,,,,,,$5edacd962514f672908c9e3b,2020-07-20_15h39.43.477,fisher_task,2020.1.3,Win32,60,0.123148148,-0.314814815,1,0,0,0.97905,scale,,,,,,0.326485712,0.264575131,0.21373507,0.173205081,stimuli/lakes/705067_left.png,stimuli/lakes/705067_right.png,,,,0,51,51,67,1,,,,,
,,,,,,$5edacd962514f672908c9e3b,2020-07-20_15h39.43.477,fisher_task,2020.1.3,Win32,60,-0.144444444,-0.430555556,1,0,0,1.38169,scale,,,,,,0.326485712,0.264575131,0.21373507,0.173205081,stimuli/lakes/7080116_left.png,stimuli/lakes/7080116_right.png,,,,0,52,52,116,1,,,,,
,,,,,,$5edacd962514f672908c9e3b,2020-07-20_15h39.43.477,fisher_task,2020.1.3,Win32,60,0.163888889,-0.430555556,1,0,0,1.03462,scale,,,,,,0.174513954,0.141421356,0.349027907,0.282842712,stimuli/lakes/204042_left.png,stimuli/lakes/204042_right.png,,,,0,53,53,42,1,,,,,
,,,,,,$5edacd962514f672908c9e3b,2020-07-20_15h39.43.477,fisher_task,2020.1.3,Win32,60,0.125925926,-0.308333333,1,0,0,2.70049,scale,,,,,,0.349027907,0.282842712,0.174513954,0.141421356,stimuli/lakes/804048_left.png,stimuli/lakes/804048_right.png,,,,0,54,54,48,1,,,,,
,,,,,,$5edacd962514f672908c9e3b,2020-07-20_15h39.43.477,fisher_task,2020.1.3,Win32,60,0.153703704,-0.430555556,1,0,0,1.137985,scale,,,,,,0.302267034,0.244948974,0.2468,0.2,stimuli/lakes/602018_left.png,stimuli/lakes/602018_right.png,,,,0,55,55,18,1,,,,,
,,,,,,$5edacd962514f672908c9e3b,2020-07-20_15h39.43.477,fisher_task,2020.1.3,Win32,60,0.147222222,-0.423148148,1,0,0,1.039135,scale,,,,,,0.3702,0.3,0.1234,0.1,stimuli/lakes/904049_left.png,stimuli/lakes/904049_right.png,,,,0,56,56,49,1,,,,,
,,,,,,$5edacd962514f672908c9e3b,2020-07-20_15h39.43.477,fisher_task,2020.1.3,Win32,60,0.173148148,-0.431481481,1,0,0,1.041575,scale,,,,,,0.174513954,0.141421356,0.349027907,0.282842712,stimuli/lakes/203024_left.png,stimuli/lakes/203024_right.png,,,,0,57,57,24,1,,,,,
,,,,,,$5edacd962514f672908c9e3b,2020-07-20_15h39.43.477,fisher_task,2020.1.3,Win32,60,-0.17037037,-0.423148148,1,0,0,1.29139,scale,,,,,,0.349027907,0.282842712,0.174513954,0.141421356,stimuli/lakes/806087_left.png,stimuli/lakes/806087_right.png,,,,0,58,58,87,1,,,,,
,,,,,,$5edacd962514f672908c9e3b,2020-07-20_15h39.43.477,fisher_task,2020.1.3,Win32,60,-0.131481481,-0.433333333,1,0,0,0.979045,scale,,,,,,0.275930788,0.223606798,0.275930788,0.223606798,stimuli/lakes/5090125_left.png,stimuli/lakes/5090125_right.png,,,,0,59,59,125,1,,,,,
,,,,,,$5edacd962514f672908c9e3b,2020-07-20_15h39.43.477,fisher_task,2020.1.3,Win32,60,-0.123148148,-0.434259259,1,0,0,1.610995,scale,,,,,,0.174513954,0.141421356,0.349027907,0.282842712,stimuli/lakes/206072_left.png,stimuli/lakes/206072_right.png,,,,0,60,60,72,1,,,,,
,,,,,,$5edacd962514f672908c9e3b,2020-07-20_15h39.43.477,fisher_task,2020.1.3,Win32,60,0.121296296,-0.431481481,1,0,0,1.208105,scale,,,,,,0.302267034,0.244948974,0.2468,0.2,stimuli/lakes/603028_left.png,stimuli/lakes/603028_right.png,,,,0,61,61,28,1,,,,,
,,,,,,$5edacd962514f672908c9e3b,2020-07-20_15h39.43.477,fisher_task,2020.1.3,Win32,60,-0.157407407,-0.428703704,1,0,0,1.34018,scale,,,,,,0.302267034,0.244948974,0.2468,0.2,stimuli/lakes/6090126_left.png,stimuli/lakes/6090126_right.png,,,,0,62,62,126,1,,,,,
,,,,,,$5edacd962514f672908c9e3b,2020-07-20_15h39.43.477,fisher_task,2020.1.3,Win32,60,-0.162962963,-0.42962963,1,0,0,0.875015,scale,,,,,,0.349027907,0.282842712,0.174513954,0.141421356,stimuli/lakes/8080118_left.png,stimuli/lakes/8080118_right.png,,,,0,63,63,118,1,,,,,
,,,,,,$5edacd962514f672908c9e3b,2020-07-20_15h39.43.477,fisher_task,2020.1.3,Win32,60,-0.155555556,-0.435185185,1,0,0,1.0901,scale,,,,,,0.349027907,0.282842712,0.174513954,0.141421356,stimuli/lakes/807096_left.png,stimuli/lakes/807096_right.png,,,,0,64,64,96,1,,,,,
,,,,,,$5edacd962514f672908c9e3b,2020-07-20_15h39.43.477,fisher_task,2020.1.3,Win32,60,-0.169444444,-0.430555556,1,0,0,0.77073,scale,,,,,,0.3702,0.3,0.1234,0.1,stimuli/lakes/9070106_left.png,stimuli/lakes/9070106_right.png,,,,0,65,65,106,1,,,,,
,,,,,,$5edacd962514f672908c9e3b,2020-07-20_15h39.43.477,fisher_task,2020.1.3,Win32,60,0.150925926,-0.431481481,1,0,0,1.054975,scale,,,,,,0.326485712,0.264575131,0.21373507,0.173205081,stimuli/lakes/70107_left.png,stimuli/lakes/70107_right.png,,,space,0,66,66,7,1,2.367395,,,,
,,,,,,$5edacd962514f672908c9e3b,2020-07-20_15h39.43.477,fisher_task,2020.1.3,Win32,60,0.152777778,-0.430555556,1,0,0,0.98631,scale,,,,,,0.349027907,0.282842712,0.174513954,0.141421356,stimuli/lakes/802021_left.png,stimuli/lakes/802021_right.png,,,,0,67,67,21,1,,,,,
,,,,,,$5edacd962514f672908c9e3b,2020-07-20_15h39.43.477,fisher_task,2020.1.3,Win32,60,0.00462963,-0.259259259,1,0,0,4.166695,scale,,,,,,0.326485712,0.264575131,0.21373507,0.173205081,stimuli/lakes/703029_left.png,stimuli/lakes/703029_right.png,,,,0,68,68,29,1,,,,,
,,,,,,$5edacd962514f672908c9e3b,2020-07-20_15h39.43.477,fisher_task,2020.1.3,Win32,60,0.149074074,-0.433333333,1,0,0,0.97903,scale,,,,,,0.174513954,0.141421356,0.349027907,0.282842712,stimuli/lakes/202011_left.png,stimuli/lakes/202011_right.png,,,,0,69,69,11,1,,,,,
,,,,,,$5edacd962514f672908c9e3b,2020-07-20_15h39.43.477,fisher_task,2020.1.3,Win32,60,-0.155555556,-0.433333333,1,0,0,1.27077,scale,,,,,,0.3702,0.3,0.1234,0.1,stimuli/lakes/907097_left.png,stimuli/lakes/907097_right.png,,,,0,70,70,97,1,,,,,
,,,,,,$5edacd962514f672908c9e3b,2020-07-20_15h39.43.477,fisher_task,2020.1.3,Win32,60,0.17037037,-0.432407407,1,0,0,1.11844,scale,,,,,,0.21373507,0.173205081,0.326485712,0.264575131,stimuli/lakes/304043_left.png,stimuli/lakes/304043_right.png,,,,0,71,71,43,1,,,,,
,,,,,,$5edacd962514f672908c9e3b,2020-07-20_15h39.43.477,fisher_task,2020.1.3,Win32,60,-0.175925926,-0.430555556,1,0,0,1.25702,scale,,,,,,0.326485712,0.264575131,0.21373507,0.173205081,stimuli/lakes/706077_left.png,stimuli/lakes/706077_right.png,,,,0,72,72,77,1,,,,,
,,,,,,$5edacd962514f672908c9e3b,2020-07-20_15h39.43.477,fisher_task,2020.1.3,Win32,60,-0.175925926,-0.430555556,1,0,0,0.922685,scale,,,,,,0.1234,0.1,0.3702,0.3,stimuli/lakes/1080107_left.png,stimuli/lakes/1080107_right.png,,,,0,73,73,107,1,,,,,
,,,,,,$5edacd962514f672908c9e3b,2020-07-20_15h39.43.477,fisher_task,2020.1.3,Win32,60,0.150925926,-0.436111111,1,0,0,1.02788,scale,,,,,,0.302267034,0.244948974,0.2468,0.2,stimuli/lakes/603037_left.png,stimuli/lakes/603037_right.png,,,,0,74,74,37,1,,,,,
,,,,,,$5edacd962514f672908c9e3b,2020-07-20_15h39.43.477,fisher_task,2020.1.3,Win32,60,-0.137037037,-0.330555556,1,0,0,1.45835,scale,,,,,,0.2468,0.2,0.302267034,0.244948974,stimuli/lakes/4070101_left.png,stimuli/lakes/4070101_right.png,,,,0,75,75,101,1,,,,,
,,,,,,$5edacd962514f672908c9e3b,2020-07-20_15h39.43.477,fisher_task,2020.1.3,Win32,60,-0.163888889,-0.433333333,1,0,0,1.56237,scale,,,,,,0.174513954,0.141421356,0.349027907,0.282842712,stimuli/lakes/207099_left.png,stimuli/lakes/207099_right.png,,,,0,76,76,99,1,,,,,
,,,,,,$5edacd962514f672908c9e3b,2020-07-20_15h39.43.477,fisher_task,2020.1.3,Win32,60,-0.150925926,-0.422222222,1,0,0,1.104005,scale,,,,,,0.302267034,0.244948974,0.2468,0.2,stimuli/lakes/607094_left.png,stimuli/lakes/607094_right.png,,,,0,77,77,94,1,,,,,
,,,,,,$5edacd962514f672908c9e3b,2020-07-20_15h39.43.477,fisher_task,2020.1.3,Win32,60,0.160185185,-0.421296296,1,0,0,1.499,scale,,,,,,0.174513954,0.141421356,0.349027907,0.282842712,stimuli/lakes/205060_left.png,stimuli/lakes/205060_right.png,,,,0,78,78,60,1,,,,,
,,,,,,$5edacd962514f672908c9e3b,2020-07-20_15h39.43.477,fisher_task,2020.1.3,Win32,60,-0.144444444,-0.428703704,1,0,0,0.978965,scale,,,,,,0.302267034,0.244948974,0.2468,0.2,stimuli/lakes/6080114_left.png,stimuli/lakes/6080114_right.png,,,,0,79,79,114,1,,,,,
,,,,,,$5edacd962514f672908c9e3b,2020-07-20_15h39.43.477,fisher_task,2020.1.3,Win32,60,-0.143518519,-0.428703704,1,0,0,0.826325,scale,,,,,,0.275930788,0.223606798,0.275930788,0.223606798,stimuli/lakes/5070102_left.png,stimuli/lakes/5070102_right.png,,,,0,80,80,102,1,,,,,
,,,,,,$5edacd962514f672908c9e3b,2020-07-20_15h39.43.477,fisher_task,2020.1.3,Win32,60,-0.143518519,-0.427777778,1,0,0,0.569295,scale,,,,,,0.2468,0.2,0.302267034,0.244948974,stimuli/lakes/406074_left.png,stimuli/lakes/406074_right.png,,,,0,81,81,74,1,,,,,
,,,,,,$5edacd962514f672908c9e3b,2020-07-20_15h39.43.477,fisher_task,2020.1.3,Win32,60,0.010185185,-0.250925926,1,0,0,1.7916,scale,,,,,,0.302267034,0.244948974,0.2468,0.2,stimuli/lakes/605066_left.png,stimuli/lakes/605066_right.png,,,,0,82,82,66,1,,,,,
,,,,,,$5edacd962514f672908c9e3b,2020-07-20_15h39.43.477,fisher_task,2020.1.3,Win32,60,0.149074074,-0.424074074,1,0,0,1.034475,scale,,,,,,0.2468,0.2,0.302267034,0.244948974,stimuli/lakes/402014_left.png,stimuli/lakes/402014_right.png,,,,0,83,83,14,1,,,,,
,,,,,,$5edacd962514f672908c9e3b,2020-07-20_15h39.43.477,fisher_task,2020.1.3,Win32,60,-0.139814815,-0.318518519,1,0,0,1.79159,scale,,,,,,0.1234,0.1,0.3702,0.3,stimuli/lakes/107089_left.png,stimuli/lakes/107089_right.png,,,,0,84,84,89,1,,,,,
,,,,,,$5edacd962514f672908c9e3b,2020-07-20_15h39.43.477,fisher_task,2020.1.3,Win32,60,0.162037037,-0.431481481,1,0,0,1.15261,scale,,,,,,0.21373507,0.173205081,0.326485712,0.264575131,stimuli/lakes/303025_left.png,stimuli/lakes/303025_right.png,,,,0,85,85,25,1,,,,,
,,,,,,$5edacd962514f672908c9e3b,2020-07-20_15h39.43.477,fisher_task,2020.1.3,Win32,60,-0.130555556,-0.331481481,1,0,0,1.94453,scale,,,,,,0.3702,0.3,0.1234,0.1,stimuli/lakes/904058_left.png,stimuli/lakes/904058_right.png,,,,0,86,86,58,1,,,,,
,,,,,,$5edacd962514f672908c9e3b,2020-07-20_15h39.43.477,fisher_task,2020.1.3,Win32,60,0.130555556,-0.309259259,1,0,0,1.208335,scale,,,,,,0.3702,0.3,0.1234,0.1,stimuli/lakes/902022_left.png,stimuli/lakes/902022_right.png,,,,0,87,87,22,1,,,,,
,,,,,,$5edacd962514f672908c9e3b,2020-07-20_15h39.43.477,fisher_task,2020.1.3,Win32,60,-0.103703704,-0.309259259,1,0,0,1.568645,scale,,,,,,0.3702,0.3,0.1234,0.1,stimuli/lakes/905070_left.png,stimuli/lakes/905070_right.png,,,space,0,88,88,70,1,30.26718,,,,
,,,,,,$5edacd962514f672908c9e3b,2020-07-20_15h39.43.477,fisher_task,2020.1.3,Win32,60,-0.131481481,-0.307407407,1,0,0,1.339945,scale,,,,,,0.2468,0.2,0.302267034,0.244948974,stimuli/lakes/4090123_left.png,stimuli/lakes/4090123_right.png,,,,0,89,89,123,1,,,,,
,,,,,,$5edacd962514f672908c9e3b,2020-07-20_15h39.43.477,fisher_task,2020.1.3,Win32,60,0.155555556,-0.421296296,1,0,0,0.867995,scale,,,,,,0.21373507,0.173205081,0.326485712,0.264575131,stimuli/lakes/302013_left.png,stimuli/lakes/302013_right.png,,,,0,90,90,13,1,,,,,
,,,,,,$5edacd962514f672908c9e3b,2020-07-20_15h39.43.477,fisher_task,2020.1.3,Win32,60,0.160185185,-0.422222222,1,0,0,1.005955,scale,,,,,,0.1234,0.1,0.3702,0.3,stimuli/lakes/103032_left.png,stimuli/lakes/103032_right.png,,,,0,91,91,32,1,,,,,
,,,,,,$5edacd962514f672908c9e3b,2020-07-20_15h39.43.477,fisher_task,2020.1.3,Win32,60,0.182407407,-0.421296296,1,0,0,0.79132,scale,,,,,,0.2468,0.2,0.302267034,0.244948974,stimuli/lakes/403035_left.png,stimuli/lakes/403035_right.png,,,,0,92,92,35,1,,,,,
,,,,,,$5edacd962514f672908c9e3b,2020-07-20_15h39.43.477,fisher_task,2020.1.3,Win32,60,-0.160185185,-0.423148148,1,0,0,0.860935,scale,,,,,,0.302267034,0.244948974,0.2468,0.2,stimuli/lakes/6080115_left.png,stimuli/lakes/6080115_right.png,,,,0,93,93,115,1,,,,,
,,,,,,$5edacd962514f672908c9e3b,2020-07-20_15h39.43.477,fisher_task,2020.1.3,Win32,60,-0.178703704,-0.437962963,1,0,0,0.735415,scale,,,,,,0.326485712,0.264575131,0.21373507,0.173205081,stimuli/lakes/7090129_left.png,stimuli/lakes/7090129_right.png,,,,0,94,94,129,1,,,,,
,,,,,,$5edacd962514f672908c9e3b,2020-07-20_15h39.43.477,fisher_task,2020.1.3,Win32,60,-0.163888889,-0.431481481,1,0,0,0.69413,scale,,,,,,0.326485712,0.264575131,0.21373507,0.173205081,stimuli/lakes/7070104_left.png,stimuli/lakes/7070104_right.png,,,,0,95,95,104,1,,,,,
,,,,,,$5edacd962514f672908c9e3b,2020-07-20_15h39.43.477,fisher_task,2020.1.3,Win32,60,0.128703704,-0.428703704,1,0,0,0.93744,scale,,,,,,0.2468,0.2,0.302267034,0.244948974,stimuli/lakes/40103_left.png,stimuli/lakes/40103_right.png,,,,0,96,96,3,1,,,,,
,,,,,,$5edacd962514f672908c9e3b,2020-07-20_15h39.43.477,fisher_task,2020.1.3,Win32,60,-0.17962963,-0.426851852,1,0,0,1.12473,scale,,,,,,0.3702,0.3,0.1234,0.1,stimuli/lakes/906079_left.png,stimuli/lakes/906079_right.png,,,,0,97,97,79,1,,,,,
,,,,,,$5edacd962514f672908c9e3b,2020-07-20_15h39.43.477,fisher_task,2020.1.3,Win32,60,0.166666667,-0.427777778,1,0,0,1.110945,scale,,,,,,0.302267034,0.244948974,0.2468,0.2,stimuli/lakes/604046_left.png,stimuli/lakes/604046_right.png,,,,0,98,98,46,1,,,,,
,,,,,,$5edacd962514f672908c9e3b,2020-07-20_15h39.43.477,fisher_task,2020.1.3,Win32,60,0.160185185,-0.431481481,1,0,0,0.624915,scale,,,,,,0.21373507,0.173205081,0.326485712,0.264575131,stimuli/lakes/304052_left.png,stimuli/lakes/304052_right.png,,,,0,99,99,52,1,,,,,
,,,,,,$5edacd962514f672908c9e3b,2020-07-20_15h39.43.477,fisher_task,2020.1.3,Win32,60,-0.142592593,-0.426851852,1,0,0,1.27692,scale,,,,,,0.21373507,0.173205081,0.326485712,0.264575131,stimuli/lakes/3070100_left.png,stimuli/lakes/3070100_right.png,,,,0,100,100,100,1,,,,,
,,,,,,$5edacd962514f672908c9e3b,2020-07-20_15h39.43.477,fisher_task,2020.1.3,Win32,60,0.143518519,-0.435185185,1,0,0,1.076195,scale,,,,,,0.302267034,0.244948974,0.2468,0.2,stimuli/lakes/60106_left.png,stimuli/lakes/60106_right.png,,,,0,101,101,6,1,,,,,
,,,,,,$5edacd962514f672908c9e3b,2020-07-20_15h39.43.477,fisher_task,2020.1.3,Win32,60,-0.138888889,-0.428703704,1,0,0,1.222,scale,,,,,,0.349027907,0.282842712,0.174513954,0.141421356,stimuli/lakes/8070105_left.png,stimuli/lakes/8070105_right.png,,,,0,102,102,105,1,,,,,
,,,,,,$5edacd962514f672908c9e3b,2020-07-20_15h39.43.477,fisher_task,2020.1.3,Win32,60,0.148148148,-0.437962963,1,0,0,1.208375,scale,,,,,,0.174513954,0.141421356,0.349027907,0.282842712,stimuli/lakes/204051_left.png,stimuli/lakes/204051_right.png,,,,0,103,103,51,1,,,,,
,,,,,,$5edacd962514f672908c9e3b,2020-07-20_15h39.43.477,fisher_task,2020.1.3,Win32,60,0.130555556,-0.434259259,1,0,0,0.916435,scale,,,,,,0.302267034,0.244948974,0.2468,0.2,stimuli/lakes/604055_left.png,stimuli/lakes/604055_right.png,,,,0,104,104,55,1,,,,,
,,,,,,$5edacd962514f672908c9e3b,2020-07-20_15h39.43.477,fisher_task,2020.1.3,Win32,60,-0.011111111,-0.269444444,1,0,0,1.09014,scale,,,,,,0.21373507,0.173205081,0.326485712,0.264575131,stimuli/lakes/306073_left.png,stimuli/lakes/306073_right.png,,,,0,105,105,73,1,,,,,
,,,,,,$5edacd962514f672908c9e3b,2020-07-20_15h39.43.477,fisher_task,2020.1.3,Win32,60,0.177777778,-0.417592593,1,0,0,10.493275,scale,,,,,,0.2468,0.2,0.302267034,0.244948974,stimuli/lakes/405064_left.png,stimuli/lakes/405064_right.png,,,,0,106,106,64,1,,,,,
,,,,,,$5edacd962514f672908c9e3b,2020-07-20_15h39.43.477,fisher_task,2020.1.3,Win32,60,-0.137962963,-0.419444444,1,0,0,0.812465,scale,,,,,,0.3702,0.3,0.1234,0.1,stimuli/lakes/906088_left.png,stimuli/lakes/906088_right.png,,,,0,107,107,88,1,,,,,
,,,,,,$5edacd962514f672908c9e3b,2020-07-20_15h39.43.477,fisher_task,2020.1.3,Win32,60,0.15,-0.414814815,1,0,0,0.874055,scale,,,,,,0.3702,0.3,0.1234,0.1,stimuli/lakes/903040_left.png,stimuli/lakes/903040_right.png,,,,0,108,108,40,1,,,,,
,,,,,,$5edacd962514f672908c9e3b,2020-07-20_15h39.43.477,fisher_task,2020.1.3,Win32,60,-0.15462963,-0.418518519,1,0,0,0.749925,scale,,,,,,0.1234,0.1,0.3702,0.3,stimuli/lakes/106071_left.png,stimuli/lakes/106071_right.png,,,,0,109,109,71,1,,,,,
,,,,,,$5edacd962514f672908c9e3b,2020-07-20_15h39.43.477,fisher_task,2020.1.3,Win32,60,-0.143518519,-0.312037037,1,0,0,0.44449,scale,,,,,,0.275930788,0.223606798,0.275930788,0.223606798,stimuli/lakes/502016_left.png,stimuli/lakes/502016_right.png,,,space,0,110,110,16,1,3.465085,,,,
,,,,,,$5edacd962514f672908c9e3b,2020-07-20_15h39.43.477,fisher_task,2020.1.3,Win32,60,0.010185185,-0.247222222,1,0,0,0.354145,scale,,,,,,0.1234,0.1,0.3702,0.3,stimuli/lakes/107098_left.png,stimuli/lakes/107098_right.png,,,,0,111,111,98,1,,,,,
,,,,,,$5edacd962514f672908c9e3b,2020-07-20_15h39.43.477,fisher_task,2020.1.3,Win32,60,0.172222222,-0.418518519,1,0,0,0.749895,scale,,,,,,0.21373507,0.173205081,0.326485712,0.264575131,stimuli/lakes/30101_left.png,stimuli/lakes/30101_right.png,,,,0,112,112,1,1,,,,,
,,,,,,$5edacd962514f672908c9e3b,2020-07-20_15h39.43.477,fisher_task,2020.1.3,Win32,60,-0.130555556,-0.275,1,0,0,1.770605,scale,,,,,,0.21373507,0.173205081,0.326485712,0.264575131,stimuli/lakes/3090122_left.png,stimuli/lakes/3090122_right.png,,,,0,113,113,122,1,,,,,
,,,,,,$5edacd962514f672908c9e3b,2020-07-20_15h39.43.477,fisher_task,2020.1.3,Win32,60,-0.118518519,-0.322222222,1,0,0,0.917435,scale,,,,,,0.21373507,0.173205081,0.326485712,0.264575131,stimuli/lakes/3080110_left.png,stimuli/lakes/3080110_right.png,,,,0,114,114,110,1,,,,,
,,,,,,$5edacd962514f672908c9e3b,2020-07-20_15h39.43.477,fisher_task,2020.1.3,Win32,60,-0.118518519,-0.322222222,1,0,0,0.075805,scale,,,,,,0.302267034,0.244948974,0.2468,0.2,stimuli/lakes/606076_left.png,stimuli/lakes/606076_right.png,,,,0,115,115,76,1,,,,,
,,,,,,$5edacd962514f672908c9e3b,2020-07-20_15h39.43.477,fisher_task,2020.1.3,Win32,60,-0.139814815,-0.412037037,1,0,0,1.082905,scale,,,,,,0.174513954,0.141421356,0.349027907,0.282842712,stimuli/lakes/2090120_left.png,stimuli/lakes/2090120_right.png,,,,0,116,116,120,1,,,,,
,,,,,,$5edacd962514f672908c9e3b,2020-07-20_15h39.43.477,fisher_task,2020.1.3,Win32,60,-0.127777778,-0.308333333,1,0,0,0.887755,scale,,,,,,0.21373507,0.173205081,0.326485712,0.264575131,stimuli/lakes/3080109_left.png,stimuli/lakes/3080109_right.png,,,,0,117,117,109,1,,,,,
,,,,,,$5edacd962514f672908c9e3b,2020-07-20_15h39.43.477,fisher_task,2020.1.3,Win32,60,0.111111111,-0.308333333,1,0,0,1.652765,scale,,,,,,0.2468,0.2,0.302267034,0.244948974,stimuli/lakes/402015_left.png,stimuli/lakes/402015_right.png,,,,0,118,118,15,1,,,,,
,,,,,,$5edacd962514f672908c9e3b,2020-07-20_15h39.43.477,fisher_task,2020.1.3,Win32,60,0.147222222,-0.42962963,1,0,0,1.79017,scale,,,,,,0.326485712,0.264575131,0.21373507,0.173205081,stimuli/lakes/704056_left.png,stimuli/lakes/704056_right.png,,,,0,119,119,56,1,,,,,
,,,,,,$5edacd962514f672908c9e3b,2020-07-20_15h39.43.477,fisher_task,2020.1.3,Win32,60,0.156481481,-0.443518519,1,0,0,0.852525,scale,,,,,,0.21373507,0.173205081,0.326485712,0.264575131,stimuli/lakes/303034_left.png,stimuli/lakes/303034_right.png,,,,0,120,120,34,1,,,,,
,,,,,,$5edacd962514f672908c9e3b,2020-07-20_15h39.43.477,fisher_task,2020.1.3,Win32,60,-0.156481481,-0.426851852,1,0,0,1.09699,scale,,,,,,0.349027907,0.282842712,0.174513954,0.141421356,stimuli/lakes/806078_left.png,stimuli/lakes/806078_right.png,,,,0,121,121,78,1,,,,,
,,,,,,$5edacd962514f672908c9e3b,2020-07-20_15h39.43.477,fisher_task,2020.1.3,Win32,60,0.128703704,-0.299074074,1,0,0,14.771435,scale,,,,,,0.275930788,0.223606798,0.275930788,0.223606798,stimuli/lakes/504045_left.png,stimuli/lakes/504045_right.png,,,,0,122,122,45,1,,,,,
,,,,,,$5edacd962514f672908c9e3b,2020-07-20_15h39.43.477,fisher_task,2020.1.3,Win32,60,0.163888889,-0.427777778,1,0,0,2.784845,scale,,,,,,0.2468,0.2,0.302267034,0.244948974,stimuli/lakes/404053_left.png,stimuli/lakes/404053_right.png,,,,0,123,123,53,1,,,,,
,,,,,,$5edacd962514f672908c9e3b,2020-07-20_15h39.43.477,fisher_task,2020.1.3,Win32,60,-0.152777778,-0.430555556,1,0,0,1.360985,scale,,,,,,0.326485712,0.264575131,0.21373507,0.173205081,stimuli/lakes/706086_left.png,stimuli/lakes/706086_right.png,,,,0,124,124,86,1,,,,,
,,,,,,$5edacd962514f672908c9e3b,2020-07-20_15h39.43.477,fisher_task,2020.1.3,Win32,60,0.111111111,-0.312962963,1,0,0,3.0074,scale,,,,,,0.326485712,0.264575131,0.21373507,0.173205081,stimuli/lakes/704047_left.png,stimuli/lakes/704047_right.png,,,,0,125,125,47,1,,,,,
,,,,,,$5edacd962514f672908c9e3b,2020-07-20_15h39.43.477,fisher_task,2020.1.3,Win32,60,-0.181481481,-0.427777778,1,0,0,1.312465,scale,,,,,,0.275930788,0.223606798,0.275930788,0.223606798,stimuli/lakes/506084_left.png,stimuli/lakes/506084_right.png,,,,0,126,126,84,1,,,,,
,,,,,,$5edacd962514f672908c9e3b,2020-07-20_15h39.43.477,fisher_task,2020.1.3,Win32,60,0.17037037,-0.426851852,1,0,0,0.96552,scale,,,,,,0.275930788,0.223606798,0.275930788,0.223606798,stimuli/lakes/503027_left.png,stimuli/lakes/503027_right.png,,,,0,127,127,27,1,,,,,
,,,,,,$5edacd962514f672908c9e3b,2020-07-20_15h39.43.477,fisher_task,2020.1.3,Win32,60,0.168518519,-0.425,1,0,0,0.888795,scale,,,,,,0.2468,0.2,0.302267034,0.244948974,stimuli/lakes/405063_left.png,stimuli/lakes/405063_right.png,,,,0,128,128,63,1,,,,,
,,,,,,$5edacd962514f672908c9e3b,2020-07-20_15h39.43.477,fisher_task,2020.1.3,Win32,60,-0.181481481,-0.42962963,1,0,0,0.86781,scale,,,,,,0.174513954,0.141421356,0.349027907,0.282842712,stimuli/lakes/2080108_left.png,stimuli/lakes/2080108_right.png,,,,0,129,129,108,1,,,,,
,,,,,,$5edacd962514f672908c9e3b,2020-07-20_15h39.43.477,fisher_task,2020.1.3,Win32,60,,,,,,,,,,,,,,,,,,,,,,,,,,,,space,9.08237,space,1.49211
