keySpace.keys,keySpace.rt,instructions.thisRepN,instructions.thisTrialN,instructions.thisN,instructions.thisIndex,instructions.ran,participant,date,expName,psychopyVersion,OS,frameRate,mouse.x,mouse.y,mouse.leftButton,mouse.midButton,mouse.rightButton,mouse.time,mouse.clicked_name,training.thisRepN,training.thisTrialN,training.thisN,training.thisIndex,training.ran,widthBasketLeft,heightBasketLeft,widthBasketRight,heightBasketRight,leftLake,rightLake,space2.keys,space2.rt,space1.keys,trials.thisRepN,trials.thisTrialN,trials.thisN,trials.thisIndex,trials.ran,space1.rt,finalSpace1.keys,finalSpace1.rt,finalSpace2.keys,finalSpace2.rt
space,2.132905,0,0,0,0,1,$5ed192be5104050f3ce87e2d,2020-07-20_15h22.29.579,fisher_task,2020.1.3,Win32,60,,,,,,,,,,,,,,,,,,,,,,,,,,,,,,,
,,1,0,1,0,1,$5ed192be5104050f3ce87e2d,2020-07-20_15h22.29.579,fisher_task,2020.1.3,Win32,60,,,,,,,,,,,,,,,,,,,,,,,,,,,,,,,
,,,,,,,$5ed192be5104050f3ce87e2d,2020-07-20_15h22.29.579,fisher_task,2020.1.3,Win32,60,0.163888905,-0.427777848,1,0,0,2.63225,scale,0,0,0,0,1,0.275930788,0.223606798,0.275930788,0.223606798,stimuli/training/20_left.png,stimuli/training/20_right.png,,,,,,,,,,,,,
,,,,,,,$5ed192be5104050f3ce87e2d,2020-07-20_15h22.29.579,fisher_task,2020.1.3,Win32,60,-0.01759258,-0.248148159,1,0,0,1.666265,scale,0,1,1,1,1,0.275930788,0.223606798,0.275930788,0.223606798,stimuli/training/80_left.png,stimuli/training/80_right.png,,,,,,,,,,,,,
,,,,,,,$5ed192be5104050f3ce87e2d,2020-07-20_15h22.29.579,fisher_task,2020.1.3,Win32,60,-0.009259246,-0.250000011,1,0,0,2.44887,scale,0,2,2,2,1,0.174513954,0.141421356,0.349027907,0.282842712,stimuli/training/50_left.png,stimuli/training/50_right.png,,,,,,,,,,,,,
,,,,,,,$5ed192be5104050f3ce87e2d,2020-07-20_15h22.29.579,fisher_task,2020.1.3,Win32,60,-0.174074007,-0.370370383,1,0,0,0.41556,scale,0,3,3,3,1,0.349027907,0.282842712,0.174513954,0.141421356,stimuli/training/50_left.png,stimuli/training/50_right.png,,,,,,,,,,,,,
,,,,,,,$5ed192be5104050f3ce87e2d,2020-07-20_15h22.29.579,fisher_task,2020.1.3,Win32,60,0.001851922,-0.259259271,1,0,0,2.19909,scale,0,4,4,4,1,0.275930788,0.223606798,0.275930788,0.223606798,stimuli/training/50_left.png,stimuli/training/50_right.png,,,,,,,,,,,,,
,,,,,,,$5ed192be5104050f3ce87e2d,2020-07-20_15h22.29.579,fisher_task,2020.1.3,Win32,60,0.14444446,-0.405555569,1,0,0,1.998835,scale,0,5,5,5,1,0.174513954,0.141421356,0.349027907,0.282842712,stimuli/training/20_left.png,stimuli/training/20_right.png,,,,,,,,,,,,,
,,,,,,,$5ed192be5104050f3ce87e2d,2020-07-20_15h22.29.579,fisher_task,2020.1.3,Win32,60,-0.158333322,-0.420370384,1,0,0,1.982365,scale,0,6,6,6,1,0.349027907,0.282842712,0.174513954,0.141421356,stimuli/training/80_left.png,stimuli/training/80_right.png,,,,,,,,,,,,,
,,,,,,,$5ed192be5104050f3ce87e2d,2020-07-20_15h22.29.579,fisher_task,2020.1.3,Win32,60,0.153703719,-0.414814828,1,0,0,1.41587,scale,0,7,7,7,1,0.1234,0.1,0.3702,0.3,stimuli/training/30_left.png,stimuli/training/30_right.png,,,,,,,,,,,,,
,,,,,,,$5ed192be5104050f3ce87e2d,2020-07-20_15h22.29.579,fisher_task,2020.1.3,Win32,60,-0.142592581,-0.27314816,1,0,0,1.499285,scale,0,8,8,8,1,0.3702,0.3,0.1234,0.1,stimuli/training/70_left.png,stimuli/training/70_right.png,,,,,,,,,,,,,
,,,,,,,$5ed192be5104050f3ce87e2d,2020-07-20_15h22.29.579,fisher_task,2020.1.3,Win32,60,-0.149999989,-0.382407421,1,0,0,2.449,scale,0,9,9,9,1,0.326485712,0.264575131,0.21373507,0.173205081,stimuli/training/90_left.png,stimuli/training/90_right.png,,,,,,,,,,,,,
,,,,,,,$5ed192be5104050f3ce87e2d,2020-07-20_15h22.29.579,fisher_task,2020.1.3,Win32,60,0.152777793,-0.417592606,1,0,0,2.29909,scale,0,10,10,10,1,0.21373507,0.173205081,0.326485712,0.264575131,stimuli/training/10_left.png,stimuli/training/10_right.png,,,,,,,,,,,,,
,,,,,,,$5ed192be5104050f3ce87e2d,2020-07-20_15h22.29.579,fisher_task,2020.1.3,Win32,60,0.180555571,-0.418518589,1,0,0,1.132895,scale,,,,,,0.2468,0.2,0.302267034,0.244948974,stimuli/lakes/402015_left.png,stimuli/lakes/402015_right.png,space,9.138895,,0,0,0,15,1,,,,,
,,,,,,,$5ed192be5104050f3ce87e2d,2020-07-20_15h22.29.579,fisher_task,2020.1.3,Win32,60,0.122222237,-0.287962975,1,0,0,2.39894,scale,,,,,,0.275930788,0.223606798,0.275930788,0.223606798,stimuli/lakes/504045_left.png,stimuli/lakes/504045_right.png,,,,0,1,1,45,1,,,,,
,,,,,,,$5ed192be5104050f3ce87e2d,2020-07-20_15h22.29.579,fisher_task,2020.1.3,Win32,60,-0.158333322,-0.370370383,1,0,0,2.482355,scale,,,,,,0.1234,0.1,0.3702,0.3,stimuli/lakes/107098_left.png,stimuli/lakes/107098_right.png,,,,0,2,2,98,1,,,,,
,,,,,,,$5ed192be5104050f3ce87e2d,2020-07-20_15h22.29.579,fisher_task,2020.1.3,Win32,60,0.16944446,-0.398148162,1,0,0,1.16599,scale,,,,,,0.174513954,0.141421356,0.349027907,0.282842712,stimuli/lakes/203033_left.png,stimuli/lakes/203033_right.png,,,,0,3,3,33,1,,,,,
,,,,,,,$5ed192be5104050f3ce87e2d,2020-07-20_15h22.29.579,fisher_task,2020.1.3,Win32,60,0.145370386,-0.288888957,1,0,0,1.615665,scale,,,,,,0.275930788,0.223606798,0.275930788,0.223606798,stimuli/lakes/503036_left.png,stimuli/lakes/503036_right.png,,,,0,4,4,36,1,,,,,
,,,,,,,$5ed192be5104050f3ce87e2d,2020-07-20_15h22.29.579,fisher_task,2020.1.3,Win32,60,0.173148164,-0.428703718,1,0,0,1.96602,scale,,,,,,0.21373507,0.173205081,0.326485712,0.264575131,stimuli/lakes/304043_left.png,stimuli/lakes/304043_right.png,,,,0,5,5,43,1,,,,,
,,,,,,,$5ed192be5104050f3ce87e2d,2020-07-20_15h22.29.579,fisher_task,2020.1.3,Win32,60,-0.159259248,-0.433333347,1,0,0,1.699115,scale,,,,,,0.21373507,0.173205081,0.326485712,0.264575131,stimuli/lakes/3090121_left.png,stimuli/lakes/3090121_right.png,,,,0,6,6,121,1,,,,,
,,,,,,,$5ed192be5104050f3ce87e2d,2020-07-20_15h22.29.579,fisher_task,2020.1.3,Win32,60,-0.169444377,-0.422222236,1,0,0,1.54941,scale,,,,,,0.2468,0.2,0.302267034,0.244948974,stimuli/lakes/406074_left.png,stimuli/lakes/406074_right.png,,,,0,7,7,74,1,,,,,
,,,,,,,$5ed192be5104050f3ce87e2d,2020-07-20_15h22.29.579,fisher_task,2020.1.3,Win32,60,0.118518534,-0.309259271,1,0,0,2.448965,scale,,,,,,0.326485712,0.264575131,0.21373507,0.173205081,stimuli/lakes/704047_left.png,stimuli/lakes/704047_right.png,,,,0,8,8,47,1,,,,,
,,,,,,,$5ed192be5104050f3ce87e2d,2020-07-20_15h22.29.579,fisher_task,2020.1.3,Win32,60,0.136111126,-0.314814827,1,0,0,1.36574,scale,,,,,,0.2468,0.2,0.302267034,0.244948974,stimuli/lakes/402014_left.png,stimuli/lakes/402014_right.png,,,,0,9,9,14,1,,,,,
,,,,,,,$5ed192be5104050f3ce87e2d,2020-07-20_15h22.29.579,fisher_task,2020.1.3,Win32,60,-0.112037025,-0.294444456,1,0,0,0.98276,scale,,,,,,0.326485712,0.264575131,0.21373507,0.173205081,stimuli/lakes/7090128_left.png,stimuli/lakes/7090128_right.png,,,,0,10,10,128,1,,,,,
,,,,,,,$5ed192be5104050f3ce87e2d,2020-07-20_15h22.29.579,fisher_task,2020.1.3,Win32,60,0.030555569,-0.240740752,1,0,0,1.749285,scale,,,,,,0.302267034,0.244948974,0.2468,0.2,stimuli/lakes/603037_left.png,stimuli/lakes/603037_right.png,,,,0,11,11,37,1,,,,,
,,,,,,,$5ed192be5104050f3ce87e2d,2020-07-20_15h22.29.579,fisher_task,2020.1.3,Win32,60,0.150000015,-0.415740754,1,0,0,1.132965,scale,,,,,,0.302267034,0.244948974,0.2468,0.2,stimuli/lakes/60106_left.png,stimuli/lakes/60106_right.png,,,,0,12,12,6,1,,,,,
,,,,,,,$5ed192be5104050f3ce87e2d,2020-07-20_15h22.29.579,fisher_task,2020.1.3,Win32,60,-0.007407338,-0.26851853,1,0,0,1.76584,scale,,,,,,0.2468,0.2,0.302267034,0.244948974,stimuli/lakes/404053_left.png,stimuli/lakes/404053_right.png,,,,0,13,13,53,1,,,,,
,,,,,,,$5ed192be5104050f3ce87e2d,2020-07-20_15h22.29.579,fisher_task,2020.1.3,Win32,60,-0.191666656,-0.437962977,1,0,0,1.41586,scale,,,,,,0.326485712,0.264575131,0.21373507,0.173205081,stimuli/lakes/707095_left.png,stimuli/lakes/707095_right.png,,,,0,14,14,95,1,,,,,
,,,,,,,$5ed192be5104050f3ce87e2d,2020-07-20_15h22.29.579,fisher_task,2020.1.3,Win32,60,0.003703717,-0.253703715,1,0,0,2.035275,scale,,,,,,0.302267034,0.244948974,0.2468,0.2,stimuli/lakes/604055_left.png,stimuli/lakes/604055_right.png,,,,0,15,15,55,1,,,,,
,,,,,,,$5ed192be5104050f3ce87e2d,2020-07-20_15h22.29.579,fisher_task,2020.1.3,Win32,60,0.16944446,-0.419444458,1,0,0,1.215945,scale,,,,,,0.2468,0.2,0.302267034,0.244948974,stimuli/lakes/404044_left.png,stimuli/lakes/404044_right.png,,,,0,16,16,44,1,,,,,
,,,,,,,$5ed192be5104050f3ce87e2d,2020-07-20_15h22.29.579,fisher_task,2020.1.3,Win32,60,0.01203705,-0.267592604,1,0,0,1.68259,scale,,,,,,0.2468,0.2,0.302267034,0.244948974,stimuli/lakes/405063_left.png,stimuli/lakes/405063_right.png,,,,0,17,17,63,1,,,,,
,,,,,,,$5ed192be5104050f3ce87e2d,2020-07-20_15h22.29.579,fisher_task,2020.1.3,Win32,60,-0.135185174,-0.302777846,1,0,0,1.33262,scale,,,,,,0.275930788,0.223606798,0.275930788,0.223606798,stimuli/lakes/5070102_left.png,stimuli/lakes/5070102_right.png,,,,0,18,18,102,1,,,,,
,,,,,,,$5ed192be5104050f3ce87e2d,2020-07-20_15h22.29.579,fisher_task,2020.1.3,Win32,60,-0.178703637,-0.426851866,1,0,0,1.36582,scale,,,,,,0.326485712,0.264575131,0.21373507,0.173205081,stimuli/lakes/7080116_left.png,stimuli/lakes/7080116_right.png,,,,0,19,19,116,1,,,,,
,,,,,,,$5ed192be5104050f3ce87e2d,2020-07-20_15h22.29.579,fisher_task,2020.1.3,Win32,60,0.140740756,-0.412037051,1,0,0,1.46604,scale,,,,,,0.21373507,0.173205081,0.326485712,0.264575131,stimuli/lakes/304052_left.png,stimuli/lakes/304052_right.png,,,,0,20,20,52,1,,,,,
,,,,,,,$5ed192be5104050f3ce87e2d,2020-07-20_15h22.29.579,fisher_task,2020.1.3,Win32,60,0.015740811,-0.270370438,1,0,0,1.18238,scale,,,,,,0.349027907,0.282842712,0.174513954,0.141421356,stimuli/lakes/803039_left.png,stimuli/lakes/803039_right.png,,,,0,21,21,39,1,,,,,
,,,,,,,$5ed192be5104050f3ce87e2d,2020-07-20_15h22.29.579,fisher_task,2020.1.3,Win32,60,-0.125925915,-0.306481493,1,0,0,1.69896,scale,,,,,,0.1234,0.1,0.3702,0.3,stimuli/lakes/106080_left.png,stimuli/lakes/106080_right.png,,,space,0,22,22,80,1,4.028275,,,,
,,,,,,,$5ed192be5104050f3ce87e2d,2020-07-20_15h22.29.579,fisher_task,2020.1.3,Win32,60,-0.207407397,-0.438888903,1,0,0,1.032795,scale,,,,,,0.349027907,0.282842712,0.174513954,0.141421356,stimuli/lakes/8080118_left.png,stimuli/lakes/8080118_right.png,,,,0,23,23,118,1,,,,,
,,,,,,,$5ed192be5104050f3ce87e2d,2020-07-20_15h22.29.579,fisher_task,2020.1.3,Win32,60,0.197222238,-0.41666668,1,0,0,1.415715,scale,,,,,,0.3702,0.3,0.1234,0.1,stimuli/lakes/903031_left.png,stimuli/lakes/903031_right.png,,,,0,24,24,31,1,,,,,
,,,,,,,$5ed192be5104050f3ce87e2d,2020-07-20_15h22.29.579,fisher_task,2020.1.3,Win32,60,0.010185199,-0.256481549,1,0,0,1.032785,scale,,,,,,0.3702,0.3,0.1234,0.1,stimuli/lakes/905070_left.png,stimuli/lakes/905070_right.png,,,,0,25,25,70,1,,,,,
,,,,,,,$5ed192be5104050f3ce87e2d,2020-07-20_15h22.29.579,fisher_task,2020.1.3,Win32,60,-0.13240734,-0.289814827,1,0,0,1.39921,scale,,,,,,0.21373507,0.173205081,0.326485712,0.264575131,stimuli/lakes/307091_left.png,stimuli/lakes/307091_right.png,,,,0,26,26,91,1,,,,,
,,,,,,,$5ed192be5104050f3ce87e2d,2020-07-20_15h22.29.579,fisher_task,2020.1.3,Win32,60,0.142592608,-0.287037049,1,0,0,1.49931,scale,,,,,,0.275930788,0.223606798,0.275930788,0.223606798,stimuli/lakes/503027_left.png,stimuli/lakes/503027_right.png,,,,0,27,27,27,1,,,,,
,,,,,,,$5ed192be5104050f3ce87e2d,2020-07-20_15h22.29.579,fisher_task,2020.1.3,Win32,60,0.172222238,-0.472222237,1,0,0,1.63263,scale,,,,,,0.326485712,0.264575131,0.21373507,0.173205081,stimuli/lakes/702019_left.png,stimuli/lakes/702019_right.png,,,,0,28,28,19,1,,,,,
,,,,,,,$5ed192be5104050f3ce87e2d,2020-07-20_15h22.29.579,fisher_task,2020.1.3,Win32,60,0.118518534,-0.303703716,1,0,0,0.915725,scale,,,,,,0.174513954,0.141421356,0.349027907,0.282842712,stimuli/lakes/202011_left.png,stimuli/lakes/202011_right.png,,,,0,29,29,11,1,,,,,
,,,,,,,$5ed192be5104050f3ce87e2d,2020-07-20_15h22.29.579,fisher_task,2020.1.3,Win32,60,0.155555571,-0.423148218,1,0,0,1.3493,scale,,,,,,0.2468,0.2,0.302267034,0.244948974,stimuli/lakes/40103_left.png,stimuli/lakes/40103_right.png,,,,0,30,30,3,1,,,,,
,,,,,,,$5ed192be5104050f3ce87e2d,2020-07-20_15h22.29.579,fisher_task,2020.1.3,Win32,60,-0.013888876,-0.281481493,1,0,0,0.482555,scale,,,,,,0.275930788,0.223606798,0.275930788,0.223606798,stimuli/lakes/506075_left.png,stimuli/lakes/506075_right.png,,,,0,31,31,75,1,,,,,
,,,,,,,$5ed192be5104050f3ce87e2d,2020-07-20_15h22.29.579,fisher_task,2020.1.3,Win32,60,0.112962978,-0.258333345,1,0,0,2.282675,scale,,,,,,0.1234,0.1,0.3702,0.3,stimuli/lakes/104050_left.png,stimuli/lakes/104050_right.png,,,,0,32,32,50,1,,,,,
,,,,,,,$5ed192be5104050f3ce87e2d,2020-07-20_15h22.29.579,fisher_task,2020.1.3,Win32,60,-0.159259248,-0.341666679,1,0,0,0.98266,scale,,,,,,0.174513954,0.141421356,0.349027907,0.282842712,stimuli/lakes/207090_left.png,stimuli/lakes/207090_right.png,,,,0,33,33,90,1,,,,,
,,,,,,,$5ed192be5104050f3ce87e2d,2020-07-20_15h22.29.579,fisher_task,2020.1.3,Win32,60,-0.14074073,-0.394444458,1,0,0,2.31614,scale,,,,,,0.21373507,0.173205081,0.326485712,0.264575131,stimuli/lakes/3070100_left.png,stimuli/lakes/3070100_right.png,,,,0,34,34,100,1,,,,,
,,,,,,,$5ed192be5104050f3ce87e2d,2020-07-20_15h22.29.579,fisher_task,2020.1.3,Win32,60,-0.006481468,-0.257407419,1,0,0,5.2312,scale,,,,,,0.21373507,0.173205081,0.326485712,0.264575131,stimuli/lakes/306073_left.png,stimuli/lakes/306073_right.png,,,,0,35,35,73,1,,,,,
,,,,,,,$5ed192be5104050f3ce87e2d,2020-07-20_15h22.29.579,fisher_task,2020.1.3,Win32,60,0.022222236,-0.274074086,1,0,0,4.598425,scale,,,,,,0.326485712,0.264575131,0.21373507,0.173205081,stimuli/lakes/703038_left.png,stimuli/lakes/703038_right.png,,,,0,36,36,38,1,,,,,
,,,,,,,$5ed192be5104050f3ce87e2d,2020-07-20_15h22.29.579,fisher_task,2020.1.3,Win32,60,-0.149074063,-0.422222236,1,0,0,2.24881,scale,,,,,,0.275930788,0.223606798,0.275930788,0.223606798,stimuli/lakes/5090125_left.png,stimuli/lakes/5090125_right.png,,,,0,37,37,125,1,,,,,
,,,,,,,$5ed192be5104050f3ce87e2d,2020-07-20_15h22.29.579,fisher_task,2020.1.3,Win32,60,0.137962978,-0.300925938,1,0,0,1.949045,scale,,,,,,0.302267034,0.244948974,0.2468,0.2,stimuli/lakes/60105_left.png,stimuli/lakes/60105_right.png,,,,0,38,38,5,1,,,,,
,,,,,,,$5ed192be5104050f3ce87e2d,2020-07-20_15h22.29.579,fisher_task,2020.1.3,Win32,60,-0.176851841,-0.409259329,1,0,0,1.18248,scale,,,,,,0.302267034,0.244948974,0.2468,0.2,stimuli/lakes/6090126_left.png,stimuli/lakes/6090126_right.png,,,,0,39,39,126,1,,,,,
,,,,,,,$5ed192be5104050f3ce87e2d,2020-07-20_15h22.29.579,fisher_task,2020.1.3,Win32,60,-0.139814804,-0.309259271,1,0,0,1.215765,scale,,,,,,0.326485712,0.264575131,0.21373507,0.173205081,stimuli/lakes/7070104_left.png,stimuli/lakes/7070104_right.png,,,,0,40,40,104,1,,,,,
,,,,,,,$5ed192be5104050f3ce87e2d,2020-07-20_15h22.29.579,fisher_task,2020.1.3,Win32,60,0.012962976,-0.250925937,1,0,0,1.282575,scale,,,,,,0.2468,0.2,0.302267034,0.244948974,stimuli/lakes/403026_left.png,stimuli/lakes/403026_right.png,,,,0,41,41,26,1,,,,,
,,,,,,,$5ed192be5104050f3ce87e2d,2020-07-20_15h22.29.579,fisher_task,2020.1.3,Win32,60,-0.1361111,-0.294444456,1,0,0,2.28202,scale,,,,,,0.3702,0.3,0.1234,0.1,stimuli/lakes/906088_left.png,stimuli/lakes/906088_right.png,,,,0,42,42,88,1,,,,,
,,,,,,,$5ed192be5104050f3ce87e2d,2020-07-20_15h22.29.579,fisher_task,2020.1.3,Win32,60,0.150000015,-0.412037051,1,0,0,1.61517,scale,,,,,,0.326485712,0.264575131,0.21373507,0.173205081,stimuli/lakes/70107_left.png,stimuli/lakes/70107_right.png,,,,0,43,43,7,1,,,,,
,,,,,,,$5ed192be5104050f3ce87e2d,2020-07-20_15h22.29.579,fisher_task,2020.1.3,Win32,60,-0.118518451,-0.358333403,1,0,0,1.51571,scale,,,,,,0.302267034,0.244948974,0.2468,0.2,stimuli/lakes/607094_left.png,stimuli/lakes/607094_right.png,,,space,0,44,44,94,1,2.68401,,,,
,,,,,,,$5ed192be5104050f3ce87e2d,2020-07-20_15h22.29.579,fisher_task,2020.1.3,Win32,60,1.32455E-08,-0.23796303,1,0,0,1.465885,scale,,,,,,0.2468,0.2,0.302267034,0.244948974,stimuli/lakes/4090124_left.png,stimuli/lakes/4090124_right.png,,,,0,45,45,124,1,,,,,
,,,,,,,$5ed192be5104050f3ce87e2d,2020-07-20_15h22.29.579,fisher_task,2020.1.3,Win32,60,0.011111181,-0.256481549,1,0,0,2.049275,scale,,,,,,0.275930788,0.223606798,0.275930788,0.223606798,stimuli/lakes/502016_left.png,stimuli/lakes/502016_right.png,,,,0,46,46,16,1,,,,,
,,,,,,,$5ed192be5104050f3ce87e2d,2020-07-20_15h22.29.579,fisher_task,2020.1.3,Win32,60,-0.159259248,-0.39537044,1,0,0,2.33248,scale,,,,,,0.21373507,0.173205081,0.326485712,0.264575131,stimuli/lakes/3080109_left.png,stimuli/lakes/3080109_right.png,,,,0,47,47,109,1,,,,,
,,,,,,,$5ed192be5104050f3ce87e2d,2020-07-20_15h22.29.579,fisher_task,2020.1.3,Win32,60,0.127777793,-0.304629642,1,0,0,1.665605,scale,,,,,,0.3702,0.3,0.1234,0.1,stimuli/lakes/902022_left.png,stimuli/lakes/902022_right.png,,,,0,48,48,22,1,,,,,
,,,,,,,$5ed192be5104050f3ce87e2d,2020-07-20_15h22.29.579,fisher_task,2020.1.3,Win32,60,0.003703717,-0.269444456,1,0,0,3.2318,scale,,,,,,0.174513954,0.141421356,0.349027907,0.282842712,stimuli/lakes/206072_left.png,stimuli/lakes/206072_right.png,,,,0,49,49,72,1,,,,,
,,,,,,,$5ed192be5104050f3ce87e2d,2020-07-20_15h22.29.579,fisher_task,2020.1.3,Win32,60,0.163888905,-0.415740754,1,0,0,2.149165,scale,,,,,,0.21373507,0.173205081,0.326485712,0.264575131,stimuli/lakes/302013_left.png,stimuli/lakes/302013_right.png,,,,0,50,50,13,1,,,,,
,,,,,,,$5ed192be5104050f3ce87e2d,2020-07-20_15h22.29.579,fisher_task,2020.1.3,Win32,60,-0.118518451,-0.312962975,1,0,0,3.165445,scale,,,,,,0.2468,0.2,0.302267034,0.244948974,stimuli/lakes/406083_left.png,stimuli/lakes/406083_right.png,,,,0,51,51,83,1,,,,,
,,,,,,,$5ed192be5104050f3ce87e2d,2020-07-20_15h22.29.579,fisher_task,2020.1.3,Win32,60,0.1351852,-0.303703716,1,0,0,1.432335,scale,,,,,,0.21373507,0.173205081,0.326485712,0.264575131,stimuli/lakes/303034_left.png,stimuli/lakes/303034_right.png,,,,0,52,52,34,1,,,,,
,,,,,,,$5ed192be5104050f3ce87e2d,2020-07-20_15h22.29.579,fisher_task,2020.1.3,Win32,60,-0.015740728,-0.277777789,1,0,0,3.198815,scale,,,,,,0.349027907,0.282842712,0.174513954,0.141421356,stimuli/lakes/804048_left.png,stimuli/lakes/804048_right.png,,,,0,53,53,48,1,,,,,
,,,,,,,$5ed192be5104050f3ce87e2d,2020-07-20_15h22.29.579,fisher_task,2020.1.3,Win32,60,-0.14074073,-0.401851865,1,0,0,2.315565,scale,,,,,,0.349027907,0.282842712,0.174513954,0.141421356,stimuli/lakes/806087_left.png,stimuli/lakes/806087_right.png,,,,0,54,54,87,1,,,,,
,,,,,,,$5ed192be5104050f3ce87e2d,2020-07-20_15h22.29.579,fisher_task,2020.1.3,Win32,60,0.161111127,-0.359259272,1,0,0,1.93244,scale,,,,,,0.1234,0.1,0.3702,0.3,stimuli/lakes/104041_left.png,stimuli/lakes/104041_right.png,,,,0,55,55,41,1,,,,,
,,,,,,,$5ed192be5104050f3ce87e2d,2020-07-20_15h22.29.579,fisher_task,2020.1.3,Win32,60,-0.00833332,-0.271296308,1,0,0,1.665705,scale,,,,,,0.174513954,0.141421356,0.349027907,0.282842712,stimuli/lakes/204051_left.png,stimuli/lakes/204051_right.png,,,,0,56,56,51,1,,,,,
,,,,,,,$5ed192be5104050f3ce87e2d,2020-07-20_15h22.29.579,fisher_task,2020.1.3,Win32,60,0.011111181,-0.239814826,1,0,0,1.766135,scale,,,,,,0.302267034,0.244948974,0.2468,0.2,stimuli/lakes/602017_left.png,stimuli/lakes/602017_right.png,,,,0,57,57,17,1,,,,,
,,,,,,,$5ed192be5104050f3ce87e2d,2020-07-20_15h22.29.579,fisher_task,2020.1.3,Win32,60,0.112037052,-0.274074086,1,0,0,2.06575,scale,,,,,,0.2468,0.2,0.302267034,0.244948974,stimuli/lakes/405064_left.png,stimuli/lakes/405064_right.png,,,,0,58,58,64,1,,,,,
,,,,,,,$5ed192be5104050f3ce87e2d,2020-07-20_15h22.29.579,fisher_task,2020.1.3,Win32,60,0.162037053,-0.400925939,1,0,0,1.665945,scale,,,,,,0.21373507,0.173205081,0.326485712,0.264575131,stimuli/lakes/30101_left.png,stimuli/lakes/30101_right.png,,,,0,59,59,1,1,,,,,
,,,,,,,$5ed192be5104050f3ce87e2d,2020-07-20_15h22.29.579,fisher_task,2020.1.3,Win32,60,0.150925941,-0.372222292,1,0,0,2.648055,scale,,,,,,0.302267034,0.244948974,0.2468,0.2,stimuli/lakes/602018_left.png,stimuli/lakes/602018_right.png,,,,0,60,60,18,1,,,,,
,,,,,,,$5ed192be5104050f3ce87e2d,2020-07-20_15h22.29.579,fisher_task,2020.1.3,Win32,60,-0.177777767,-0.412037051,1,0,0,1.29917,scale,,,,,,0.302267034,0.244948974,0.2468,0.2,stimuli/lakes/6080115_left.png,stimuli/lakes/6080115_right.png,,,,0,61,61,115,1,,,,,
,,,,,,,$5ed192be5104050f3ce87e2d,2020-07-20_15h22.29.579,fisher_task,2020.1.3,Win32,60,-0.143518507,-0.322222234,1,0,0,2.049105,scale,,,,,,0.349027907,0.282842712,0.174513954,0.141421356,stimuli/lakes/805069_left.png,stimuli/lakes/805069_right.png,,,,0,62,62,69,1,,,,,
,,,,,,,$5ed192be5104050f3ce87e2d,2020-07-20_15h22.29.579,fisher_task,2020.1.3,Win32,60,-0.185185175,-0.436111125,1,0,0,1.48221,scale,,,,,,0.326485712,0.264575131,0.21373507,0.173205081,stimuli/lakes/7090129_left.png,stimuli/lakes/7090129_right.png,,,,0,63,63,129,1,,,,,
,,,,,,,$5ed192be5104050f3ce87e2d,2020-07-20_15h22.29.579,fisher_task,2020.1.3,Win32,60,-0.137036969,-0.35277779,1,0,0,2.048885,scale,,,,,,0.302267034,0.244948974,0.2468,0.2,stimuli/lakes/606085_left.png,stimuli/lakes/606085_right.png,,,,0,64,64,85,1,,,,,
,,,,,,,$5ed192be5104050f3ce87e2d,2020-07-20_15h22.29.579,fisher_task,2020.1.3,Win32,60,0.162037053,-0.437962977,1,0,0,1.582165,scale,,,,,,0.275930788,0.223606798,0.275930788,0.223606798,stimuli/lakes/50104_left.png,stimuli/lakes/50104_right.png,,,,0,65,65,4,1,,,,,
,,,,,,,$5ed192be5104050f3ce87e2d,2020-07-20_15h22.29.579,fisher_task,2020.1.3,Win32,60,-0.079629618,-0.277777789,1,0,0,2.54874,scale,,,,,,0.174513954,0.141421356,0.349027907,0.282842712,stimuli/lakes/207099_left.png,stimuli/lakes/207099_right.png,,,space,0,66,66,99,1,1.478915,,,,
,,,,,,,$5ed192be5104050f3ce87e2d,2020-07-20_15h22.29.579,fisher_task,2020.1.3,Win32,60,-0.124074063,-0.306481493,1,0,0,2.83218,scale,,,,,,0.3702,0.3,0.1234,0.1,stimuli/lakes/904058_left.png,stimuli/lakes/904058_right.png,,,,0,67,67,58,1,,,,,
,,,,,,,$5ed192be5104050f3ce87e2d,2020-07-20_15h22.29.579,fisher_task,2020.1.3,Win32,60,0.090740755,-0.254629641,1,0,0,1.699085,scale,,,,,,0.2468,0.2,0.302267034,0.244948974,stimuli/lakes/403035_left.png,stimuli/lakes/403035_right.png,,,,0,68,68,35,1,,,,,
,,,,,,,$5ed192be5104050f3ce87e2d,2020-07-20_15h22.29.579,fisher_task,2020.1.3,Win32,60,-0.153703693,-0.420370384,1,0,0,1.38251,scale,,,,,,0.21373507,0.173205081,0.326485712,0.264575131,stimuli/lakes/3090122_left.png,stimuli/lakes/3090122_right.png,,,,0,69,69,122,1,,,,,
,,,,,,,$5ed192be5104050f3ce87e2d,2020-07-20_15h22.29.579,fisher_task,2020.1.3,Win32,60,0.145370386,-0.325000012,1,0,0,3.83171,scale,,,,,,0.3702,0.3,0.1234,0.1,stimuli/lakes/901010_left.png,stimuli/lakes/901010_right.png,,,,0,70,70,10,1,,,,,
,,,,,,,$5ed192be5104050f3ce87e2d,2020-07-20_15h22.29.579,fisher_task,2020.1.3,Win32,60,0.087037052,-0.264814826,1,0,0,3.348785,scale,,,,,,0.1234,0.1,0.3702,0.3,stimuli/lakes/107089_left.png,stimuli/lakes/107089_right.png,,,,0,71,71,89,1,,,,,
,,,,,,,$5ed192be5104050f3ce87e2d,2020-07-20_15h22.29.579,fisher_task,2020.1.3,Win32,60,-0.091666655,-0.275925937,1,0,0,1.71548,scale,,,,,,0.21373507,0.173205081,0.326485712,0.264575131,stimuli/lakes/306082_left.png,stimuli/lakes/306082_right.png,,,,0,72,72,82,1,,,,,
,,,,,,,$5ed192be5104050f3ce87e2d,2020-07-20_15h22.29.579,fisher_task,2020.1.3,Win32,60,0.16944446,-0.349074143,1,0,0,1.31597,scale,,,,,,0.21373507,0.173205081,0.326485712,0.264575131,stimuli/lakes/30100_left.png,stimuli/lakes/30100_right.png,,,,0,73,73,0,1,,,,,
,,,,,,,$5ed192be5104050f3ce87e2d,2020-07-20_15h22.29.579,fisher_task,2020.1.3,Win32,60,-0.157407397,-0.353703773,1,0,0,1.749255,scale,,,,,,0.275930788,0.223606798,0.275930788,0.223606798,stimuli/lakes/507093_left.png,stimuli/lakes/507093_right.png,,,,0,74,74,93,1,,,,,
,,,,,,,$5ed192be5104050f3ce87e2d,2020-07-20_15h22.29.579,fisher_task,2020.1.3,Win32,60,-0.158333322,-0.401851865,1,0,0,1.43225,scale,,,,,,0.326485712,0.264575131,0.21373507,0.173205081,stimuli/lakes/705068_left.png,stimuli/lakes/705068_right.png,,,,0,75,75,68,1,,,,,
,,,,,,,$5ed192be5104050f3ce87e2d,2020-07-20_15h22.29.579,fisher_task,2020.1.3,Win32,60,0.002777791,-0.246296307,1,0,0,1.265845,scale,,,,,,0.349027907,0.282842712,0.174513954,0.141421356,stimuli/lakes/802021_left.png,stimuli/lakes/802021_right.png,,,,0,76,76,21,1,,,,,
,,,,,,,$5ed192be5104050f3ce87e2d,2020-07-20_15h22.29.579,fisher_task,2020.1.3,Win32,60,0.148148164,-0.354629642,1,0,0,1.36607,scale,,,,,,0.174513954,0.141421356,0.349027907,0.282842712,stimuli/lakes/203024_left.png,stimuli/lakes/203024_right.png,,,,0,77,77,24,1,,,,,
,,,,,,,$5ed192be5104050f3ce87e2d,2020-07-20_15h22.29.579,fisher_task,2020.1.3,Win32,60,-0.166666656,-0.367592662,1,0,0,1.082615,scale,,,,,,0.302267034,0.244948974,0.2468,0.2,stimuli/lakes/6090127_left.png,stimuli/lakes/6090127_right.png,,,,0,78,78,127,1,,,,,
,,,,,,,$5ed192be5104050f3ce87e2d,2020-07-20_15h22.29.579,fisher_task,2020.1.3,Win32,60,-0.13148147,-0.319444457,1,0,0,1.482815,scale,,,,,,0.3702,0.3,0.1234,0.1,stimuli/lakes/9070106_left.png,stimuli/lakes/9070106_right.png,,,,0,79,79,106,1,,,,,
,,,,,,,$5ed192be5104050f3ce87e2d,2020-07-20_15h22.29.579,fisher_task,2020.1.3,Win32,60,-0.143518507,-0.362963032,1,0,0,0.982305,scale,,,,,,0.302267034,0.244948974,0.2468,0.2,stimuli/lakes/6070103_left.png,stimuli/lakes/6070103_right.png,,,,0,80,80,103,1,,,,,
,,,,,,,$5ed192be5104050f3ce87e2d,2020-07-20_15h22.29.579,fisher_task,2020.1.3,Win32,60,0.111111126,-0.285185197,1,0,0,1.432495,scale,,,,,,0.349027907,0.282842712,0.174513954,0.141421356,stimuli/lakes/80109_left.png,stimuli/lakes/80109_right.png,,,,0,81,81,9,1,,,,,
,,,,,,,$5ed192be5104050f3ce87e2d,2020-07-20_15h22.29.579,fisher_task,2020.1.3,Win32,60,0.153703719,-0.383333346,1,0,0,1.416045,scale,,,,,,0.21373507,0.173205081,0.326485712,0.264575131,stimuli/lakes/303025_left.png,stimuli/lakes/303025_right.png,,,,0,82,82,25,1,,,,,
,,,,,,,$5ed192be5104050f3ce87e2d,2020-07-20_15h22.29.579,fisher_task,2020.1.3,Win32,60,-0.083333321,-0.272222234,1,0,0,2.448515,scale,,,,,,0.302267034,0.244948974,0.2468,0.2,stimuli/lakes/605066_left.png,stimuli/lakes/605066_right.png,,,,0,83,83,66,1,,,,,
,,,,,,,$5ed192be5104050f3ce87e2d,2020-07-20_15h22.29.579,fisher_task,2020.1.3,Win32,60,-0.007407338,-0.245370381,1,0,0,1.5327,scale,,,,,,0.1234,0.1,0.3702,0.3,stimuli/lakes/1080107_left.png,stimuli/lakes/1080107_right.png,,,,0,84,84,107,1,,,,,
,,,,,,,$5ed192be5104050f3ce87e2d,2020-07-20_15h22.29.579,fisher_task,2020.1.3,Win32,60,-0.157407397,-0.35740742,1,0,0,1.299325,scale,,,,,,0.2468,0.2,0.302267034,0.244948974,stimuli/lakes/4070101_left.png,stimuli/lakes/4070101_right.png,,,,0,85,85,101,1,,,,,
,,,,,,,$5ed192be5104050f3ce87e2d,2020-07-20_15h22.29.579,fisher_task,2020.1.3,Win32,60,-0.007407338,-0.280555567,1,0,0,1.316105,scale,,,,,,0.302267034,0.244948974,0.2468,0.2,stimuli/lakes/605065_left.png,stimuli/lakes/605065_right.png,,,,0,86,86,65,1,,,,,
,,,,,,,$5ed192be5104050f3ce87e2d,2020-07-20_15h22.29.579,fisher_task,2020.1.3,Win32,60,-0.139814804,-0.349074143,1,0,0,1.18232,scale,,,,,,0.3702,0.3,0.1234,0.1,stimuli/lakes/907097_left.png,stimuli/lakes/907097_right.png,,,,0,87,87,97,1,,,,,
,,,,,,,$5ed192be5104050f3ce87e2d,2020-07-20_15h22.29.579,fisher_task,2020.1.3,Win32,60,0.100000015,-0.277777789,1,0,0,1.299205,scale,,,,,,0.2468,0.2,0.302267034,0.244948974,stimuli/lakes/4090123_left.png,stimuli/lakes/4090123_right.png,,,space,0,88,88,123,1,1.42487,,,,
,,,,,,,$5ed192be5104050f3ce87e2d,2020-07-20_15h22.29.579,fisher_task,2020.1.3,Win32,60,-0.174999989,-0.400925939,1,0,0,1.732855,scale,,,,,,0.326485712,0.264575131,0.21373507,0.173205081,stimuli/lakes/704056_left.png,stimuli/lakes/704056_right.png,,,,0,89,89,56,1,,,,,
,,,,,,,$5ed192be5104050f3ce87e2d,2020-07-20_15h22.29.579,fisher_task,2020.1.3,Win32,60,-0.164814748,-0.39166668,1,0,0,1.31632,scale,,,,,,0.326485712,0.264575131,0.21373507,0.173205081,stimuli/lakes/706086_left.png,stimuli/lakes/706086_right.png,,,,0,90,90,86,1,,,,,
,,,,,,,$5ed192be5104050f3ce87e2d,2020-07-20_15h22.29.579,fisher_task,2020.1.3,Win32,60,-0.114814803,-0.279629698,1,0,0,3.048525,scale,,,,,,0.2468,0.2,0.302267034,0.244948974,stimuli/lakes/4080111_left.png,stimuli/lakes/4080111_right.png,,,,0,91,91,111,1,,,,,
,,,,,,,$5ed192be5104050f3ce87e2d,2020-07-20_15h22.29.579,fisher_task,2020.1.3,Win32,60,-0.01759258,-0.255555567,1,0,0,1.282595,scale,,,,,,0.2468,0.2,0.302267034,0.244948974,stimuli/lakes/407092_left.png,stimuli/lakes/407092_right.png,,,,0,92,92,92,1,,,,,
,,,,,,,$5ed192be5104050f3ce87e2d,2020-07-20_15h22.29.579,fisher_task,2020.1.3,Win32,60,-0.012036967,-0.260185197,1,0,0,1.01589,scale,,,,,,0.2468,0.2,0.302267034,0.244948974,stimuli/lakes/4080112_left.png,stimuli/lakes/4080112_right.png,,,,0,93,93,112,1,,,,,
,,,,,,,$5ed192be5104050f3ce87e2d,2020-07-20_15h22.29.579,fisher_task,2020.1.3,Win32,60,0.108333348,-0.276851863,1,0,0,2.915285,scale,,,,,,0.174513954,0.141421356,0.349027907,0.282842712,stimuli/lakes/2080108_left.png,stimuli/lakes/2080108_right.png,,,,0,94,94,108,1,,,,,
,,,,,,,$5ed192be5104050f3ce87e2d,2020-07-20_15h22.29.579,fisher_task,2020.1.3,Win32,60,1.32455E-08,-0.250925937,1,0,0,1.515705,scale,,,,,,0.1234,0.1,0.3702,0.3,stimuli/lakes/106071_left.png,stimuli/lakes/106071_right.png,,,,0,95,95,71,1,,,,,
,,,,,,,$5ed192be5104050f3ce87e2d,2020-07-20_15h22.29.579,fisher_task,2020.1.3,Win32,60,0.127777793,-0.331481494,1,0,0,1.49918,scale,,,,,,0.1234,0.1,0.3702,0.3,stimuli/lakes/103032_left.png,stimuli/lakes/103032_right.png,,,,0,96,96,32,1,,,,,
,,,,,,,$5ed192be5104050f3ce87e2d,2020-07-20_15h22.29.579,fisher_task,2020.1.3,Win32,60,-0.149999989,-0.378703717,1,0,0,0.999355,scale,,,,,,0.326485712,0.264575131,0.21373507,0.173205081,stimuli/lakes/7080117_left.png,stimuli/lakes/7080117_right.png,,,,0,97,97,117,1,,,,,
,,,,,,,$5ed192be5104050f3ce87e2d,2020-07-20_15h22.29.579,fisher_task,2020.1.3,Win32,60,-0.025925857,-0.260185197,1,0,0,1.64937,scale,,,,,,0.302267034,0.244948974,0.2468,0.2,stimuli/lakes/603028_left.png,stimuli/lakes/603028_right.png,,,,0,98,98,28,1,,,,,
,,,,,,,$5ed192be5104050f3ce87e2d,2020-07-20_15h22.29.579,fisher_task,2020.1.3,Win32,60,-0.150925858,-0.339814884,1,0,0,2.016235,scale,,,,,,0.174513954,0.141421356,0.349027907,0.282842712,stimuli/lakes/2090120_left.png,stimuli/lakes/2090120_right.png,,,,0,99,99,120,1,,,,,
,,,,,,,$5ed192be5104050f3ce87e2d,2020-07-20_15h22.29.579,fisher_task,2020.1.3,Win32,60,0.096296311,-0.284259327,1,0,0,1.232615,scale,,,,,,0.326485712,0.264575131,0.21373507,0.173205081,stimuli/lakes/703029_left.png,stimuli/lakes/703029_right.png,,,,0,100,100,29,1,,,,,
,,,,,,,$5ed192be5104050f3ce87e2d,2020-07-20_15h22.29.579,fisher_task,2020.1.3,Win32,60,-0.156481471,-0.377777791,1,0,0,1.032965,scale,,,,,,0.302267034,0.244948974,0.2468,0.2,stimuli/lakes/6080114_left.png,stimuli/lakes/6080114_right.png,,,,0,101,101,114,1,,,,,
,,,,,,,$5ed192be5104050f3ce87e2d,2020-07-20_15h22.29.579,fisher_task,2020.1.3,Win32,60,0.125925941,-0.276851863,1,0,0,2.24886,scale,,,,,,0.3702,0.3,0.1234,0.1,stimuli/lakes/903040_left.png,stimuli/lakes/903040_right.png,,,,0,102,102,40,1,,,,,
,,,,,,,$5ed192be5104050f3ce87e2d,2020-07-20_15h22.29.579,fisher_task,2020.1.3,Win32,60,0.129629645,-0.298148217,1,0,0,0.966045,scale,,,,,,0.1234,0.1,0.3702,0.3,stimuli/lakes/103023_left.png,stimuli/lakes/103023_right.png,,,,0,103,103,23,1,,,,,
,,,,,,,$5ed192be5104050f3ce87e2d,2020-07-20_15h22.29.579,fisher_task,2020.1.3,Win32,60,-0.13240734,-0.33240742,1,0,0,1.26608,scale,,,,,,0.3702,0.3,0.1234,0.1,stimuli/lakes/906079_left.png,stimuli/lakes/906079_right.png,,,,0,104,104,79,1,,,,,
,,,,,,,$5ed192be5104050f3ce87e2d,2020-07-20_15h22.29.579,fisher_task,2020.1.3,Win32,60,-0.002777708,-0.24722229,1,0,0,1.416395,scale,,,,,,0.349027907,0.282842712,0.174513954,0.141421356,stimuli/lakes/804057_left.png,stimuli/lakes/804057_right.png,,,,0,105,105,57,1,,,,,
,,,,,,,$5ed192be5104050f3ce87e2d,2020-07-20_15h22.29.579,fisher_task,2020.1.3,Win32,60,0.053703718,-0.25185192,1,0,0,0.94911,scale,,,,,,0.174513954,0.141421356,0.349027907,0.282842712,stimuli/lakes/206081_left.png,stimuli/lakes/206081_right.png,,,,0,106,106,81,1,,,,,
,,,,,,,$5ed192be5104050f3ce87e2d,2020-07-20_15h22.29.579,fisher_task,2020.1.3,Win32,60,-0.153703693,-0.341666679,1,0,0,1.832515,scale,,,,,,0.21373507,0.173205081,0.326485712,0.264575131,stimuli/lakes/3080110_left.png,stimuli/lakes/3080110_right.png,,,,0,107,107,110,1,,,,,
,,,,,,,$5ed192be5104050f3ce87e2d,2020-07-20_15h22.29.579,fisher_task,2020.1.3,Win32,60,-0.154629619,-0.359259272,1,0,0,2.03222,scale,,,,,,0.326485712,0.264575131,0.21373507,0.173205081,stimuli/lakes/705067_left.png,stimuli/lakes/705067_right.png,,,,0,108,108,67,1,,,,,
,,,,,,,$5ed192be5104050f3ce87e2d,2020-07-20_15h22.29.579,fisher_task,2020.1.3,Win32,60,0.057407478,-0.2638889,1,0,0,3.93186,scale,,,,,,0.21373507,0.173205081,0.326485712,0.264575131,stimuli/lakes/305062_left.png,stimuli/lakes/305062_right.png,,,,0,109,109,62,1,,,,,
,,,,,,,$5ed192be5104050f3ce87e2d,2020-07-20_15h22.29.579,fisher_task,2020.1.3,Win32,60,-0.180555545,-0.409259329,1,0,0,1.082695,scale,,,,,,0.326485712,0.264575131,0.21373507,0.173205081,stimuli/lakes/706077_left.png,stimuli/lakes/706077_right.png,,,space,0,110,110,77,1,1.66992,,,,
,,,,,,,$5ed192be5104050f3ce87e2d,2020-07-20_15h22.29.579,fisher_task,2020.1.3,Win32,60,0.112962978,-0.286111123,1,0,0,1.29882,scale,,,,,,0.174513954,0.141421356,0.349027907,0.282842712,stimuli/lakes/205060_left.png,stimuli/lakes/205060_right.png,,,,0,111,111,60,1,,,,,
,,,,,,,$5ed192be5104050f3ce87e2d,2020-07-20_15h22.29.579,fisher_task,2020.1.3,Win32,60,-0.150925858,-0.389814828,1,0,0,0.932565,scale,,,,,,0.349027907,0.282842712,0.174513954,0.141421356,stimuli/lakes/807096_left.png,stimuli/lakes/807096_right.png,,,,0,112,112,96,1,,,,,
,,,,,,,$5ed192be5104050f3ce87e2d,2020-07-20_15h22.29.579,fisher_task,2020.1.3,Win32,60,-0.120370359,-0.297222234,1,0,0,1.43218,scale,,,,,,0.275930788,0.223606798,0.275930788,0.223606798,stimuli/lakes/506084_left.png,stimuli/lakes/506084_right.png,,,,0,113,113,84,1,,,,,
,,,,,,,$5ed192be5104050f3ce87e2d,2020-07-20_15h22.29.579,fisher_task,2020.1.3,Win32,60,0.019444458,-0.230555566,1,0,0,1.498705,scale,,,,,,0.326485712,0.264575131,0.21373507,0.173205081,stimuli/lakes/702020_left.png,stimuli/lakes/702020_right.png,,,,0,114,114,20,1,,,,,
,,,,,,,$5ed192be5104050f3ce87e2d,2020-07-20_15h22.29.579,fisher_task,2020.1.3,Win32,60,-0.007407338,-0.255555567,1,0,0,1.049415,scale,,,,,,0.21373507,0.173205081,0.326485712,0.264575131,stimuli/lakes/305061_left.png,stimuli/lakes/305061_right.png,,,,0,115,115,61,1,,,,,
,,,,,,,$5ed192be5104050f3ce87e2d,2020-07-20_15h22.29.579,fisher_task,2020.1.3,Win32,60,-0.151851841,-0.367592662,1,0,0,0.899425,scale,,,,,,0.275930788,0.223606798,0.275930788,0.223606798,stimuli/lakes/5080113_left.png,stimuli/lakes/5080113_right.png,,,,0,116,116,113,1,,,,,
,,,,,,,$5ed192be5104050f3ce87e2d,2020-07-20_15h22.29.579,fisher_task,2020.1.3,Win32,60,-0.147222211,-0.324074086,1,0,0,0.966055,scale,,,,,,0.302267034,0.244948974,0.2468,0.2,stimuli/lakes/606076_left.png,stimuli/lakes/606076_right.png,,,,0,117,117,76,1,,,,,
,,,,,,,$5ed192be5104050f3ce87e2d,2020-07-20_15h22.29.579,fisher_task,2020.1.3,Win32,60,-0.151851841,-0.334259272,1,0,0,0.79935,scale,,,,,,0.349027907,0.282842712,0.174513954,0.141421356,stimuli/lakes/8070105_left.png,stimuli/lakes/8070105_right.png,,,,0,118,118,105,1,,,,,
,,,,,,,$5ed192be5104050f3ce87e2d,2020-07-20_15h22.29.579,fisher_task,2020.1.3,Win32,60,0.128703719,-0.317592605,1,0,0,0.966175,scale,,,,,,0.1234,0.1,0.3702,0.3,stimuli/lakes/105059_left.png,stimuli/lakes/105059_right.png,,,,0,119,119,59,1,,,,,
,,,,,,,$5ed192be5104050f3ce87e2d,2020-07-20_15h22.29.579,fisher_task,2020.1.3,Win32,60,0.098148163,-0.270370438,1,0,0,1.199625,scale,,,,,,0.302267034,0.244948974,0.2468,0.2,stimuli/lakes/604046_left.png,stimuli/lakes/604046_right.png,,,,0,120,120,46,1,,,,,
,,,,,,,$5ed192be5104050f3ce87e2d,2020-07-20_15h22.29.579,fisher_task,2020.1.3,Win32,60,0.109259274,-0.264814826,1,0,0,1.11648,scale,,,,,,0.275930788,0.223606798,0.275930788,0.223606798,stimuli/lakes/504054_left.png,stimuli/lakes/504054_right.png,,,,0,121,121,54,1,,,,,
,,,,,,,$5ed192be5104050f3ce87e2d,2020-07-20_15h22.29.579,fisher_task,2020.1.3,Win32,60,0.112037052,-0.274074086,1,0,0,1.26586,scale,,,,,,0.349027907,0.282842712,0.174513954,0.141421356,stimuli/lakes/803030_left.png,stimuli/lakes/803030_right.png,,,,0,122,122,30,1,,,,,
,,,,,,,$5ed192be5104050f3ce87e2d,2020-07-20_15h22.29.579,fisher_task,2020.1.3,Win32,60,-0.080555544,-0.260185197,1,0,0,2.54887,scale,,,,,,0.1234,0.1,0.3702,0.3,stimuli/lakes/1090119_left.png,stimuli/lakes/1090119_right.png,,,,0,123,123,119,1,,,,,
,,,,,,,$5ed192be5104050f3ce87e2d,2020-07-20_15h22.29.579,fisher_task,2020.1.3,Win32,60,0.027777791,-0.249074085,1,0,0,2.232505,scale,,,,,,0.3702,0.3,0.1234,0.1,stimuli/lakes/904049_left.png,stimuli/lakes/904049_right.png,,,,0,124,124,49,1,,,,,
,,,,,,,$5ed192be5104050f3ce87e2d,2020-07-20_15h22.29.579,fisher_task,2020.1.3,Win32,60,-0.114814803,-0.295370382,1,0,0,1.232355,scale,,,,,,0.326485712,0.264575131,0.21373507,0.173205081,stimuli/lakes/70108_left.png,stimuli/lakes/70108_right.png,,,,0,125,125,8,1,,,,,
,,,,,,,$5ed192be5104050f3ce87e2d,2020-07-20_15h22.29.579,fisher_task,2020.1.3,Win32,60,0.097222237,-0.277777789,1,0,0,1.532385,scale,,,,,,0.174513954,0.141421356,0.349027907,0.282842712,stimuli/lakes/204042_left.png,stimuli/lakes/204042_right.png,,,,0,126,126,42,1,,,,,
,,,,,,,$5ed192be5104050f3ce87e2d,2020-07-20_15h22.29.579,fisher_task,2020.1.3,Win32,60,0.161111127,-0.435185199,1,0,0,1.432515,scale,,,,,,0.2468,0.2,0.302267034,0.244948974,stimuli/lakes/40102_left.png,stimuli/lakes/40102_right.png,,,,0,127,127,2,1,,,,,
,,,,,,,$5ed192be5104050f3ce87e2d,2020-07-20_15h22.29.579,fisher_task,2020.1.3,Win32,60,-0.175925915,-0.385185198,1,0,0,1.465815,scale,,,,,,0.349027907,0.282842712,0.174513954,0.141421356,stimuli/lakes/806078_left.png,stimuli/lakes/806078_right.png,,,,0,128,128,78,1,,,,,
,,,,,,,$5ed192be5104050f3ce87e2d,2020-07-20_15h22.29.579,fisher_task,2020.1.3,Win32,60,0.14907409,-0.346296309,1,0,0,1.01635,scale,,,,,,0.21373507,0.173205081,0.326485712,0.264575131,stimuli/lakes/302012_left.png,stimuli/lakes/302012_right.png,,,,0,129,129,12,1,,,,,
,,,,,,,$5ed192be5104050f3ce87e2d,2020-07-20_15h22.29.579,fisher_task,2020.1.3,Win32,60,,,,,,,,,,,,,,,,,,,,,,,,,,,,space,3.4595,space,3.18174
