keySpace.keys,keySpace.rt,instructions.thisRepN,instructions.thisTrialN,instructions.thisN,instructions.thisIndex,instructions.ran,participant,date,expName,psychopyVersion,OS,frameRate,mouse.x,mouse.y,mouse.leftButton,mouse.midButton,mouse.rightButton,mouse.time,mouse.clicked_name,training.thisRepN,training.thisTrialN,training.thisN,training.thisIndex,training.ran,widthBasketLeft,heightBasketLeft,widthBasketRight,heightBasketRight,leftLake,rightLake,space2.keys,space2.rt,space1.keys,trials.thisRepN,trials.thisTrialN,trials.thisN,trials.thisIndex,trials.ran,space1.rt,finalSpace1.keys,finalSpace1.rt,finalSpace2.keys,finalSpace2.rt
space,0.87134,0,0,0,0,1,$5eab22c33121c10d6b9f757b,2020-07-21_16h13.31.604,fisher_task,2020.1.3,Win32,60,,,,,,,,,,,,,,,,,,,,,,,,,,,,,,,
,,1,0,1,0,1,$5eab22c33121c10d6b9f757b,2020-07-21_16h13.31.604,fisher_task,2020.1.3,Win32,60,,,,,,,,,,,,,,,,,,,,,,,,,,,,,,,
,,,,,,,$5eab22c33121c10d6b9f757b,2020-07-21_16h13.31.604,fisher_task,2020.1.3,Win32,60,-0.002604167,-0.424479167,1,0,0,11.814565,scale,0,0,0,0,1,0.275930788,0.223606798,0.275930788,0.223606798,stimuli/training/20_left.png,stimuli/training/20_right.png,,,,,,,,,,,,,
,,,,,,,$5eab22c33121c10d6b9f757b,2020-07-21_16h13.31.604,fisher_task,2020.1.3,Win32,60,-0.024739583,-0.41015625,1,0,0,3.64946,scale,0,1,1,1,1,0.275930788,0.223606798,0.275930788,0.223606798,stimuli/training/80_left.png,stimuli/training/80_right.png,,,,,,,,,,,,,
,,,,,,,$5eab22c33121c10d6b9f757b,2020-07-21_16h13.31.604,fisher_task,2020.1.3,Win32,60,0.131510417,-0.33203125,1,0,0,21.69776,scale,0,2,2,2,1,0.174513954,0.141421356,0.349027907,0.282842712,stimuli/training/50_left.png,stimuli/training/50_right.png,,,,,,,,,,,,,
,,,,,,,$5eab22c33121c10d6b9f757b,2020-07-21_16h13.31.604,fisher_task,2020.1.3,Win32,60,-0.165364583,-0.4140625,1,0,0,6.46528,scale,0,3,3,3,1,0.349027907,0.282842712,0.174513954,0.141421356,stimuli/training/50_left.png,stimuli/training/50_right.png,,,,,,,,,,,,,
,,,,,,,$5eab22c33121c10d6b9f757b,2020-07-21_16h13.31.604,fisher_task,2020.1.3,Win32,60,0.126302083,-0.319010417,1,0,0,4.116035,scale,0,4,4,4,1,0.275930788,0.223606798,0.275930788,0.223606798,stimuli/training/50_left.png,stimuli/training/50_right.png,,,,,,,,,,,,,
,,,,,,,$5eab22c33121c10d6b9f757b,2020-07-21_16h13.31.604,fisher_task,2020.1.3,Win32,60,0.130208333,-0.40625,1,0,0,3.89935,scale,0,5,5,5,1,0.174513954,0.141421356,0.349027907,0.282842712,stimuli/training/20_left.png,stimuli/training/20_right.png,,,,,,,,,,,,,
,,,,,,,$5eab22c33121c10d6b9f757b,2020-07-21_16h13.31.604,fisher_task,2020.1.3,Win32,60,-0.16015625,-0.326822917,1,0,0,4.54939,scale,0,6,6,6,1,0.349027907,0.282842712,0.174513954,0.141421356,stimuli/training/80_left.png,stimuli/training/80_right.png,,,,,,,,,,,,,
,,,,,,,$5eab22c33121c10d6b9f757b,2020-07-21_16h13.31.604,fisher_task,2020.1.3,Win32,60,0.106770833,-0.34765625,1,0,0,4.23267,scale,0,7,7,7,1,0.1234,0.1,0.3702,0.3,stimuli/training/30_left.png,stimuli/training/30_right.png,,,,,,,,,,,,,
,,,,,,,$5eab22c33121c10d6b9f757b,2020-07-21_16h13.31.604,fisher_task,2020.1.3,Win32,60,-0.165364583,-0.42578125,1,0,0,1.58286,scale,0,8,8,8,1,0.3702,0.3,0.1234,0.1,stimuli/training/70_left.png,stimuli/training/70_right.png,,,,,,,,,,,,,
,,,,,,,$5eab22c33121c10d6b9f757b,2020-07-21_16h13.31.604,fisher_task,2020.1.3,Win32,60,-0.204427083,-0.459635417,1,0,0,1.44901,scale,0,9,9,9,1,0.326485712,0.264575131,0.21373507,0.173205081,stimuli/training/90_left.png,stimuli/training/90_right.png,,,,,,,,,,,,,
,,,,,,,$5eab22c33121c10d6b9f757b,2020-07-21_16h13.31.604,fisher_task,2020.1.3,Win32,60,0.143229167,-0.419270833,1,0,0,0.84947,scale,0,10,10,10,1,0.21373507,0.173205081,0.326485712,0.264575131,stimuli/training/10_left.png,stimuli/training/10_right.png,,,,,,,,,,,,,
,,,,,,,$5eab22c33121c10d6b9f757b,2020-07-21_16h13.31.604,fisher_task,2020.1.3,Win32,60,-0.177083333,-0.43359375,1,0,0,3.550135,scale,,,,,,0.302267034,0.244948974,0.2468,0.2,stimuli/lakes/606085_left.png,stimuli/lakes/606085_right.png,space,16.916495,,0,0,0,85,1,,,,,
,,,,,,,$5eab22c33121c10d6b9f757b,2020-07-21_16h13.31.604,fisher_task,2020.1.3,Win32,60,0.154947917,-0.4140625,1,0,0,0.847915,scale,,,,,,0.1234,0.1,0.3702,0.3,stimuli/lakes/105059_left.png,stimuli/lakes/105059_right.png,,,,0,1,1,59,1,,,,,
,,,,,,,$5eab22c33121c10d6b9f757b,2020-07-21_16h13.31.604,fisher_task,2020.1.3,Win32,60,0.169270833,-0.404947917,1,0,0,0.733315,scale,,,,,,0.2468,0.2,0.302267034,0.244948974,stimuli/lakes/402015_left.png,stimuli/lakes/402015_right.png,,,,0,2,2,15,1,,,,,
,,,,,,,$5eab22c33121c10d6b9f757b,2020-07-21_16h13.31.604,fisher_task,2020.1.3,Win32,60,-0.166666667,-0.37109375,1,0,0,0.680805,scale,,,,,,0.349027907,0.282842712,0.174513954,0.141421356,stimuli/lakes/8070105_left.png,stimuli/lakes/8070105_right.png,,,,0,3,3,105,1,,,,,
,,,,,,,$5eab22c33121c10d6b9f757b,2020-07-21_16h13.31.604,fisher_task,2020.1.3,Win32,60,-0.0078125,-0.255208333,1,0,0,0.8671,scale,,,,,,0.275930788,0.223606798,0.275930788,0.223606798,stimuli/lakes/5070102_left.png,stimuli/lakes/5070102_right.png,,,,0,4,4,102,1,,,,,
,,,,,,,$5eab22c33121c10d6b9f757b,2020-07-21_16h13.31.604,fisher_task,2020.1.3,Win32,60,-0.174479167,-0.399739583,1,0,0,0.6311,scale,,,,,,0.326485712,0.264575131,0.21373507,0.173205081,stimuli/lakes/707095_left.png,stimuli/lakes/707095_right.png,,,,0,5,5,95,1,,,,,
,,,,,,,$5eab22c33121c10d6b9f757b,2020-07-21_16h13.31.604,fisher_task,2020.1.3,Win32,60,0.170572917,-0.412760417,1,0,0,0.83301,scale,,,,,,0.174513954,0.141421356,0.349027907,0.282842712,stimuli/lakes/207099_left.png,stimuli/lakes/207099_right.png,,,,0,6,6,99,1,,,,,
,,,,,,,$5eab22c33121c10d6b9f757b,2020-07-21_16h13.31.604,fisher_task,2020.1.3,Win32,60,-0.153645833,-0.380208333,1,0,0,0.564555,scale,,,,,,0.349027907,0.282842712,0.174513954,0.141421356,stimuli/lakes/804057_left.png,stimuli/lakes/804057_right.png,,,,0,7,7,57,1,,,,,
,,,,,,,$5eab22c33121c10d6b9f757b,2020-07-21_16h13.31.604,fisher_task,2020.1.3,Win32,60,-0.15625,-0.40625,1,0,0,0.61702,scale,,,,,,0.302267034,0.244948974,0.2468,0.2,stimuli/lakes/603028_left.png,stimuli/lakes/603028_right.png,,,,0,8,8,28,1,,,,,
,,,,,,,$5eab22c33121c10d6b9f757b,2020-07-21_16h13.31.604,fisher_task,2020.1.3,Win32,60,-0.188802083,-0.421875,1,0,0,0.547575,scale,,,,,,0.326485712,0.264575131,0.21373507,0.173205081,stimuli/lakes/704047_left.png,stimuli/lakes/704047_right.png,,,,0,9,9,47,1,,,,,
,,,,,,,$5eab22c33121c10d6b9f757b,2020-07-21_16h13.31.604,fisher_task,2020.1.3,Win32,60,-0.15234375,-0.412760417,1,0,0,0.46715,scale,,,,,,0.302267034,0.244948974,0.2468,0.2,stimuli/lakes/607094_left.png,stimuli/lakes/607094_right.png,,,,0,10,10,94,1,,,,,
,,,,,,,$5eab22c33121c10d6b9f757b,2020-07-21_16h13.31.604,fisher_task,2020.1.3,Win32,60,-0.15234375,-0.424479167,1,0,0,0.466315,scale,,,,,,0.349027907,0.282842712,0.174513954,0.141421356,stimuli/lakes/803039_left.png,stimuli/lakes/803039_right.png,,,,0,11,11,39,1,,,,,
,,,,,,,$5eab22c33121c10d6b9f757b,2020-07-21_16h13.31.604,fisher_task,2020.1.3,Win32,60,0.1484375,-0.40625,1,0,0,1.88427,scale,,,,,,0.21373507,0.173205081,0.326485712,0.264575131,stimuli/lakes/307091_left.png,stimuli/lakes/307091_right.png,,,,0,12,12,91,1,,,,,
,,,,,,,$5eab22c33121c10d6b9f757b,2020-07-21_16h13.31.604,fisher_task,2020.1.3,Win32,60,0.149739583,-0.403645833,1,0,0,1.564995,scale,,,,,,0.174513954,0.141421356,0.349027907,0.282842712,stimuli/lakes/202011_left.png,stimuli/lakes/202011_right.png,,,,0,13,13,11,1,,,,,
,,,,,,,$5eab22c33121c10d6b9f757b,2020-07-21_16h13.31.604,fisher_task,2020.1.3,Win32,60,0.147135417,-0.399739583,1,0,0,0.33357,scale,,,,,,0.21373507,0.173205081,0.326485712,0.264575131,stimuli/lakes/306082_left.png,stimuli/lakes/306082_right.png,,,,0,14,14,82,1,,,,,
,,,,,,,$5eab22c33121c10d6b9f757b,2020-07-21_16h13.31.604,fisher_task,2020.1.3,Win32,60,0.15234375,-0.41015625,1,0,0,1.148575,scale,,,,,,0.1234,0.1,0.3702,0.3,stimuli/lakes/107089_left.png,stimuli/lakes/107089_right.png,,,,0,15,15,89,1,,,,,
,,,,,,,$5eab22c33121c10d6b9f757b,2020-07-21_16h13.31.604,fisher_task,2020.1.3,Win32,60,0.134114583,-0.40234375,1,0,0,1.08392,scale,,,,,,0.3702,0.3,0.1234,0.1,stimuli/lakes/902022_left.png,stimuli/lakes/902022_right.png,,,,0,16,16,22,1,,,,,
,,,,,,,$5eab22c33121c10d6b9f757b,2020-07-21_16h13.31.604,fisher_task,2020.1.3,Win32,60,0.134114583,-0.40234375,1,0,0,0.381845,scale,,,,,,0.1234,0.1,0.3702,0.3,stimuli/lakes/103023_left.png,stimuli/lakes/103023_right.png,,,,0,17,17,23,1,,,,,
,,,,,,,$5eab22c33121c10d6b9f757b,2020-07-21_16h13.31.604,fisher_task,2020.1.3,Win32,60,0.134114583,-0.40234375,1,0,0,0.31624,scale,,,,,,0.174513954,0.141421356,0.349027907,0.282842712,stimuli/lakes/204051_left.png,stimuli/lakes/204051_right.png,,,,0,18,18,51,1,,,,,
,,,,,,,$5eab22c33121c10d6b9f757b,2020-07-21_16h13.31.604,fisher_task,2020.1.3,Win32,60,0.131510417,-0.40234375,1,0,0,0.45052,scale,,,,,,0.21373507,0.173205081,0.326485712,0.264575131,stimuli/lakes/3090121_left.png,stimuli/lakes/3090121_right.png,,,,0,19,19,121,1,,,,,
,,,,,,,$5eab22c33121c10d6b9f757b,2020-07-21_16h13.31.604,fisher_task,2020.1.3,Win32,60,0.130208333,-0.40234375,1,0,0,0.69851,scale,,,,,,0.2468,0.2,0.302267034,0.244948974,stimuli/lakes/403035_left.png,stimuli/lakes/403035_right.png,,,,0,20,20,35,1,,,,,
,,,,,,,$5eab22c33121c10d6b9f757b,2020-07-21_16h13.31.604,fisher_task,2020.1.3,Win32,60,-0.173177083,-0.404947917,1,0,0,2.365425,scale,,,,,,0.302267034,0.244948974,0.2468,0.2,stimuli/lakes/606076_left.png,stimuli/lakes/606076_right.png,,,,0,21,21,76,1,,,,,
,,,,,,,$5eab22c33121c10d6b9f757b,2020-07-21_16h13.31.604,fisher_task,2020.1.3,Win32,60,0.169270833,-0.421875,1,0,0,0.982725,scale,,,,,,0.21373507,0.173205081,0.326485712,0.264575131,stimuli/lakes/304043_left.png,stimuli/lakes/304043_right.png,,,space,0,22,22,43,1,4.91813,,,,
,,,,,,,$5eab22c33121c10d6b9f757b,2020-07-21_16h13.31.604,fisher_task,2020.1.3,Win32,60,0.158854167,-0.40625,1,0,0,2.60004,scale,,,,,,0.2468,0.2,0.302267034,0.244948974,stimuli/lakes/402014_left.png,stimuli/lakes/402014_right.png,,,,0,23,23,14,1,,,,,
,,,,,,,$5eab22c33121c10d6b9f757b,2020-07-21_16h13.31.604,fisher_task,2020.1.3,Win32,60,-0.162760417,-0.404947917,1,0,0,0.933,scale,,,,,,0.326485712,0.264575131,0.21373507,0.173205081,stimuli/lakes/706077_left.png,stimuli/lakes/706077_right.png,,,,0,24,24,77,1,,,,,
,,,,,,,$5eab22c33121c10d6b9f757b,2020-07-21_16h13.31.604,fisher_task,2020.1.3,Win32,60,-0.16015625,-0.454427083,1,0,0,4.764515,scale,,,,,,0.326485712,0.264575131,0.21373507,0.173205081,stimuli/lakes/706086_left.png,stimuli/lakes/706086_right.png,,,,0,25,25,86,1,,,,,
,,,,,,,$5eab22c33121c10d6b9f757b,2020-07-21_16h13.31.604,fisher_task,2020.1.3,Win32,60,0.1796875,-0.411458333,1,0,0,0.60015,scale,,,,,,0.21373507,0.173205081,0.326485712,0.264575131,stimuli/lakes/30101_left.png,stimuli/lakes/30101_right.png,,,,0,26,26,1,1,,,,,
,,,,,,,$5eab22c33121c10d6b9f757b,2020-07-21_16h13.31.604,fisher_task,2020.1.3,Win32,60,0.15625,-0.373697917,1,0,0,4.54921,scale,,,,,,0.2468,0.2,0.302267034,0.244948974,stimuli/lakes/40102_left.png,stimuli/lakes/40102_right.png,,,,0,27,27,2,1,,,,,
,,,,,,,$5eab22c33121c10d6b9f757b,2020-07-21_16h13.31.604,fisher_task,2020.1.3,Win32,60,0.147135417,-0.365885417,1,0,0,0.82766,scale,,,,,,0.2468,0.2,0.302267034,0.244948974,stimuli/lakes/4090124_left.png,stimuli/lakes/4090124_right.png,,,,0,28,28,124,1,,,,,
,,,,,,,$5eab22c33121c10d6b9f757b,2020-07-21_16h13.31.604,fisher_task,2020.1.3,Win32,60,-0.182291667,-0.420572917,1,0,0,0.949365,scale,,,,,,0.349027907,0.282842712,0.174513954,0.141421356,stimuli/lakes/8080118_left.png,stimuli/lakes/8080118_right.png,,,,0,29,29,118,1,,,,,
,,,,,,,$5eab22c33121c10d6b9f757b,2020-07-21_16h13.31.604,fisher_task,2020.1.3,Win32,60,-0.186197917,-0.420572917,1,0,0,2.04943,scale,,,,,,0.349027907,0.282842712,0.174513954,0.141421356,stimuli/lakes/80109_left.png,stimuli/lakes/80109_right.png,,,,0,30,30,9,1,,,,,
,,,,,,,$5eab22c33121c10d6b9f757b,2020-07-21_16h13.31.604,fisher_task,2020.1.3,Win32,60,0.174479167,-0.43359375,1,0,0,0.582865,scale,,,,,,0.21373507,0.173205081,0.326485712,0.264575131,stimuli/lakes/3080109_left.png,stimuli/lakes/3080109_right.png,,,,0,31,31,109,1,,,,,
,,,,,,,$5eab22c33121c10d6b9f757b,2020-07-21_16h13.31.604,fisher_task,2020.1.3,Win32,60,0.157552083,-0.399739583,1,0,0,2.017025,scale,,,,,,0.21373507,0.173205081,0.326485712,0.264575131,stimuli/lakes/30100_left.png,stimuli/lakes/30100_right.png,,,,0,32,32,0,1,,,,,
,,,,,,,$5eab22c33121c10d6b9f757b,2020-07-21_16h13.31.604,fisher_task,2020.1.3,Win32,60,-0.169270833,-0.395833333,1,0,0,1.16579,scale,,,,,,0.3702,0.3,0.1234,0.1,stimuli/lakes/9070106_left.png,stimuli/lakes/9070106_right.png,,,,0,33,33,106,1,,,,,
,,,,,,,$5eab22c33121c10d6b9f757b,2020-07-21_16h13.31.604,fisher_task,2020.1.3,Win32,60,0.018229167,-0.23828125,1,0,0,1.000205,scale,,,,,,0.275930788,0.223606798,0.275930788,0.223606798,stimuli/lakes/5090125_left.png,stimuli/lakes/5090125_right.png,,,,0,34,34,125,1,,,,,
,,,,,,,$5eab22c33121c10d6b9f757b,2020-07-21_16h13.31.604,fisher_task,2020.1.3,Win32,60,-0.014322917,-0.243489583,1,0,0,0.832805,scale,,,,,,0.275930788,0.223606798,0.275930788,0.223606798,stimuli/lakes/504045_left.png,stimuli/lakes/504045_right.png,,,,0,35,35,45,1,,,,,
,,,,,,,$5eab22c33121c10d6b9f757b,2020-07-21_16h13.31.604,fisher_task,2020.1.3,Win32,60,0.165364583,-0.393229167,1,0,0,1.748325,scale,,,,,,0.21373507,0.173205081,0.326485712,0.264575131,stimuli/lakes/303025_left.png,stimuli/lakes/303025_right.png,,,,0,36,36,25,1,,,,,
,,,,,,,$5eab22c33121c10d6b9f757b,2020-07-21_16h13.31.604,fisher_task,2020.1.3,Win32,60,-0.17578125,-0.401041667,1,0,0,1.96593,scale,,,,,,0.326485712,0.264575131,0.21373507,0.173205081,stimuli/lakes/7070104_left.png,stimuli/lakes/7070104_right.png,,,,0,37,37,104,1,,,,,
,,,,,,,$5eab22c33121c10d6b9f757b,2020-07-21_16h13.31.604,fisher_task,2020.1.3,Win32,60,0.158854167,-0.384114583,1,0,0,0.630875,scale,,,,,,0.2468,0.2,0.302267034,0.244948974,stimuli/lakes/405064_left.png,stimuli/lakes/405064_right.png,,,,0,38,38,64,1,,,,,
,,,,,,,$5eab22c33121c10d6b9f757b,2020-07-21_16h13.31.604,fisher_task,2020.1.3,Win32,60,-0.18359375,-0.381510417,1,0,0,1.48323,scale,,,,,,0.326485712,0.264575131,0.21373507,0.173205081,stimuli/lakes/705068_left.png,stimuli/lakes/705068_right.png,,,,0,39,39,68,1,,,,,
,,,,,,,$5eab22c33121c10d6b9f757b,2020-07-21_16h13.31.604,fisher_task,2020.1.3,Win32,60,0.135416667,-0.395833333,1,0,0,2.182685,scale,,,,,,0.174513954,0.141421356,0.349027907,0.282842712,stimuli/lakes/206081_left.png,stimuli/lakes/206081_right.png,,,,0,40,40,81,1,,,,,
,,,,,,,$5eab22c33121c10d6b9f757b,2020-07-21_16h13.31.604,fisher_task,2020.1.3,Win32,60,0.170572917,-0.40625,1,0,0,1.416665,scale,,,,,,0.174513954,0.141421356,0.349027907,0.282842712,stimuli/lakes/203033_left.png,stimuli/lakes/203033_right.png,,,,0,41,41,33,1,,,,,
,,,,,,,$5eab22c33121c10d6b9f757b,2020-07-21_16h13.31.604,fisher_task,2020.1.3,Win32,60,-0.188802083,-0.39453125,1,0,0,0.814105,scale,,,,,,0.302267034,0.244948974,0.2468,0.2,stimuli/lakes/605065_left.png,stimuli/lakes/605065_right.png,,,,0,42,42,65,1,,,,,
,,,,,,,$5eab22c33121c10d6b9f757b,2020-07-21_16h13.31.604,fisher_task,2020.1.3,Win32,60,-0.162760417,-0.403645833,1,0,0,0.599805,scale,,,,,,0.349027907,0.282842712,0.174513954,0.141421356,stimuli/lakes/805069_left.png,stimuli/lakes/805069_right.png,,,,0,43,43,69,1,,,,,
,,,,,,,$5eab22c33121c10d6b9f757b,2020-07-21_16h13.31.604,fisher_task,2020.1.3,Win32,60,0.001302083,-0.22265625,1,0,0,3.23277,scale,,,,,,0.275930788,0.223606798,0.275930788,0.223606798,stimuli/lakes/506075_left.png,stimuli/lakes/506075_right.png,,,space,0,44,44,75,1,3.92992,,,,
,,,,,,,$5eab22c33121c10d6b9f757b,2020-07-21_16h13.31.604,fisher_task,2020.1.3,Win32,60,0.01171875,-0.26953125,1,0,0,4.366725,scale,,,,,,0.275930788,0.223606798,0.275930788,0.223606798,stimuli/lakes/50104_left.png,stimuli/lakes/50104_right.png,,,,0,45,45,4,1,,,,,
,,,,,,,$5eab22c33121c10d6b9f757b,2020-07-21_16h13.31.604,fisher_task,2020.1.3,Win32,60,0.16015625,-0.40625,1,0,0,0.89792,scale,,,,,,0.1234,0.1,0.3702,0.3,stimuli/lakes/106071_left.png,stimuli/lakes/106071_right.png,,,,0,46,46,71,1,,,,,
,,,,,,,$5eab22c33121c10d6b9f757b,2020-07-21_16h13.31.604,fisher_task,2020.1.3,Win32,60,-0.1875,-0.3671875,1,0,0,3.58209,scale,,,,,,0.326485712,0.264575131,0.21373507,0.173205081,stimuli/lakes/705067_left.png,stimuli/lakes/705067_right.png,,,,0,47,47,67,1,,,,,
,,,,,,,$5eab22c33121c10d6b9f757b,2020-07-21_16h13.31.604,fisher_task,2020.1.3,Win32,60,0.1484375,-0.404947917,1,0,0,0.534525,scale,,,,,,0.174513954,0.141421356,0.349027907,0.282842712,stimuli/lakes/204042_left.png,stimuli/lakes/204042_right.png,,,,0,48,48,42,1,,,,,
,,,,,,,$5eab22c33121c10d6b9f757b,2020-07-21_16h13.31.604,fisher_task,2020.1.3,Win32,60,0.147135417,-0.3828125,1,0,0,2.36514,scale,,,,,,0.2468,0.2,0.302267034,0.244948974,stimuli/lakes/405063_left.png,stimuli/lakes/405063_right.png,,,,0,49,49,63,1,,,,,
,,,,,,,$5eab22c33121c10d6b9f757b,2020-07-21_16h13.31.604,fisher_task,2020.1.3,Win32,60,-0.15625,-0.376302083,1,0,0,0.58173,scale,,,,,,0.3702,0.3,0.1234,0.1,stimuli/lakes/906088_left.png,stimuli/lakes/906088_right.png,,,,0,50,50,88,1,,,,,
,,,,,,,$5eab22c33121c10d6b9f757b,2020-07-21_16h13.31.604,fisher_task,2020.1.3,Win32,60,-0.143229167,-0.372395833,1,0,0,0.447335,scale,,,,,,0.349027907,0.282842712,0.174513954,0.141421356,stimuli/lakes/807096_left.png,stimuli/lakes/807096_right.png,,,,0,51,51,96,1,,,,,
,,,,,,,$5eab22c33121c10d6b9f757b,2020-07-21_16h13.31.604,fisher_task,2020.1.3,Win32,60,0.141927083,-0.385416667,1,0,0,0.432215,scale,,,,,,0.1234,0.1,0.3702,0.3,stimuli/lakes/104041_left.png,stimuli/lakes/104041_right.png,,,,0,52,52,41,1,,,,,
,,,,,,,$5eab22c33121c10d6b9f757b,2020-07-21_16h13.31.604,fisher_task,2020.1.3,Win32,60,0.171875,-0.388020833,1,0,0,0.448875,scale,,,,,,0.2468,0.2,0.302267034,0.244948974,stimuli/lakes/404053_left.png,stimuli/lakes/404053_right.png,,,,0,53,53,53,1,,,,,
,,,,,,,$5eab22c33121c10d6b9f757b,2020-07-21_16h13.31.604,fisher_task,2020.1.3,Win32,60,-0.145833333,-0.37890625,1,0,0,0.56534,scale,,,,,,0.349027907,0.282842712,0.174513954,0.141421356,stimuli/lakes/806087_left.png,stimuli/lakes/806087_right.png,,,,0,54,54,87,1,,,,,
,,,,,,,$5eab22c33121c10d6b9f757b,2020-07-21_16h13.31.604,fisher_task,2020.1.3,Win32,60,0.131510417,-0.399739583,1,0,0,0.815585,scale,,,,,,0.2468,0.2,0.302267034,0.244948974,stimuli/lakes/406083_left.png,stimuli/lakes/406083_right.png,,,,0,55,55,83,1,,,,,
,,,,,,,$5eab22c33121c10d6b9f757b,2020-07-21_16h13.31.604,fisher_task,2020.1.3,Win32,60,-0.162760417,-0.373697917,1,0,0,0.531775,scale,,,,,,0.302267034,0.244948974,0.2468,0.2,stimuli/lakes/6080114_left.png,stimuli/lakes/6080114_right.png,,,,0,56,56,114,1,,,,,
,,,,,,,$5eab22c33121c10d6b9f757b,2020-07-21_16h13.31.604,fisher_task,2020.1.3,Win32,60,-0.140625,-0.3828125,1,0,0,0.833045,scale,,,,,,0.326485712,0.264575131,0.21373507,0.173205081,stimuli/lakes/703038_left.png,stimuli/lakes/703038_right.png,,,,0,57,57,38,1,,,,,
,,,,,,,$5eab22c33121c10d6b9f757b,2020-07-21_16h13.31.604,fisher_task,2020.1.3,Win32,60,0.17578125,-0.41015625,1,0,0,0.63257,scale,,,,,,0.21373507,0.173205081,0.326485712,0.264575131,stimuli/lakes/302013_left.png,stimuli/lakes/302013_right.png,,,,0,58,58,13,1,,,,,
,,,,,,,$5eab22c33121c10d6b9f757b,2020-07-21_16h13.31.604,fisher_task,2020.1.3,Win32,60,-0.157552083,-0.424479167,1,0,0,0.71441,scale,,,,,,0.3702,0.3,0.1234,0.1,stimuli/lakes/903031_left.png,stimuli/lakes/903031_right.png,,,,0,59,59,31,1,,,,,
,,,,,,,$5eab22c33121c10d6b9f757b,2020-07-21_16h13.31.604,fisher_task,2020.1.3,Win32,60,0.166666667,-0.3984375,1,0,0,1.89602,scale,,,,,,0.1234,0.1,0.3702,0.3,stimuli/lakes/107098_left.png,stimuli/lakes/107098_right.png,,,,0,60,60,98,1,,,,,
,,,,,,,$5eab22c33121c10d6b9f757b,2020-07-21_16h13.31.604,fisher_task,2020.1.3,Win32,60,0.1640625,-0.395833333,1,0,0,2.24951,scale,,,,,,0.1234,0.1,0.3702,0.3,stimuli/lakes/104050_left.png,stimuli/lakes/104050_right.png,,,,0,61,61,50,1,,,,,
,,,,,,,$5eab22c33121c10d6b9f757b,2020-07-21_16h13.31.604,fisher_task,2020.1.3,Win32,60,0.1640625,-0.390625,1,0,0,0.38402,scale,,,,,,0.21373507,0.173205081,0.326485712,0.264575131,stimuli/lakes/306073_left.png,stimuli/lakes/306073_right.png,,,,0,62,62,73,1,,,,,
,,,,,,,$5eab22c33121c10d6b9f757b,2020-07-21_16h13.31.604,fisher_task,2020.1.3,Win32,60,-0.16796875,-0.390625,1,0,0,0.64939,scale,,,,,,0.275930788,0.223606798,0.275930788,0.223606798,stimuli/lakes/502016_left.png,stimuli/lakes/502016_right.png,,,,0,63,63,16,1,,,,,
,,,,,,,$5eab22c33121c10d6b9f757b,2020-07-21_16h13.31.604,fisher_task,2020.1.3,Win32,60,-0.138020833,-0.39453125,1,0,0,0.633645,scale,,,,,,0.326485712,0.264575131,0.21373507,0.173205081,stimuli/lakes/70107_left.png,stimuli/lakes/70107_right.png,,,,0,64,64,7,1,,,,,
,,,,,,,$5eab22c33121c10d6b9f757b,2020-07-21_16h13.31.604,fisher_task,2020.1.3,Win32,60,-0.174479167,-0.401041667,1,0,0,0.699375,scale,,,,,,0.326485712,0.264575131,0.21373507,0.173205081,stimuli/lakes/703029_left.png,stimuli/lakes/703029_right.png,,,,0,65,65,29,1,,,,,
,,,,,,,$5eab22c33121c10d6b9f757b,2020-07-21_16h13.31.604,fisher_task,2020.1.3,Win32,60,-0.157552083,-0.412760417,1,0,0,0.950345,scale,,,,,,0.3702,0.3,0.1234,0.1,stimuli/lakes/906079_left.png,stimuli/lakes/906079_right.png,,,space,0,66,66,79,1,1.45007,,,,
,,,,,,,$5eab22c33121c10d6b9f757b,2020-07-21_16h13.31.604,fisher_task,2020.1.3,Win32,60,-0.171875,-0.40234375,1,0,0,1.916265,scale,,,,,,0.3702,0.3,0.1234,0.1,stimuli/lakes/904058_left.png,stimuli/lakes/904058_right.png,,,,0,67,67,58,1,,,,,
,,,,,,,$5eab22c33121c10d6b9f757b,2020-07-21_16h13.31.604,fisher_task,2020.1.3,Win32,60,-0.171875,-0.40234375,1,0,0,0.51541,scale,,,,,,0.302267034,0.244948974,0.2468,0.2,stimuli/lakes/602017_left.png,stimuli/lakes/602017_right.png,,,,0,68,68,17,1,,,,,
,,,,,,,$5eab22c33121c10d6b9f757b,2020-07-21_16h13.31.604,fisher_task,2020.1.3,Win32,60,0.153645833,-0.391927083,1,0,0,4.9667,scale,,,,,,0.302267034,0.244948974,0.2468,0.2,stimuli/lakes/602018_left.png,stimuli/lakes/602018_right.png,,,,0,69,69,18,1,,,,,
,,,,,,,$5eab22c33121c10d6b9f757b,2020-07-21_16h13.31.604,fisher_task,2020.1.3,Win32,60,-0.1640625,-0.385416667,1,0,0,0.698255,scale,,,,,,0.3702,0.3,0.1234,0.1,stimuli/lakes/905070_left.png,stimuli/lakes/905070_right.png,,,,0,70,70,70,1,,,,,
,,,,,,,$5eab22c33121c10d6b9f757b,2020-07-21_16h13.31.604,fisher_task,2020.1.3,Win32,60,-0.138020833,-0.389322917,1,0,0,0.41565,scale,,,,,,0.3702,0.3,0.1234,0.1,stimuli/lakes/903040_left.png,stimuli/lakes/903040_right.png,,,,0,71,71,40,1,,,,,
,,,,,,,$5eab22c33121c10d6b9f757b,2020-07-21_16h13.31.604,fisher_task,2020.1.3,Win32,60,-0.166666667,-0.385416667,1,0,0,0.48125,scale,,,,,,0.326485712,0.264575131,0.21373507,0.173205081,stimuli/lakes/70108_left.png,stimuli/lakes/70108_right.png,,,,0,72,72,8,1,,,,,
,,,,,,,$5eab22c33121c10d6b9f757b,2020-07-21_16h13.31.604,fisher_task,2020.1.3,Win32,60,-0.166666667,-0.385416667,1,0,0,0.599615,scale,,,,,,0.302267034,0.244948974,0.2468,0.2,stimuli/lakes/603037_left.png,stimuli/lakes/603037_right.png,,,,0,73,73,37,1,,,,,
,,,,,,,$5eab22c33121c10d6b9f757b,2020-07-21_16h13.31.604,fisher_task,2020.1.3,Win32,60,-0.166666667,-0.385416667,1,0,0,0.55054,scale,,,,,,0.302267034,0.244948974,0.2468,0.2,stimuli/lakes/60106_left.png,stimuli/lakes/60106_right.png,,,,0,74,74,6,1,,,,,
,,,,,,,$5eab22c33121c10d6b9f757b,2020-07-21_16h13.31.604,fisher_task,2020.1.3,Win32,60,0.15625,-0.384114583,1,0,0,0.914525,scale,,,,,,0.2468,0.2,0.302267034,0.244948974,stimuli/lakes/40103_left.png,stimuli/lakes/40103_right.png,,,,0,75,75,3,1,,,,,
,,,,,,,$5eab22c33121c10d6b9f757b,2020-07-21_16h13.31.604,fisher_task,2020.1.3,Win32,60,0.138020833,-0.389322917,1,0,0,0.448755,scale,,,,,,0.1234,0.1,0.3702,0.3,stimuli/lakes/103032_left.png,stimuli/lakes/103032_right.png,,,,0,76,76,32,1,,,,,
,,,,,,,$5eab22c33121c10d6b9f757b,2020-07-21_16h13.31.604,fisher_task,2020.1.3,Win32,60,-0.178385417,-0.3984375,1,0,0,0.59787,scale,,,,,,0.302267034,0.244948974,0.2468,0.2,stimuli/lakes/605066_left.png,stimuli/lakes/605066_right.png,,,,0,77,77,66,1,,,,,
,,,,,,,$5eab22c33121c10d6b9f757b,2020-07-21_16h13.31.604,fisher_task,2020.1.3,Win32,60,-0.166666667,-0.369791667,1,0,0,0.74984,scale,,,,,,0.3702,0.3,0.1234,0.1,stimuli/lakes/904049_left.png,stimuli/lakes/904049_right.png,,,,0,78,78,49,1,,,,,
,,,,,,,$5eab22c33121c10d6b9f757b,2020-07-21_16h13.31.604,fisher_task,2020.1.3,Win32,60,0.165364583,-0.364583333,1,0,0,1.398655,scale,,,,,,0.21373507,0.173205081,0.326485712,0.264575131,stimuli/lakes/305062_left.png,stimuli/lakes/305062_right.png,,,,0,79,79,62,1,,,,,
,,,,,,,$5eab22c33121c10d6b9f757b,2020-07-21_16h13.31.604,fisher_task,2020.1.3,Win32,60,-0.154947917,-0.404947917,1,0,0,0.682855,scale,,,,,,0.302267034,0.244948974,0.2468,0.2,stimuli/lakes/6070103_left.png,stimuli/lakes/6070103_right.png,,,,0,80,80,103,1,,,,,
,,,,,,,$5eab22c33121c10d6b9f757b,2020-07-21_16h13.31.604,fisher_task,2020.1.3,Win32,60,0.1796875,-0.40625,1,0,0,0.51713,scale,,,,,,0.2468,0.2,0.302267034,0.244948974,stimuli/lakes/4070101_left.png,stimuli/lakes/4070101_right.png,,,,0,81,81,101,1,,,,,
,,,,,,,$5eab22c33121c10d6b9f757b,2020-07-21_16h13.31.604,fisher_task,2020.1.3,Win32,60,-0.153645833,-0.38671875,1,0,0,1.016265,scale,,,,,,0.302267034,0.244948974,0.2468,0.2,stimuli/lakes/604046_left.png,stimuli/lakes/604046_right.png,,,,0,82,82,46,1,,,,,
,,,,,,,$5eab22c33121c10d6b9f757b,2020-07-21_16h13.31.604,fisher_task,2020.1.3,Win32,60,-0.0078125,-0.229166667,1,0,0,1.66596,scale,,,,,,0.275930788,0.223606798,0.275930788,0.223606798,stimuli/lakes/506084_left.png,stimuli/lakes/506084_right.png,,,,0,83,83,84,1,,,,,
,,,,,,,$5eab22c33121c10d6b9f757b,2020-07-21_16h13.31.604,fisher_task,2020.1.3,Win32,60,-0.006510417,-0.236979167,1,0,0,2.21686,scale,,,,,,0.275930788,0.223606798,0.275930788,0.223606798,stimuli/lakes/503027_left.png,stimuli/lakes/503027_right.png,,,,0,84,84,27,1,,,,,
,,,,,,,$5eab22c33121c10d6b9f757b,2020-07-21_16h13.31.604,fisher_task,2020.1.3,Win32,60,0.1328125,-0.3984375,1,0,0,0.464775,scale,,,,,,0.21373507,0.173205081,0.326485712,0.264575131,stimuli/lakes/3070100_left.png,stimuli/lakes/3070100_right.png,,,,0,85,85,100,1,,,,,
,,,,,,,$5eab22c33121c10d6b9f757b,2020-07-21_16h13.31.604,fisher_task,2020.1.3,Win32,60,-0.16015625,-0.4140625,1,0,0,1.098965,scale,,,,,,0.302267034,0.244948974,0.2468,0.2,stimuli/lakes/6090127_left.png,stimuli/lakes/6090127_right.png,,,,0,86,86,127,1,,,,,
,,,,,,,$5eab22c33121c10d6b9f757b,2020-07-21_16h13.31.604,fisher_task,2020.1.3,Win32,60,0.16015625,-0.40625,1,0,0,0.68231,scale,,,,,,0.21373507,0.173205081,0.326485712,0.264575131,stimuli/lakes/3090122_left.png,stimuli/lakes/3090122_right.png,,,,0,87,87,122,1,,,,,
,,,,,,,$5eab22c33121c10d6b9f757b,2020-07-21_16h13.31.604,fisher_task,2020.1.3,Win32,60,0.130208333,-0.40234375,1,0,0,0.51575,scale,,,,,,0.174513954,0.141421356,0.349027907,0.282842712,stimuli/lakes/2090120_left.png,stimuli/lakes/2090120_right.png,,,space,0,88,88,120,1,1.60119,,,,
,,,,,,,$5eab22c33121c10d6b9f757b,2020-07-21_16h13.31.604,fisher_task,2020.1.3,Win32,60,0.166666667,-0.389322917,1,0,0,0.432855,scale,,,,,,0.2468,0.2,0.302267034,0.244948974,stimuli/lakes/4090123_left.png,stimuli/lakes/4090123_right.png,,,,0,89,89,123,1,,,,,
,,,,,,,$5eab22c33121c10d6b9f757b,2020-07-21_16h13.31.604,fisher_task,2020.1.3,Win32,60,0.170572917,-0.408854167,1,0,0,0.4009,scale,,,,,,0.21373507,0.173205081,0.326485712,0.264575131,stimuli/lakes/305061_left.png,stimuli/lakes/305061_right.png,,,,0,90,90,61,1,,,,,
,,,,,,,$5eab22c33121c10d6b9f757b,2020-07-21_16h13.31.604,fisher_task,2020.1.3,Win32,60,-0.12109375,-0.3984375,1,0,0,0.48103,scale,,,,,,0.3702,0.3,0.1234,0.1,stimuli/lakes/901010_left.png,stimuli/lakes/901010_right.png,,,,0,91,91,10,1,,,,,
,,,,,,,$5eab22c33121c10d6b9f757b,2020-07-21_16h13.31.604,fisher_task,2020.1.3,Win32,60,-0.16796875,-0.412760417,1,0,0,1.215645,scale,,,,,,0.302267034,0.244948974,0.2468,0.2,stimuli/lakes/6090126_left.png,stimuli/lakes/6090126_right.png,,,,0,92,92,126,1,,,,,
,,,,,,,$5eab22c33121c10d6b9f757b,2020-07-21_16h13.31.604,fisher_task,2020.1.3,Win32,60,-0.157552083,-0.3984375,1,0,0,1.481795,scale,,,,,,0.326485712,0.264575131,0.21373507,0.173205081,stimuli/lakes/7080116_left.png,stimuli/lakes/7080116_right.png,,,,0,93,93,116,1,,,,,
,,,,,,,$5eab22c33121c10d6b9f757b,2020-07-21_16h13.31.604,fisher_task,2020.1.3,Win32,60,-0.16796875,-0.380208333,1,0,0,1.533665,scale,,,,,,0.302267034,0.244948974,0.2468,0.2,stimuli/lakes/60105_left.png,stimuli/lakes/60105_right.png,,,,0,94,94,5,1,,,,,
,,,,,,,$5eab22c33121c10d6b9f757b,2020-07-21_16h13.31.604,fisher_task,2020.1.3,Win32,60,0.170572917,-0.41015625,1,0,0,0.93122,scale,,,,,,0.2468,0.2,0.302267034,0.244948974,stimuli/lakes/403026_left.png,stimuli/lakes/403026_right.png,,,,0,95,95,26,1,,,,,
,,,,,,,$5eab22c33121c10d6b9f757b,2020-07-21_16h13.31.604,fisher_task,2020.1.3,Win32,60,-0.14453125,-0.3984375,1,0,0,0.432245,scale,,,,,,0.302267034,0.244948974,0.2468,0.2,stimuli/lakes/604055_left.png,stimuli/lakes/604055_right.png,,,,0,96,96,55,1,,,,,
,,,,,,,$5eab22c33121c10d6b9f757b,2020-07-21_16h13.31.604,fisher_task,2020.1.3,Win32,60,0.180989583,-0.390625,1,0,0,0.433575,scale,,,,,,0.21373507,0.173205081,0.326485712,0.264575131,stimuli/lakes/3080110_left.png,stimuli/lakes/3080110_right.png,,,,0,97,97,110,1,,,,,
,,,,,,,$5eab22c33121c10d6b9f757b,2020-07-21_16h13.31.604,fisher_task,2020.1.3,Win32,60,-0.143229167,-0.416666667,1,0,0,0.597955,scale,,,,,,0.349027907,0.282842712,0.174513954,0.141421356,stimuli/lakes/803030_left.png,stimuli/lakes/803030_right.png,,,,0,98,98,30,1,,,,,
,,,,,,,$5eab22c33121c10d6b9f757b,2020-07-21_16h13.31.604,fisher_task,2020.1.3,Win32,60,0.184895833,-0.407552083,1,0,0,1.18283,scale,,,,,,0.2468,0.2,0.302267034,0.244948974,stimuli/lakes/406074_left.png,stimuli/lakes/406074_right.png,,,,0,99,99,74,1,,,,,
,,,,,,,$5eab22c33121c10d6b9f757b,2020-07-21_16h13.31.604,fisher_task,2020.1.3,Win32,60,-0.1328125,-0.390625,1,0,0,2.69757,scale,,,,,,0.326485712,0.264575131,0.21373507,0.173205081,stimuli/lakes/7090129_left.png,stimuli/lakes/7090129_right.png,,,,0,100,100,129,1,,,,,
,,,,,,,$5eab22c33121c10d6b9f757b,2020-07-21_16h13.31.604,fisher_task,2020.1.3,Win32,60,0.1484375,-0.401041667,1,0,0,0.58183,scale,,,,,,0.1234,0.1,0.3702,0.3,stimuli/lakes/1080107_left.png,stimuli/lakes/1080107_right.png,,,,0,101,101,107,1,,,,,
,,,,,,,$5eab22c33121c10d6b9f757b,2020-07-21_16h13.31.604,fisher_task,2020.1.3,Win32,60,-0.140625,-0.391927083,1,0,0,0.61698,scale,,,,,,0.326485712,0.264575131,0.21373507,0.173205081,stimuli/lakes/702019_left.png,stimuli/lakes/702019_right.png,,,,0,102,102,19,1,,,,,
,,,,,,,$5eab22c33121c10d6b9f757b,2020-07-21_16h13.31.604,fisher_task,2020.1.3,Win32,60,0.13671875,-0.3828125,1,0,0,0.46512,scale,,,,,,0.21373507,0.173205081,0.326485712,0.264575131,stimuli/lakes/302012_left.png,stimuli/lakes/302012_right.png,,,,0,103,103,12,1,,,,,
,,,,,,,$5eab22c33121c10d6b9f757b,2020-07-21_16h13.31.604,fisher_task,2020.1.3,Win32,60,0.18359375,-0.368489583,1,0,0,0.53286,scale,,,,,,0.174513954,0.141421356,0.349027907,0.282842712,stimuli/lakes/207090_left.png,stimuli/lakes/207090_right.png,,,,0,104,104,90,1,,,,,
,,,,,,,$5eab22c33121c10d6b9f757b,2020-07-21_16h13.31.604,fisher_task,2020.1.3,Win32,60,0.18359375,-0.391927083,1,0,0,3.18355,scale,,,,,,0.174513954,0.141421356,0.349027907,0.282842712,stimuli/lakes/205060_left.png,stimuli/lakes/205060_right.png,,,,0,105,105,60,1,,,,,
,,,,,,,$5eab22c33121c10d6b9f757b,2020-07-21_16h13.31.604,fisher_task,2020.1.3,Win32,60,-0.005208333,-0.186197917,1,0,0,2.99764,scale,,,,,,0.275930788,0.223606798,0.275930788,0.223606798,stimuli/lakes/507093_left.png,stimuli/lakes/507093_right.png,,,,0,106,106,93,1,,,,,
,,,,,,,$5eab22c33121c10d6b9f757b,2020-07-21_16h13.31.604,fisher_task,2020.1.3,Win32,60,0.1640625,-0.408854167,1,0,0,0.9811,scale,,,,,,0.1234,0.1,0.3702,0.3,stimuli/lakes/106080_left.png,stimuli/lakes/106080_right.png,,,,0,107,107,80,1,,,,,
,,,,,,,$5eab22c33121c10d6b9f757b,2020-07-21_16h13.31.604,fisher_task,2020.1.3,Win32,60,0.0234375,-0.240885417,1,0,0,0.98358,scale,,,,,,0.275930788,0.223606798,0.275930788,0.223606798,stimuli/lakes/5080113_left.png,stimuli/lakes/5080113_right.png,,,,0,108,108,113,1,,,,,
,,,,,,,$5eab22c33121c10d6b9f757b,2020-07-21_16h13.31.604,fisher_task,2020.1.3,Win32,60,-0.162760417,-0.388020833,1,0,0,0.89145,scale,,,,,,0.326485712,0.264575131,0.21373507,0.173205081,stimuli/lakes/704056_left.png,stimuli/lakes/704056_right.png,,,,0,109,109,56,1,,,,,
,,,,,,,$5eab22c33121c10d6b9f757b,2020-07-21_16h13.31.604,fisher_task,2020.1.3,Win32,60,-0.15625,-0.38671875,1,0,0,0.93198,scale,,,,,,0.302267034,0.244948974,0.2468,0.2,stimuli/lakes/6080115_left.png,stimuli/lakes/6080115_right.png,,,space,0,110,110,115,1,1.60406,,,,
,,,,,,,$5eab22c33121c10d6b9f757b,2020-07-21_16h13.31.604,fisher_task,2020.1.3,Win32,60,0.170572917,-0.39453125,1,0,0,0.798625,scale,,,,,,0.21373507,0.173205081,0.326485712,0.264575131,stimuli/lakes/304052_left.png,stimuli/lakes/304052_right.png,,,,0,111,111,52,1,,,,,
,,,,,,,$5eab22c33121c10d6b9f757b,2020-07-21_16h13.31.604,fisher_task,2020.1.3,Win32,60,0.161458333,-0.407552083,1,0,0,0.567035,scale,,,,,,0.2468,0.2,0.302267034,0.244948974,stimuli/lakes/407092_left.png,stimuli/lakes/407092_right.png,,,,0,112,112,92,1,,,,,
,,,,,,,$5eab22c33121c10d6b9f757b,2020-07-21_16h13.31.604,fisher_task,2020.1.3,Win32,60,0.005208333,-0.266927083,1,0,0,4.300855,scale,,,,,,0.2468,0.2,0.302267034,0.244948974,stimuli/lakes/4080111_left.png,stimuli/lakes/4080111_right.png,,,,0,113,113,111,1,,,,,
,,,,,,,$5eab22c33121c10d6b9f757b,2020-07-21_16h13.31.604,fisher_task,2020.1.3,Win32,60,-0.170572917,-0.408854167,1,0,0,2.5003,scale,,,,,,0.326485712,0.264575131,0.21373507,0.173205081,stimuli/lakes/7090128_left.png,stimuli/lakes/7090128_right.png,,,,0,114,114,128,1,,,,,
,,,,,,,$5eab22c33121c10d6b9f757b,2020-07-21_16h13.31.604,fisher_task,2020.1.3,Win32,60,0.147135417,-0.41015625,1,0,0,0.464335,scale,,,,,,0.174513954,0.141421356,0.349027907,0.282842712,stimuli/lakes/2080108_left.png,stimuli/lakes/2080108_right.png,,,,0,115,115,108,1,,,,,
,,,,,,,$5eab22c33121c10d6b9f757b,2020-07-21_16h13.31.604,fisher_task,2020.1.3,Win32,60,-0.173177083,-0.41015625,1,0,0,0.7337,scale,,,,,,0.3702,0.3,0.1234,0.1,stimuli/lakes/907097_left.png,stimuli/lakes/907097_right.png,,,,0,116,116,97,1,,,,,
,,,,,,,$5eab22c33121c10d6b9f757b,2020-07-21_16h13.31.604,fisher_task,2020.1.3,Win32,60,-0.002604167,-0.251302083,1,0,0,0.865305,scale,,,,,,0.275930788,0.223606798,0.275930788,0.223606798,stimuli/lakes/503036_left.png,stimuli/lakes/503036_right.png,,,,0,117,117,36,1,,,,,
,,,,,,,$5eab22c33121c10d6b9f757b,2020-07-21_16h13.31.604,fisher_task,2020.1.3,Win32,60,0.1484375,-0.3984375,1,0,0,2.017025,scale,,,,,,0.174513954,0.141421356,0.349027907,0.282842712,stimuli/lakes/206072_left.png,stimuli/lakes/206072_right.png,,,,0,118,118,72,1,,,,,
,,,,,,,$5eab22c33121c10d6b9f757b,2020-07-21_16h13.31.604,fisher_task,2020.1.3,Win32,60,0.153645833,-0.37890625,1,0,0,0.89785,scale,,,,,,0.21373507,0.173205081,0.326485712,0.264575131,stimuli/lakes/303034_left.png,stimuli/lakes/303034_right.png,,,,0,119,119,34,1,,,,,
,,,,,,,$5eab22c33121c10d6b9f757b,2020-07-21_16h13.31.604,fisher_task,2020.1.3,Win32,60,-0.169270833,-0.395833333,1,0,0,0.7323,scale,,,,,,0.326485712,0.264575131,0.21373507,0.173205081,stimuli/lakes/7080117_left.png,stimuli/lakes/7080117_right.png,,,,0,120,120,117,1,,,,,
,,,,,,,$5eab22c33121c10d6b9f757b,2020-07-21_16h13.31.604,fisher_task,2020.1.3,Win32,60,-0.014322917,-0.25,1,0,0,1.765895,scale,,,,,,0.275930788,0.223606798,0.275930788,0.223606798,stimuli/lakes/504054_left.png,stimuli/lakes/504054_right.png,,,,0,121,121,54,1,,,,,
,,,,,,,$5eab22c33121c10d6b9f757b,2020-07-21_16h13.31.604,fisher_task,2020.1.3,Win32,60,0.1796875,-0.412760417,1,0,0,1.33182,scale,,,,,,0.2468,0.2,0.302267034,0.244948974,stimuli/lakes/404044_left.png,stimuli/lakes/404044_right.png,,,,0,122,122,44,1,,,,,
,,,,,,,$5eab22c33121c10d6b9f757b,2020-07-21_16h13.31.604,fisher_task,2020.1.3,Win32,60,-0.165364583,-0.412760417,1,0,0,2.19908,scale,,,,,,0.349027907,0.282842712,0.174513954,0.141421356,stimuli/lakes/806078_left.png,stimuli/lakes/806078_right.png,,,,0,123,123,78,1,,,,,
,,,,,,,$5eab22c33121c10d6b9f757b,2020-07-21_16h13.31.604,fisher_task,2020.1.3,Win32,60,0.15234375,-0.4140625,1,0,0,0.500395,scale,,,,,,0.174513954,0.141421356,0.349027907,0.282842712,stimuli/lakes/203024_left.png,stimuli/lakes/203024_right.png,,,,0,124,124,24,1,,,,,
,,,,,,,$5eab22c33121c10d6b9f757b,2020-07-21_16h13.31.604,fisher_task,2020.1.3,Win32,60,-0.165364583,-0.377604167,1,0,0,0.54894,scale,,,,,,0.349027907,0.282842712,0.174513954,0.141421356,stimuli/lakes/804048_left.png,stimuli/lakes/804048_right.png,,,,0,125,125,48,1,,,,,
,,,,,,,$5eab22c33121c10d6b9f757b,2020-07-21_16h13.31.604,fisher_task,2020.1.3,Win32,60,-0.16015625,-0.373697917,1,0,0,0.44958,scale,,,,,,0.349027907,0.282842712,0.174513954,0.141421356,stimuli/lakes/802021_left.png,stimuli/lakes/802021_right.png,,,,0,126,126,21,1,,,,,
,,,,,,,$5eab22c33121c10d6b9f757b,2020-07-21_16h13.31.604,fisher_task,2020.1.3,Win32,60,0.161458333,-0.361979167,1,0,0,0.400015,scale,,,,,,0.1234,0.1,0.3702,0.3,stimuli/lakes/1090119_left.png,stimuli/lakes/1090119_right.png,,,,0,127,127,119,1,,,,,
,,,,,,,$5eab22c33121c10d6b9f757b,2020-07-21_16h13.31.604,fisher_task,2020.1.3,Win32,60,-0.143229167,-0.385416667,1,0,0,0.63106,scale,,,,,,0.326485712,0.264575131,0.21373507,0.173205081,stimuli/lakes/702020_left.png,stimuli/lakes/702020_right.png,,,,0,128,128,20,1,,,,,
,,,,,,,$5eab22c33121c10d6b9f757b,2020-07-21_16h13.31.604,fisher_task,2020.1.3,Win32,60,0.162760417,-0.407552083,1,0,0,1.41702,scale,,,,,,0.2468,0.2,0.302267034,0.244948974,stimuli/lakes/4080112_left.png,stimuli/lakes/4080112_right.png,,,,0,129,129,112,1,,,,,
,,,,,,,$5eab22c33121c10d6b9f757b,2020-07-21_16h13.31.604,fisher_task,2020.1.3,Win32,60,,,,,,,,,,,,,,,,,,,,,,,,,,,,space,5.230385,space,1.2078
