keySpace.keys,keySpace.rt,instructions.thisRepN,instructions.thisTrialN,instructions.thisN,instructions.thisIndex,instructions.ran,participant,date,expName,psychopyVersion,OS,frameRate,mouse.x,mouse.y,mouse.leftButton,mouse.midButton,mouse.rightButton,mouse.time,mouse.clicked_name,training.thisRepN,training.thisTrialN,training.thisN,training.thisIndex,training.ran,widthBasketLeft,heightBasketLeft,widthBasketRight,heightBasketRight,leftLake,rightLake,space2.keys,space2.rt,space1.keys,trials.thisRepN,trials.thisTrialN,trials.thisN,trials.thisIndex,trials.ran,space1.rt,finalSpace1.keys,finalSpace1.rt,finalSpace2.keys,finalSpace2.rt
space,4.45454,0,0,0,0,1,$5b930339301eda0001ba2446,2020-07-21_16h36.01.104,fisher_task,2020.1.3,Win32,60,,,,,,,,,,,,,,,,,,,,,,,,,,,,,,,
,,1,0,1,0,1,$5b930339301eda0001ba2446,2020-07-21_16h36.01.104,fisher_task,2020.1.3,Win32,60,,,,,,,,,,,,,,,,,,,,,,,,,,,,,,,
,,,,,,,$5b930339301eda0001ba2446,2020-07-21_16h36.01.104,fisher_task,2020.1.3,Win32,60,0.146296296,-0.386111111,1,0,0,3.34981,scale,0,0,0,0,1,0.275930788,0.223606798,0.275930788,0.223606798,stimuli/training/20_left.png,stimuli/training/20_right.png,,,,,,,,,,,,,
,,,,,,,$5b930339301eda0001ba2446,2020-07-21_16h36.01.104,fisher_task,2020.1.3,Win32,60,-0.148148148,-0.37037037,1,0,0,1.69984,scale,0,1,1,1,1,0.275930788,0.223606798,0.275930788,0.223606798,stimuli/training/80_left.png,stimuli/training/80_right.png,,,,,,,,,,,,,
,,,,,,,$5b930339301eda0001ba2446,2020-07-21_16h36.01.104,fisher_task,2020.1.3,Win32,60,0.157407407,-0.416666667,1,0,0,2.03292,scale,0,2,2,2,1,0.174513954,0.141421356,0.349027907,0.282842712,stimuli/training/50_left.png,stimuli/training/50_right.png,,,,,,,,,,,,,
,,,,,,,$5b930339301eda0001ba2446,2020-07-21_16h36.01.104,fisher_task,2020.1.3,Win32,60,-0.146296296,-0.377777778,1,0,0,1.249445,scale,0,3,3,3,1,0.349027907,0.282842712,0.174513954,0.141421356,stimuli/training/50_left.png,stimuli/training/50_right.png,,,,,,,,,,,,,
,,,,,,,$5b930339301eda0001ba2446,2020-07-21_16h36.01.104,fisher_task,2020.1.3,Win32,60,0.001851852,-0.265740741,1,0,0,2.382525,scale,0,4,4,4,1,0.275930788,0.223606798,0.275930788,0.223606798,stimuli/training/50_left.png,stimuli/training/50_right.png,,,,,,,,,,,,,
,,,,,,,$5b930339301eda0001ba2446,2020-07-21_16h36.01.104,fisher_task,2020.1.3,Win32,60,0.15462963,-0.431481481,1,0,0,1.43276,scale,0,5,5,5,1,0.174513954,0.141421356,0.349027907,0.282842712,stimuli/training/20_left.png,stimuli/training/20_right.png,,,,,,,,,,,,,
,,,,,,,$5b930339301eda0001ba2446,2020-07-21_16h36.01.104,fisher_task,2020.1.3,Win32,60,-0.159259259,-0.432407407,1,0,0,1.132275,scale,0,6,6,6,1,0.349027907,0.282842712,0.174513954,0.141421356,stimuli/training/80_left.png,stimuli/training/80_right.png,,,,,,,,,,,,,
,,,,,,,$5b930339301eda0001ba2446,2020-07-21_16h36.01.104,fisher_task,2020.1.3,Win32,60,0.156481481,-0.432407407,1,0,0,1.232985,scale,0,7,7,7,1,0.1234,0.1,0.3702,0.3,stimuli/training/30_left.png,stimuli/training/30_right.png,,,,,,,,,,,,,
,,,,,,,$5b930339301eda0001ba2446,2020-07-21_16h36.01.104,fisher_task,2020.1.3,Win32,60,-0.15462963,-0.432407407,1,0,0,1.31641,scale,0,8,8,8,1,0.3702,0.3,0.1234,0.1,stimuli/training/70_left.png,stimuli/training/70_right.png,,,,,,,,,,,,,
,,,,,,,$5b930339301eda0001ba2446,2020-07-21_16h36.01.104,fisher_task,2020.1.3,Win32,60,-0.150925926,-0.431481481,1,0,0,1.2662,scale,0,9,9,9,1,0.326485712,0.264575131,0.21373507,0.173205081,stimuli/training/90_left.png,stimuli/training/90_right.png,,,,,,,,,,,,,
,,,,,,,$5b930339301eda0001ba2446,2020-07-21_16h36.01.104,fisher_task,2020.1.3,Win32,60,0.159259259,-0.436111111,1,0,0,1.01618,scale,0,10,10,10,1,0.21373507,0.173205081,0.326485712,0.264575131,stimuli/training/10_left.png,stimuli/training/10_right.png,,,,,,,,,,,,,
,,,,,,,$5b930339301eda0001ba2446,2020-07-21_16h36.01.104,fisher_task,2020.1.3,Win32,60,-0.15462963,-0.402777778,1,0,0,1.38729,scale,,,,,,0.302267034,0.244948974,0.2468,0.2,stimuli/lakes/6090126_left.png,stimuli/lakes/6090126_right.png,space,4.733615,,0,0,0,126,1,,,,,
,,,,,,,$5b930339301eda0001ba2446,2020-07-21_16h36.01.104,fisher_task,2020.1.3,Win32,60,0.123148148,-0.32962963,1,0,0,4.716445,scale,,,,,,0.21373507,0.173205081,0.326485712,0.264575131,stimuli/lakes/306073_left.png,stimuli/lakes/306073_right.png,,,,0,1,1,73,1,,,,,
,,,,,,,$5b930339301eda0001ba2446,2020-07-21_16h36.01.104,fisher_task,2020.1.3,Win32,60,0.09537037,-0.308333333,1,0,0,2.115955,scale,,,,,,0.21373507,0.173205081,0.326485712,0.264575131,stimuli/lakes/306082_left.png,stimuli/lakes/306082_right.png,,,,0,2,2,82,1,,,,,
,,,,,,,$5b930339301eda0001ba2446,2020-07-21_16h36.01.104,fisher_task,2020.1.3,Win32,60,-0.072222222,-0.280555556,1,0,0,2.33295,scale,,,,,,0.275930788,0.223606798,0.275930788,0.223606798,stimuli/lakes/506084_left.png,stimuli/lakes/506084_right.png,,,,0,3,3,84,1,,,,,
,,,,,,,$5b930339301eda0001ba2446,2020-07-21_16h36.01.104,fisher_task,2020.1.3,Win32,60,0.15462963,-0.432407407,1,0,0,1.732445,scale,,,,,,0.1234,0.1,0.3702,0.3,stimuli/lakes/103032_left.png,stimuli/lakes/103032_right.png,,,,0,4,4,32,1,,,,,
,,,,,,,$5b930339301eda0001ba2446,2020-07-21_16h36.01.104,fisher_task,2020.1.3,Win32,60,0.15,-0.393518519,1,0,0,0.849445,scale,,,,,,0.21373507,0.173205081,0.326485712,0.264575131,stimuli/lakes/30101_left.png,stimuli/lakes/30101_right.png,,,,0,5,5,1,1,,,,,
,,,,,,,$5b930339301eda0001ba2446,2020-07-21_16h36.01.104,fisher_task,2020.1.3,Win32,60,-0.092592593,-0.305555556,1,0,0,1.766105,scale,,,,,,0.302267034,0.244948974,0.2468,0.2,stimuli/lakes/604055_left.png,stimuli/lakes/604055_right.png,,,,0,6,6,55,1,,,,,
,,,,,,,$5b930339301eda0001ba2446,2020-07-21_16h36.01.104,fisher_task,2020.1.3,Win32,60,0.15462963,-0.434259259,1,0,0,1.482855,scale,,,,,,0.2468,0.2,0.302267034,0.244948974,stimuli/lakes/403035_left.png,stimuli/lakes/403035_right.png,,,,0,7,7,35,1,,,,,
,,,,,,,$5b930339301eda0001ba2446,2020-07-21_16h36.01.104,fisher_task,2020.1.3,Win32,60,0.150925926,-0.358333333,1,0,0,1.499485,scale,,,,,,0.1234,0.1,0.3702,0.3,stimuli/lakes/106071_left.png,stimuli/lakes/106071_right.png,,,,0,8,8,71,1,,,,,
,,,,,,,$5b930339301eda0001ba2446,2020-07-21_16h36.01.104,fisher_task,2020.1.3,Win32,60,0.00462963,-0.258333333,1,0,0,1.633295,scale,,,,,,0.174513954,0.141421356,0.349027907,0.282842712,stimuli/lakes/2080108_left.png,stimuli/lakes/2080108_right.png,,,,0,9,9,108,1,,,,,
,,,,,,,$5b930339301eda0001ba2446,2020-07-21_16h36.01.104,fisher_task,2020.1.3,Win32,60,-0.130555556,-0.310185185,1,0,0,1.31674,scale,,,,,,0.326485712,0.264575131,0.21373507,0.173205081,stimuli/lakes/706086_left.png,stimuli/lakes/706086_right.png,,,,0,10,10,86,1,,,,,
,,,,,,,$5b930339301eda0001ba2446,2020-07-21_16h36.01.104,fisher_task,2020.1.3,Win32,60,0.000925926,-0.25,1,0,0,1.416285,scale,,,,,,0.275930788,0.223606798,0.275930788,0.223606798,stimuli/lakes/506075_left.png,stimuli/lakes/506075_right.png,,,,0,11,11,75,1,,,,,
,,,,,,,$5b930339301eda0001ba2446,2020-07-21_16h36.01.104,fisher_task,2020.1.3,Win32,60,0.150925926,-0.401851852,1,0,0,1.465945,scale,,,,,,0.2468,0.2,0.302267034,0.244948974,stimuli/lakes/404044_left.png,stimuli/lakes/404044_right.png,,,,0,12,12,44,1,,,,,
,,,,,,,$5b930339301eda0001ba2446,2020-07-21_16h36.01.104,fisher_task,2020.1.3,Win32,60,-0.133333333,-0.343518519,1,0,0,1.866015,scale,,,,,,0.2468,0.2,0.302267034,0.244948974,stimuli/lakes/4090123_left.png,stimuli/lakes/4090123_right.png,,,,0,13,13,123,1,,,,,
,,,,,,,$5b930339301eda0001ba2446,2020-07-21_16h36.01.104,fisher_task,2020.1.3,Win32,60,0.140740741,-0.412037037,1,0,0,1.23235,scale,,,,,,0.1234,0.1,0.3702,0.3,stimuli/lakes/104050_left.png,stimuli/lakes/104050_right.png,,,,0,14,14,50,1,,,,,
,,,,,,,$5b930339301eda0001ba2446,2020-07-21_16h36.01.104,fisher_task,2020.1.3,Win32,60,-0.006481481,-0.258333333,1,0,0,2.09928,scale,,,,,,0.1234,0.1,0.3702,0.3,stimuli/lakes/1080107_left.png,stimuli/lakes/1080107_right.png,,,,0,15,15,107,1,,,,,
,,,,,,,$5b930339301eda0001ba2446,2020-07-21_16h36.01.104,fisher_task,2020.1.3,Win32,60,0.15462963,-0.432407407,1,0,0,1.183185,scale,,,,,,0.174513954,0.141421356,0.349027907,0.282842712,stimuli/lakes/204051_left.png,stimuli/lakes/204051_right.png,,,,0,16,16,51,1,,,,,
,,,,,,,$5b930339301eda0001ba2446,2020-07-21_16h36.01.104,fisher_task,2020.1.3,Win32,60,-0.137037037,-0.364814815,1,0,0,1.315665,scale,,,,,,0.349027907,0.282842712,0.174513954,0.141421356,stimuli/lakes/805069_left.png,stimuli/lakes/805069_right.png,,,,0,17,17,69,1,,,,,
,,,,,,,$5b930339301eda0001ba2446,2020-07-21_16h36.01.104,fisher_task,2020.1.3,Win32,60,-0.10462963,-0.306481481,1,0,0,1.182815,scale,,,,,,0.3702,0.3,0.1234,0.1,stimuli/lakes/904058_left.png,stimuli/lakes/904058_right.png,,,,0,18,18,58,1,,,,,
,,,,,,,$5b930339301eda0001ba2446,2020-07-21_16h36.01.104,fisher_task,2020.1.3,Win32,60,0.148148148,-0.40462963,1,0,0,2.299565,scale,,,,,,0.2468,0.2,0.302267034,0.244948974,stimuli/lakes/402015_left.png,stimuli/lakes/402015_right.png,,,,0,19,19,15,1,,,,,
,,,,,,,$5b930339301eda0001ba2446,2020-07-21_16h36.01.104,fisher_task,2020.1.3,Win32,60,-0.028703704,-0.264814815,1,0,0,2.7162,scale,,,,,,0.3702,0.3,0.1234,0.1,stimuli/lakes/906088_left.png,stimuli/lakes/906088_right.png,,,,0,20,20,88,1,,,,,
,,,,,,,$5b930339301eda0001ba2446,2020-07-21_16h36.01.104,fisher_task,2020.1.3,Win32,60,-0.157407407,-0.433333333,1,0,0,1.78359,scale,,,,,,0.3702,0.3,0.1234,0.1,stimuli/lakes/907097_left.png,stimuli/lakes/907097_right.png,,,,0,21,21,97,1,,,,,
,,,,,,,$5b930339301eda0001ba2446,2020-07-21_16h36.01.104,fisher_task,2020.1.3,Win32,60,-0.158333333,-0.415740741,1,0,0,2.632645,scale,,,,,,0.349027907,0.282842712,0.174513954,0.141421356,stimuli/lakes/8080118_left.png,stimuli/lakes/8080118_right.png,,,space,0,22,22,118,1,266.607725,,,,
,,,,,,,$5b930339301eda0001ba2446,2020-07-21_16h36.01.104,fisher_task,2020.1.3,Win32,60,-0.05,-0.263888889,1,0,0,1.81632,scale,,,,,,0.21373507,0.173205081,0.326485712,0.264575131,stimuli/lakes/3080109_left.png,stimuli/lakes/3080109_right.png,,,,0,23,23,109,1,,,,,
,,,,,,,$5b930339301eda0001ba2446,2020-07-21_16h36.01.104,fisher_task,2020.1.3,Win32,60,0.042592593,-0.264814815,1,0,0,2.36613,scale,,,,,,0.349027907,0.282842712,0.174513954,0.141421356,stimuli/lakes/803039_left.png,stimuli/lakes/803039_right.png,,,,0,24,24,39,1,,,,,
,,,,,,,$5b930339301eda0001ba2446,2020-07-21_16h36.01.104,fisher_task,2020.1.3,Win32,60,0.10462963,-0.277777778,1,0,0,1.4164,scale,,,,,,0.302267034,0.244948974,0.2468,0.2,stimuli/lakes/603028_left.png,stimuli/lakes/603028_right.png,,,,0,25,25,28,1,,,,,
,,,,,,,$5b930339301eda0001ba2446,2020-07-21_16h36.01.104,fisher_task,2020.1.3,Win32,60,0.15,-0.383333333,1,0,0,1.349495,scale,,,,,,0.21373507,0.173205081,0.326485712,0.264575131,stimuli/lakes/30100_left.png,stimuli/lakes/30100_right.png,,,,0,26,26,0,1,,,,,
,,,,,,,$5b930339301eda0001ba2446,2020-07-21_16h36.01.104,fisher_task,2020.1.3,Win32,60,0.057407407,-0.269444444,1,0,0,2.46576,scale,,,,,,0.349027907,0.282842712,0.174513954,0.141421356,stimuli/lakes/803030_left.png,stimuli/lakes/803030_right.png,,,,0,27,27,30,1,,,,,
,,,,,,,$5b930339301eda0001ba2446,2020-07-21_16h36.01.104,fisher_task,2020.1.3,Win32,60,0.135185185,-0.351851852,1,0,0,2.16627,scale,,,,,,0.302267034,0.244948974,0.2468,0.2,stimuli/lakes/603037_left.png,stimuli/lakes/603037_right.png,,,,0,28,28,37,1,,,,,
,,,,,,,$5b930339301eda0001ba2446,2020-07-21_16h36.01.104,fisher_task,2020.1.3,Win32,60,0.152777778,-0.374074074,1,0,0,4.13216,scale,,,,,,0.326485712,0.264575131,0.21373507,0.173205081,stimuli/lakes/703029_left.png,stimuli/lakes/703029_right.png,,,,0,29,29,29,1,,,,,
,,,,,,,$5b930339301eda0001ba2446,2020-07-21_16h36.01.104,fisher_task,2020.1.3,Win32,60,-0.148148148,-0.423148148,1,0,0,1.04954,scale,,,,,,0.275930788,0.223606798,0.275930788,0.223606798,stimuli/lakes/5090125_left.png,stimuli/lakes/5090125_right.png,,,,0,30,30,125,1,,,,,
,,,,,,,$5b930339301eda0001ba2446,2020-07-21_16h36.01.104,fisher_task,2020.1.3,Win32,60,-0.002777778,-0.249074074,1,0,0,3.216125,scale,,,,,,0.2468,0.2,0.302267034,0.244948974,stimuli/lakes/405064_left.png,stimuli/lakes/405064_right.png,,,,0,31,31,64,1,,,,,
,,,,,,,$5b930339301eda0001ba2446,2020-07-21_16h36.01.104,fisher_task,2020.1.3,Win32,60,-0.078703704,-0.281481481,1,0,0,1.63339,scale,,,,,,0.2468,0.2,0.302267034,0.244948974,stimuli/lakes/407092_left.png,stimuli/lakes/407092_right.png,,,,0,32,32,92,1,,,,,
,,,,,,,$5b930339301eda0001ba2446,2020-07-21_16h36.01.104,fisher_task,2020.1.3,Win32,60,0.139814815,-0.32037037,1,0,0,1.049415,scale,,,,,,0.2468,0.2,0.302267034,0.244948974,stimuli/lakes/402014_left.png,stimuli/lakes/402014_right.png,,,,0,33,33,14,1,,,,,
,,,,,,,$5b930339301eda0001ba2446,2020-07-21_16h36.01.104,fisher_task,2020.1.3,Win32,60,0.134259259,-0.328703704,1,0,0,1.24962,scale,,,,,,0.275930788,0.223606798,0.275930788,0.223606798,stimuli/lakes/503027_left.png,stimuli/lakes/503027_right.png,,,,0,34,34,27,1,,,,,
,,,,,,,$5b930339301eda0001ba2446,2020-07-21_16h36.01.104,fisher_task,2020.1.3,Win32,60,-0.064814815,-0.280555556,1,0,0,1.46604,scale,,,,,,0.302267034,0.244948974,0.2468,0.2,stimuli/lakes/606076_left.png,stimuli/lakes/606076_right.png,,,,0,35,35,76,1,,,,,
,,,,,,,$5b930339301eda0001ba2446,2020-07-21_16h36.01.104,fisher_task,2020.1.3,Win32,60,-0.15462963,-0.396296296,1,0,0,1.24941,scale,,,,,,0.302267034,0.244948974,0.2468,0.2,stimuli/lakes/6090127_left.png,stimuli/lakes/6090127_right.png,,,,0,36,36,127,1,,,,,
,,,,,,,$5b930339301eda0001ba2446,2020-07-21_16h36.01.104,fisher_task,2020.1.3,Win32,60,0.125,-0.310185185,1,0,0,2.766565,scale,,,,,,0.326485712,0.264575131,0.21373507,0.173205081,stimuli/lakes/70107_left.png,stimuli/lakes/70107_right.png,,,,0,37,37,7,1,,,,,
,,,,,,,$5b930339301eda0001ba2446,2020-07-21_16h36.01.104,fisher_task,2020.1.3,Win32,60,0.153703704,-0.430555556,1,0,0,2.532825,scale,,,,,,0.1234,0.1,0.3702,0.3,stimuli/lakes/104041_left.png,stimuli/lakes/104041_right.png,,,,0,38,38,41,1,,,,,
,,,,,,,$5b930339301eda0001ba2446,2020-07-21_16h36.01.104,fisher_task,2020.1.3,Win32,60,-0.152777778,-0.412037037,1,0,0,1.6494,scale,,,,,,0.2468,0.2,0.302267034,0.244948974,stimuli/lakes/4080111_left.png,stimuli/lakes/4080111_right.png,,,,0,39,39,111,1,,,,,
,,,,,,,$5b930339301eda0001ba2446,2020-07-21_16h36.01.104,fisher_task,2020.1.3,Win32,60,-0.155555556,-0.427777778,1,0,0,1.64918,scale,,,,,,0.3702,0.3,0.1234,0.1,stimuli/lakes/904049_left.png,stimuli/lakes/904049_right.png,,,,0,40,40,49,1,,,,,
,,,,,,,$5b930339301eda0001ba2446,2020-07-21_16h36.01.104,fisher_task,2020.1.3,Win32,60,-0.147222222,-0.387962963,1,0,0,1.149485,scale,,,,,,0.326485712,0.264575131,0.21373507,0.173205081,stimuli/lakes/7090128_left.png,stimuli/lakes/7090128_right.png,,,,0,41,41,128,1,,,,,
,,,,,,,$5b930339301eda0001ba2446,2020-07-21_16h36.01.104,fisher_task,2020.1.3,Win32,60,0.15462963,-0.426851852,1,0,0,2.41624,scale,,,,,,0.3702,0.3,0.1234,0.1,stimuli/lakes/901010_left.png,stimuli/lakes/901010_right.png,,,,0,42,42,10,1,,,,,
,,,,,,,$5b930339301eda0001ba2446,2020-07-21_16h36.01.104,fisher_task,2020.1.3,Win32,60,-0.137962963,-0.361111111,1,0,0,1.33255,scale,,,,,,0.349027907,0.282842712,0.174513954,0.141421356,stimuli/lakes/806087_left.png,stimuli/lakes/806087_right.png,,,,0,43,43,87,1,,,,,
,,,,,,,$5b930339301eda0001ba2446,2020-07-21_16h36.01.104,fisher_task,2020.1.3,Win32,60,-0.147222222,-0.355555556,1,0,0,1.46592,scale,,,,,,0.3702,0.3,0.1234,0.1,stimuli/lakes/906079_left.png,stimuli/lakes/906079_right.png,,,space,0,44,44,79,1,74.49665,,,,
,,,,,,,$5b930339301eda0001ba2446,2020-07-21_16h36.01.104,fisher_task,2020.1.3,Win32,60,0.055555556,-0.276851852,1,0,0,1.582655,scale,,,,,,0.326485712,0.264575131,0.21373507,0.173205081,stimuli/lakes/704056_left.png,stimuli/lakes/704056_right.png,,,,0,45,45,56,1,,,,,
,,,,,,,$5b930339301eda0001ba2446,2020-07-21_16h36.01.104,fisher_task,2020.1.3,Win32,60,0.156481481,-0.423148148,1,0,0,0.98306,scale,,,,,,0.275930788,0.223606798,0.275930788,0.223606798,stimuli/lakes/50104_left.png,stimuli/lakes/50104_right.png,,,,0,46,46,4,1,,,,,
,,,,,,,$5b930339301eda0001ba2446,2020-07-21_16h36.01.104,fisher_task,2020.1.3,Win32,60,0.049074074,-0.269444444,1,0,0,1.616115,scale,,,,,,0.326485712,0.264575131,0.21373507,0.173205081,stimuli/lakes/704047_left.png,stimuli/lakes/704047_right.png,,,,0,47,47,47,1,,,,,
,,,,,,,$5b930339301eda0001ba2446,2020-07-21_16h36.01.104,fisher_task,2020.1.3,Win32,60,-0.1,-0.3,1,0,0,1.333135,scale,,,,,,0.2468,0.2,0.302267034,0.244948974,stimuli/lakes/4070101_left.png,stimuli/lakes/4070101_right.png,,,,0,48,48,101,1,,,,,
,,,,,,,$5b930339301eda0001ba2446,2020-07-21_16h36.01.104,fisher_task,2020.1.3,Win32,60,-0.142592593,-0.373148148,1,0,0,1.316195,scale,,,,,,0.275930788,0.223606798,0.275930788,0.223606798,stimuli/lakes/507093_left.png,stimuli/lakes/507093_right.png,,,,0,49,49,93,1,,,,,
,,,,,,,$5b930339301eda0001ba2446,2020-07-21_16h36.01.104,fisher_task,2020.1.3,Win32,60,0.108333333,-0.327777778,1,0,0,1.233025,scale,,,,,,0.2468,0.2,0.302267034,0.244948974,stimuli/lakes/406083_left.png,stimuli/lakes/406083_right.png,,,,0,50,50,83,1,,,,,
,,,,,,,$5b930339301eda0001ba2446,2020-07-21_16h36.01.104,fisher_task,2020.1.3,Win32,60,-0.146296296,-0.39537037,1,0,0,0.91556,scale,,,,,,0.302267034,0.244948974,0.2468,0.2,stimuli/lakes/6080114_left.png,stimuli/lakes/6080114_right.png,,,,0,51,51,114,1,,,,,
,,,,,,,$5b930339301eda0001ba2446,2020-07-21_16h36.01.104,fisher_task,2020.1.3,Win32,60,0.158333333,-0.410185185,1,0,0,1.300025,scale,,,,,,0.326485712,0.264575131,0.21373507,0.173205081,stimuli/lakes/702020_left.png,stimuli/lakes/702020_right.png,,,,0,52,52,20,1,,,,,
,,,,,,,$5b930339301eda0001ba2446,2020-07-21_16h36.01.104,fisher_task,2020.1.3,Win32,60,-0.062962963,-0.275,1,0,0,3.016315,scale,,,,,,0.302267034,0.244948974,0.2468,0.2,stimuli/lakes/605065_left.png,stimuli/lakes/605065_right.png,,,,0,53,53,65,1,,,,,
,,,,,,,$5b930339301eda0001ba2446,2020-07-21_16h36.01.104,fisher_task,2020.1.3,Win32,60,-0.069444444,-0.266666667,1,0,0,2.01614,scale,,,,,,0.326485712,0.264575131,0.21373507,0.173205081,stimuli/lakes/705067_left.png,stimuli/lakes/705067_right.png,,,,0,54,54,67,1,,,,,
,,,,,,,$5b930339301eda0001ba2446,2020-07-21_16h36.01.104,fisher_task,2020.1.3,Win32,60,-0.141666667,-0.39537037,1,0,0,1.46618,scale,,,,,,0.2468,0.2,0.302267034,0.244948974,stimuli/lakes/4090124_left.png,stimuli/lakes/4090124_right.png,,,,0,55,55,124,1,,,,,
,,,,,,,$5b930339301eda0001ba2446,2020-07-21_16h36.01.104,fisher_task,2020.1.3,Win32,60,0.156481481,-0.432407407,1,0,0,2.249475,scale,,,,,,0.349027907,0.282842712,0.174513954,0.141421356,stimuli/lakes/80109_left.png,stimuli/lakes/80109_right.png,,,,0,56,56,9,1,,,,,
,,,,,,,$5b930339301eda0001ba2446,2020-07-21_16h36.01.104,fisher_task,2020.1.3,Win32,60,0.150925926,-0.418518519,1,0,0,1.24963,scale,,,,,,0.21373507,0.173205081,0.326485712,0.264575131,stimuli/lakes/303025_left.png,stimuli/lakes/303025_right.png,,,,0,57,57,25,1,,,,,
,,,,,,,$5b930339301eda0001ba2446,2020-07-21_16h36.01.104,fisher_task,2020.1.3,Win32,60,0.141666667,-0.373148148,1,0,0,1.13313,scale,,,,,,0.2468,0.2,0.302267034,0.244948974,stimuli/lakes/404053_left.png,stimuli/lakes/404053_right.png,,,,0,58,58,53,1,,,,,
,,,,,,,$5b930339301eda0001ba2446,2020-07-21_16h36.01.104,fisher_task,2020.1.3,Win32,60,-0.162962963,-0.425925926,1,0,0,1.26647,scale,,,,,,0.3702,0.3,0.1234,0.1,stimuli/lakes/9070106_left.png,stimuli/lakes/9070106_right.png,,,,0,59,59,106,1,,,,,
,,,,,,,$5b930339301eda0001ba2446,2020-07-21_16h36.01.104,fisher_task,2020.1.3,Win32,60,-0.059259259,-0.275,1,0,0,1.66605,scale,,,,,,0.174513954,0.141421356,0.349027907,0.282842712,stimuli/lakes/207090_left.png,stimuli/lakes/207090_right.png,,,,0,60,60,90,1,,,,,
,,,,,,,$5b930339301eda0001ba2446,2020-07-21_16h36.01.104,fisher_task,2020.1.3,Win32,60,0.147222222,-0.425925926,1,0,0,2.03293,scale,,,,,,0.275930788,0.223606798,0.275930788,0.223606798,stimuli/lakes/503036_left.png,stimuli/lakes/503036_right.png,,,,0,61,61,36,1,,,,,
,,,,,,,$5b930339301eda0001ba2446,2020-07-21_16h36.01.104,fisher_task,2020.1.3,Win32,60,0.083333333,-0.285185185,1,0,0,2.24952,scale,,,,,,0.21373507,0.173205081,0.326485712,0.264575131,stimuli/lakes/305061_left.png,stimuli/lakes/305061_right.png,,,,0,62,62,61,1,,,,,
,,,,,,,$5b930339301eda0001ba2446,2020-07-21_16h36.01.104,fisher_task,2020.1.3,Win32,60,-0.080555556,-0.298148148,1,0,0,1.416325,scale,,,,,,0.326485712,0.264575131,0.21373507,0.173205081,stimuli/lakes/705068_left.png,stimuli/lakes/705068_right.png,,,,0,63,63,68,1,,,,,
,,,,,,,$5b930339301eda0001ba2446,2020-07-21_16h36.01.104,fisher_task,2020.1.3,Win32,60,0.143518519,-0.424074074,1,0,0,1.333,scale,,,,,,0.302267034,0.244948974,0.2468,0.2,stimuli/lakes/60105_left.png,stimuli/lakes/60105_right.png,,,,0,64,64,5,1,,,,,
,,,,,,,$5b930339301eda0001ba2446,2020-07-21_16h36.01.104,fisher_task,2020.1.3,Win32,60,0.153703704,-0.425925926,1,0,0,1.100275,scale,,,,,,0.1234,0.1,0.3702,0.3,stimuli/lakes/103023_left.png,stimuli/lakes/103023_right.png,,,,0,65,65,23,1,,,,,
,,,,,,,$5b930339301eda0001ba2446,2020-07-21_16h36.01.104,fisher_task,2020.1.3,Win32,60,0.153703704,-0.418518519,1,0,0,1.24968,scale,,,,,,0.174513954,0.141421356,0.349027907,0.282842712,stimuli/lakes/202011_left.png,stimuli/lakes/202011_right.png,,,space,0,66,66,11,1,73.26685,,,,
,,,,,,,$5b930339301eda0001ba2446,2020-07-21_16h36.01.104,fisher_task,2020.1.3,Win32,60,-0.096296296,-0.294444444,1,0,0,1.26633,scale,,,,,,0.326485712,0.264575131,0.21373507,0.173205081,stimuli/lakes/706077_left.png,stimuli/lakes/706077_right.png,,,,0,67,67,77,1,,,,,
,,,,,,,$5b930339301eda0001ba2446,2020-07-21_16h36.01.104,fisher_task,2020.1.3,Win32,60,0.147222222,-0.376851852,1,0,0,1.632865,scale,,,,,,0.326485712,0.264575131,0.21373507,0.173205081,stimuli/lakes/70108_left.png,stimuli/lakes/70108_right.png,,,,0,68,68,8,1,,,,,
,,,,,,,$5b930339301eda0001ba2446,2020-07-21_16h36.01.104,fisher_task,2020.1.3,Win32,60,0.073148148,-0.281481481,1,0,0,1.74929,scale,,,,,,0.349027907,0.282842712,0.174513954,0.141421356,stimuli/lakes/802021_left.png,stimuli/lakes/802021_right.png,,,,0,69,69,21,1,,,,,
,,,,,,,$5b930339301eda0001ba2446,2020-07-21_16h36.01.104,fisher_task,2020.1.3,Win32,60,-0.044444444,-0.268518519,1,0,0,1.916735,scale,,,,,,0.1234,0.1,0.3702,0.3,stimuli/lakes/1090119_left.png,stimuli/lakes/1090119_right.png,,,,0,70,70,119,1,,,,,
,,,,,,,$5b930339301eda0001ba2446,2020-07-21_16h36.01.104,fisher_task,2020.1.3,Win32,60,0.153703704,-0.418518519,1,0,0,1.616395,scale,,,,,,0.2468,0.2,0.302267034,0.244948974,stimuli/lakes/40103_left.png,stimuli/lakes/40103_right.png,,,,0,71,71,3,1,,,,,
,,,,,,,$5b930339301eda0001ba2446,2020-07-21_16h36.01.104,fisher_task,2020.1.3,Win32,60,-0.019444444,-0.240740741,1,0,0,3.2496,scale,,,,,,0.21373507,0.173205081,0.326485712,0.264575131,stimuli/lakes/305062_left.png,stimuli/lakes/305062_right.png,,,,0,72,72,62,1,,,,,
,,,,,,,$5b930339301eda0001ba2446,2020-07-21_16h36.01.104,fisher_task,2020.1.3,Win32,60,-0.139814815,-0.411111111,1,0,0,0.849835,scale,,,,,,0.326485712,0.264575131,0.21373507,0.173205081,stimuli/lakes/7080116_left.png,stimuli/lakes/7080116_right.png,,,,0,73,73,116,1,,,,,
,,,,,,,$5b930339301eda0001ba2446,2020-07-21_16h36.01.104,fisher_task,2020.1.3,Win32,60,-0.060185185,-0.257407407,1,0,0,1.46631,scale,,,,,,0.174513954,0.141421356,0.349027907,0.282842712,stimuli/lakes/207099_left.png,stimuli/lakes/207099_right.png,,,,0,74,74,99,1,,,,,
,,,,,,,$5b930339301eda0001ba2446,2020-07-21_16h36.01.104,fisher_task,2020.1.3,Win32,60,-0.116666667,-0.290740741,1,0,0,0.88304,scale,,,,,,0.349027907,0.282842712,0.174513954,0.141421356,stimuli/lakes/806078_left.png,stimuli/lakes/806078_right.png,,,,0,75,75,78,1,,,,,
,,,,,,,$5b930339301eda0001ba2446,2020-07-21_16h36.01.104,fisher_task,2020.1.3,Win32,60,0.138888889,-0.372222222,1,0,0,0.916185,scale,,,,,,0.21373507,0.173205081,0.326485712,0.264575131,stimuli/lakes/304043_left.png,stimuli/lakes/304043_right.png,,,,0,76,76,43,1,,,,,
,,,,,,,$5b930339301eda0001ba2446,2020-07-21_16h36.01.104,fisher_task,2020.1.3,Win32,60,-0.006481481,-0.262962963,1,0,0,1.54961,scale,,,,,,0.2468,0.2,0.302267034,0.244948974,stimuli/lakes/406074_left.png,stimuli/lakes/406074_right.png,,,,0,77,77,74,1,,,,,
,,,,,,,$5b930339301eda0001ba2446,2020-07-21_16h36.01.104,fisher_task,2020.1.3,Win32,60,0.097222222,-0.294444444,1,0,0,0.98286,scale,,,,,,0.174513954,0.141421356,0.349027907,0.282842712,stimuli/lakes/204042_left.png,stimuli/lakes/204042_right.png,,,,0,78,78,42,1,,,,,
,,,,,,,$5b930339301eda0001ba2446,2020-07-21_16h36.01.104,fisher_task,2020.1.3,Win32,60,0.034259259,-0.256481481,1,0,0,1.44989,scale,,,,,,0.1234,0.1,0.3702,0.3,stimuli/lakes/107098_left.png,stimuli/lakes/107098_right.png,,,,0,79,79,98,1,,,,,
,,,,,,,$5b930339301eda0001ba2446,2020-07-21_16h36.01.104,fisher_task,2020.1.3,Win32,60,-0.131481481,-0.333333333,1,0,0,1.0827,scale,,,,,,0.302267034,0.244948974,0.2468,0.2,stimuli/lakes/606085_left.png,stimuli/lakes/606085_right.png,,,,0,80,80,85,1,,,,,
,,,,,,,$5b930339301eda0001ba2446,2020-07-21_16h36.01.104,fisher_task,2020.1.3,Win32,60,0.062962963,-0.275,1,0,0,1.51653,scale,,,,,,0.174513954,0.141421356,0.349027907,0.282842712,stimuli/lakes/206081_left.png,stimuli/lakes/206081_right.png,,,,0,81,81,81,1,,,,,
,,,,,,,$5b930339301eda0001ba2446,2020-07-21_16h36.01.104,fisher_task,2020.1.3,Win32,60,0.131481481,-0.337037037,1,0,0,0.866495,scale,,,,,,0.21373507,0.173205081,0.326485712,0.264575131,stimuli/lakes/303034_left.png,stimuli/lakes/303034_right.png,,,,0,82,82,34,1,,,,,
,,,,,,,$5b930339301eda0001ba2446,2020-07-21_16h36.01.104,fisher_task,2020.1.3,Win32,60,-0.137962963,-0.360185185,1,0,0,0.94987,scale,,,,,,0.302267034,0.244948974,0.2468,0.2,stimuli/lakes/6070103_left.png,stimuli/lakes/6070103_right.png,,,,0,83,83,103,1,,,,,
,,,,,,,$5b930339301eda0001ba2446,2020-07-21_16h36.01.104,fisher_task,2020.1.3,Win32,60,0.139814815,-0.34537037,1,0,0,2.84963,scale,,,,,,0.302267034,0.244948974,0.2468,0.2,stimuli/lakes/604046_left.png,stimuli/lakes/604046_right.png,,,,0,84,84,46,1,,,,,
,,,,,,,$5b930339301eda0001ba2446,2020-07-21_16h36.01.104,fisher_task,2020.1.3,Win32,60,-0.161111111,-0.428703704,1,0,0,1.28373,scale,,,,,,0.21373507,0.173205081,0.326485712,0.264575131,stimuli/lakes/3090121_left.png,stimuli/lakes/3090121_right.png,,,,0,85,85,121,1,,,,,
,,,,,,,$5b930339301eda0001ba2446,2020-07-21_16h36.01.104,fisher_task,2020.1.3,Win32,60,-0.15462963,-0.39537037,1,0,0,1.2329,scale,,,,,,0.21373507,0.173205081,0.326485712,0.264575131,stimuli/lakes/3080110_left.png,stimuli/lakes/3080110_right.png,,,,0,86,86,110,1,,,,,
,,,,,,,$5b930339301eda0001ba2446,2020-07-21_16h36.01.104,fisher_task,2020.1.3,Win32,60,0.109259259,-0.314814815,1,0,0,1.6493,scale,,,,,,0.275930788,0.223606798,0.275930788,0.223606798,stimuli/lakes/504045_left.png,stimuli/lakes/504045_right.png,,,,0,87,87,45,1,,,,,
,,,,,,,$5b930339301eda0001ba2446,2020-07-21_16h36.01.104,fisher_task,2020.1.3,Win32,60,0.097222222,-0.3,1,0,0,1.545855,scale,,,,,,0.174513954,0.141421356,0.349027907,0.282842712,stimuli/lakes/206072_left.png,stimuli/lakes/206072_right.png,,,space,0,88,88,72,1,123.412585,,,,
,,,,,,,$5b930339301eda0001ba2446,2020-07-21_16h36.01.104,fisher_task,2020.1.3,Win32,60,0.162962963,-0.402777778,1,0,0,1.183045,scale,,,,,,0.3702,0.3,0.1234,0.1,stimuli/lakes/902022_left.png,stimuli/lakes/902022_right.png,,,,0,89,89,22,1,,,,,
,,,,,,,$5b930339301eda0001ba2446,2020-07-21_16h36.01.104,fisher_task,2020.1.3,Win32,60,0.018518519,-0.27037037,1,0,0,1.44962,scale,,,,,,0.275930788,0.223606798,0.275930788,0.223606798,stimuli/lakes/504054_left.png,stimuli/lakes/504054_right.png,,,,0,90,90,54,1,,,,,
,,,,,,,$5b930339301eda0001ba2446,2020-07-21_16h36.01.104,fisher_task,2020.1.3,Win32,60,-0.093518519,-0.30462963,1,0,0,1.116425,scale,,,,,,0.326485712,0.264575131,0.21373507,0.173205081,stimuli/lakes/7070104_left.png,stimuli/lakes/7070104_right.png,,,,0,91,91,104,1,,,,,
,,,,,,,$5b930339301eda0001ba2446,2020-07-21_16h36.01.104,fisher_task,2020.1.3,Win32,60,-0.15462963,-0.366666667,1,0,0,0.899455,scale,,,,,,0.302267034,0.244948974,0.2468,0.2,stimuli/lakes/607094_left.png,stimuli/lakes/607094_right.png,,,,0,92,92,94,1,,,,,
,,,,,,,$5b930339301eda0001ba2446,2020-07-21_16h36.01.104,fisher_task,2020.1.3,Win32,60,0.146296296,-0.324074074,1,0,0,1.016205,scale,,,,,,0.326485712,0.264575131,0.21373507,0.173205081,stimuli/lakes/703038_left.png,stimuli/lakes/703038_right.png,,,,0,93,93,38,1,,,,,
,,,,,,,$5b930339301eda0001ba2446,2020-07-21_16h36.01.104,fisher_task,2020.1.3,Win32,60,0.107407407,-0.308333333,1,0,0,1.19943,scale,,,,,,0.349027907,0.282842712,0.174513954,0.141421356,stimuli/lakes/804057_left.png,stimuli/lakes/804057_right.png,,,,0,94,94,57,1,,,,,
,,,,,,,$5b930339301eda0001ba2446,2020-07-21_16h36.01.104,fisher_task,2020.1.3,Win32,60,0.114814815,-0.323148148,1,0,0,1.100025,scale,,,,,,0.2468,0.2,0.302267034,0.244948974,stimuli/lakes/403026_left.png,stimuli/lakes/403026_right.png,,,,0,95,95,26,1,,,,,
,,,,,,,$5b930339301eda0001ba2446,2020-07-21_16h36.01.104,fisher_task,2020.1.3,Win32,60,0.15,-0.401851852,1,0,0,1.26603,scale,,,,,,0.1234,0.1,0.3702,0.3,stimuli/lakes/105059_left.png,stimuli/lakes/105059_right.png,,,,0,96,96,59,1,,,,,
,,,,,,,$5b930339301eda0001ba2446,2020-07-21_16h36.01.104,fisher_task,2020.1.3,Win32,60,0.157407407,-0.431481481,1,0,0,1.366615,scale,,,,,,0.3702,0.3,0.1234,0.1,stimuli/lakes/903031_left.png,stimuli/lakes/903031_right.png,,,,0,97,97,31,1,,,,,
,,,,,,,$5b930339301eda0001ba2446,2020-07-21_16h36.01.104,fisher_task,2020.1.3,Win32,60,-0.067592593,-0.265740741,1,0,0,1.566615,scale,,,,,,0.2468,0.2,0.302267034,0.244948974,stimuli/lakes/4080112_left.png,stimuli/lakes/4080112_right.png,,,,0,98,98,112,1,,,,,
,,,,,,,$5b930339301eda0001ba2446,2020-07-21_16h36.01.104,fisher_task,2020.1.3,Win32,60,0.155555556,-0.426851852,1,0,0,1.216235,scale,,,,,,0.174513954,0.141421356,0.349027907,0.282842712,stimuli/lakes/203033_left.png,stimuli/lakes/203033_right.png,,,,0,99,99,33,1,,,,,
,,,,,,,$5b930339301eda0001ba2446,2020-07-21_16h36.01.104,fisher_task,2020.1.3,Win32,60,-0.135185185,-0.32962963,1,0,0,0.86567,scale,,,,,,0.302267034,0.244948974,0.2468,0.2,stimuli/lakes/605066_left.png,stimuli/lakes/605066_right.png,,,,0,100,100,66,1,,,,,
,,,,,,,$5b930339301eda0001ba2446,2020-07-21_16h36.01.104,fisher_task,2020.1.3,Win32,60,-0.156481481,-0.426851852,1,0,0,1.98316,scale,,,,,,0.1234,0.1,0.3702,0.3,stimuli/lakes/107089_left.png,stimuli/lakes/107089_right.png,,,,0,101,101,89,1,,,,,
,,,,,,,$5b930339301eda0001ba2446,2020-07-21_16h36.01.104,fisher_task,2020.1.3,Win32,60,0.15462963,-0.431481481,1,0,0,1.39938,scale,,,,,,0.302267034,0.244948974,0.2468,0.2,stimuli/lakes/602017_left.png,stimuli/lakes/602017_right.png,,,,0,102,102,17,1,,,,,
,,,,,,,$5b930339301eda0001ba2446,2020-07-21_16h36.01.104,fisher_task,2020.1.3,Win32,60,0.159259259,-0.422222222,1,0,0,4.682945,scale,,,,,,0.21373507,0.173205081,0.326485712,0.264575131,stimuli/lakes/302013_left.png,stimuli/lakes/302013_right.png,,,,0,103,103,13,1,,,,,
,,,,,,,$5b930339301eda0001ba2446,2020-07-21_16h36.01.104,fisher_task,2020.1.3,Win32,60,-0.125925926,-0.321296296,1,0,0,1.0662,scale,,,,,,0.21373507,0.173205081,0.326485712,0.264575131,stimuli/lakes/3070100_left.png,stimuli/lakes/3070100_right.png,,,,0,104,104,100,1,,,,,
,,,,,,,$5b930339301eda0001ba2446,2020-07-21_16h36.01.104,fisher_task,2020.1.3,Win32,60,-0.158333333,-0.408333333,1,0,0,2.5993,scale,,,,,,0.275930788,0.223606798,0.275930788,0.223606798,stimuli/lakes/5070102_left.png,stimuli/lakes/5070102_right.png,,,,0,105,105,102,1,,,,,
,,,,,,,$5b930339301eda0001ba2446,2020-07-21_16h36.01.104,fisher_task,2020.1.3,Win32,60,-0.15,-0.42962963,1,0,0,1.26605,scale,,,,,,0.302267034,0.244948974,0.2468,0.2,stimuli/lakes/6080115_left.png,stimuli/lakes/6080115_right.png,,,,0,106,106,115,1,,,,,
,,,,,,,$5b930339301eda0001ba2446,2020-07-21_16h36.01.104,fisher_task,2020.1.3,Win32,60,-0.158333333,-0.410185185,1,0,0,1.199385,scale,,,,,,0.349027907,0.282842712,0.174513954,0.141421356,stimuli/lakes/807096_left.png,stimuli/lakes/807096_right.png,,,,0,107,107,96,1,,,,,
,,,,,,,$5b930339301eda0001ba2446,2020-07-21_16h36.01.104,fisher_task,2020.1.3,Win32,60,0.15462963,-0.394444444,1,0,0,0.999525,scale,,,,,,0.21373507,0.173205081,0.326485712,0.264575131,stimuli/lakes/304052_left.png,stimuli/lakes/304052_right.png,,,,0,108,108,52,1,,,,,
,,,,,,,$5b930339301eda0001ba2446,2020-07-21_16h36.01.104,fisher_task,2020.1.3,Win32,60,0.159259259,-0.422222222,1,0,0,1.082755,scale,,,,,,0.174513954,0.141421356,0.349027907,0.282842712,stimuli/lakes/203024_left.png,stimuli/lakes/203024_right.png,,,,0,109,109,24,1,,,,,
,,,,,,,$5b930339301eda0001ba2446,2020-07-21_16h36.01.104,fisher_task,2020.1.3,Win32,60,0.157407407,-0.417592593,1,0,0,1.232905,scale,,,,,,0.275930788,0.223606798,0.275930788,0.223606798,stimuli/lakes/502016_left.png,stimuli/lakes/502016_right.png,,,space,0,110,110,16,1,2.125155,,,,
,,,,,,,$5b930339301eda0001ba2446,2020-07-21_16h36.01.104,fisher_task,2020.1.3,Win32,60,-0.150925926,-0.424074074,1,0,0,1.04969,scale,,,,,,0.174513954,0.141421356,0.349027907,0.282842712,stimuli/lakes/2090120_left.png,stimuli/lakes/2090120_right.png,,,,0,111,111,120,1,,,,,
,,,,,,,$5b930339301eda0001ba2446,2020-07-21_16h36.01.104,fisher_task,2020.1.3,Win32,60,-0.067592593,-0.262962963,1,0,0,1.732875,scale,,,,,,0.1234,0.1,0.3702,0.3,stimuli/lakes/106080_left.png,stimuli/lakes/106080_right.png,,,,0,112,112,80,1,,,,,
,,,,,,,$5b930339301eda0001ba2446,2020-07-21_16h36.01.104,fisher_task,2020.1.3,Win32,60,-0.152777778,-0.361111111,1,0,0,1.199865,scale,,,,,,0.21373507,0.173205081,0.326485712,0.264575131,stimuli/lakes/307091_left.png,stimuli/lakes/307091_right.png,,,,0,113,113,91,1,,,,,
,,,,,,,$5b930339301eda0001ba2446,2020-07-21_16h36.01.104,fisher_task,2020.1.3,Win32,60,-0.153703704,-0.425,1,0,0,1.1663,scale,,,,,,0.21373507,0.173205081,0.326485712,0.264575131,stimuli/lakes/3090122_left.png,stimuli/lakes/3090122_right.png,,,,0,114,114,122,1,,,,,
,,,,,,,$5b930339301eda0001ba2446,2020-07-21_16h36.01.104,fisher_task,2020.1.3,Win32,60,0.156481481,-0.425,1,0,0,1.299745,scale,,,,,,0.2468,0.2,0.302267034,0.244948974,stimuli/lakes/40102_left.png,stimuli/lakes/40102_right.png,,,,0,115,115,2,1,,,,,
,,,,,,,$5b930339301eda0001ba2446,2020-07-21_16h36.01.104,fisher_task,2020.1.3,Win32,60,0,-0.258333333,1,0,0,1.232965,scale,,,,,,0.2468,0.2,0.302267034,0.244948974,stimuli/lakes/405063_left.png,stimuli/lakes/405063_right.png,,,,0,116,116,63,1,,,,,
,,,,,,,$5b930339301eda0001ba2446,2020-07-21_16h36.01.104,fisher_task,2020.1.3,Win32,60,0.150925926,-0.411111111,1,0,0,1.38281,scale,,,,,,0.302267034,0.244948974,0.2468,0.2,stimuli/lakes/60106_left.png,stimuli/lakes/60106_right.png,,,,0,117,117,6,1,,,,,
,,,,,,,$5b930339301eda0001ba2446,2020-07-21_16h36.01.104,fisher_task,2020.1.3,Win32,60,-0.14537037,-0.39537037,1,0,0,1.132745,scale,,,,,,0.349027907,0.282842712,0.174513954,0.141421356,stimuli/lakes/8070105_left.png,stimuli/lakes/8070105_right.png,,,,0,118,118,105,1,,,,,
,,,,,,,$5b930339301eda0001ba2446,2020-07-21_16h36.01.104,fisher_task,2020.1.3,Win32,60,-0.14537037,-0.39537037,1,0,0,0.59998,scale,,,,,,0.326485712,0.264575131,0.21373507,0.173205081,stimuli/lakes/707095_left.png,stimuli/lakes/707095_right.png,,,,0,119,119,95,1,,,,,
,,,,,,,$5b930339301eda0001ba2446,2020-07-21_16h36.01.104,fisher_task,2020.1.3,Win32,60,0.15,-0.431481481,1,0,0,1.21627,scale,,,,,,0.21373507,0.173205081,0.326485712,0.264575131,stimuli/lakes/302012_left.png,stimuli/lakes/302012_right.png,,,,0,120,120,12,1,,,,,
,,,,,,,$5b930339301eda0001ba2446,2020-07-21_16h36.01.104,fisher_task,2020.1.3,Win32,60,-0.060185185,-0.272222222,1,0,0,1.94971,scale,,,,,,0.3702,0.3,0.1234,0.1,stimuli/lakes/905070_left.png,stimuli/lakes/905070_right.png,,,,0,121,121,70,1,,,,,
,,,,,,,$5b930339301eda0001ba2446,2020-07-21_16h36.01.104,fisher_task,2020.1.3,Win32,60,-0.14537037,-0.412962963,1,0,0,1.0329,scale,,,,,,0.275930788,0.223606798,0.275930788,0.223606798,stimuli/lakes/5080113_left.png,stimuli/lakes/5080113_right.png,,,,0,122,122,113,1,,,,,
,,,,,,,$5b930339301eda0001ba2446,2020-07-21_16h36.01.104,fisher_task,2020.1.3,Win32,60,-0.074074074,-0.262962963,1,0,0,3.23323,scale,,,,,,0.349027907,0.282842712,0.174513954,0.141421356,stimuli/lakes/804048_left.png,stimuli/lakes/804048_right.png,,,,0,123,123,48,1,,,,,
,,,,,,,$5b930339301eda0001ba2446,2020-07-21_16h36.01.104,fisher_task,2020.1.3,Win32,60,0.157407407,-0.407407407,1,0,0,1.349765,scale,,,,,,0.302267034,0.244948974,0.2468,0.2,stimuli/lakes/602018_left.png,stimuli/lakes/602018_right.png,,,,0,124,124,18,1,,,,,
,,,,,,,$5b930339301eda0001ba2446,2020-07-21_16h36.01.104,fisher_task,2020.1.3,Win32,60,0.109259259,-0.299074074,1,0,0,2.082725,scale,,,,,,0.3702,0.3,0.1234,0.1,stimuli/lakes/903040_left.png,stimuli/lakes/903040_right.png,,,,0,125,125,40,1,,,,,
,,,,,,,$5b930339301eda0001ba2446,2020-07-21_16h36.01.104,fisher_task,2020.1.3,Win32,60,-0.157407407,-0.421296296,1,0,0,1.21603,scale,,,,,,0.326485712,0.264575131,0.21373507,0.173205081,stimuli/lakes/7090129_left.png,stimuli/lakes/7090129_right.png,,,,0,126,126,129,1,,,,,
,,,,,,,$5b930339301eda0001ba2446,2020-07-21_16h36.01.104,fisher_task,2020.1.3,Win32,60,0.121296296,-0.324074074,1,0,0,1.966255,scale,,,,,,0.326485712,0.264575131,0.21373507,0.173205081,stimuli/lakes/702019_left.png,stimuli/lakes/702019_right.png,,,,0,127,127,19,1,,,,,
,,,,,,,$5b930339301eda0001ba2446,2020-07-21_16h36.01.104,fisher_task,2020.1.3,Win32,60,-0.150925926,-0.407407407,1,0,0,1.01623,scale,,,,,,0.326485712,0.264575131,0.21373507,0.173205081,stimuli/lakes/7080117_left.png,stimuli/lakes/7080117_right.png,,,,0,128,128,117,1,,,,,
,,,,,,,$5b930339301eda0001ba2446,2020-07-21_16h36.01.104,fisher_task,2020.1.3,Win32,60,0.100925926,-0.299074074,1,0,0,2.282725,scale,,,,,,0.174513954,0.141421356,0.349027907,0.282842712,stimuli/lakes/205060_left.png,stimuli/lakes/205060_right.png,,,,0,129,129,60,1,,,,,
,,,,,,,$5b930339301eda0001ba2446,2020-07-21_16h36.01.104,fisher_task,2020.1.3,Win32,60,,,,,,,,,,,,,,,,,,,,,,,,,,,,space,8.72068,space,14.01008
