keySpace.keys,keySpace.rt,instructions.thisRepN,instructions.thisTrialN,instructions.thisN,instructions.thisIndex,instructions.ran,participant,date,expName,psychopyVersion,OS,frameRate,mouse.x,mouse.y,mouse.leftButton,mouse.midButton,mouse.rightButton,mouse.time,mouse.clicked_name,training.thisRepN,training.thisTrialN,training.thisN,training.thisIndex,training.ran,widthBasketLeft,heightBasketLeft,widthBasketRight,heightBasketRight,leftLake,rightLake,space2.keys,space2.rt,space1.keys,trials.thisRepN,trials.thisTrialN,trials.thisN,trials.thisIndex,trials.ran,space1.rt,finalSpace1.keys,finalSpace1.rt,finalSpace2.keys,finalSpace2.rt
space,5.77,0,0,0,0,1,$3069151767,2020-07-13_09h44.27.132,fisher_task,2020.1.3,Win32,60,,,,,,,,,,,,,,,,,,,,,,,,,,,,,,,
,,1,0,1,0,1,$3069151767,2020-07-13_09h44.27.132,fisher_task,2020.1.3,Win32,60,,,,,,,,,,,,,,,,,,,,,,,,,,,,,,,
,,,,,,,$3069151767,2020-07-13_09h44.27.132,fisher_task,2020.1.3,Win32,60,0.23828125,-0.44921875,1,0,0,4.282,scale,0,0,0,0,1,0.275930788,0.223606798,0.275930788,0.223606798,stimuli/training/20_left.png,stimuli/training/20_right.png,,,,,,,,,,,,,
,,,,,,,$3069151767,2020-07-13_09h44.27.132,fisher_task,2020.1.3,Win32,60,-0.251302083,-0.454427083,1,0,0,2.948,scale,0,1,1,1,1,0.275930788,0.223606798,0.275930788,0.223606798,stimuli/training/80_left.png,stimuli/training/80_right.png,,,,,,,,,,,,,
,,,,,,,$3069151767,2020-07-13_09h44.27.132,fisher_task,2020.1.3,Win32,60,0.00390625,-0.18359375,1,0,0,4.798,scale,0,2,2,2,1,0.174513954,0.141421356,0.349027907,0.282842712,stimuli/training/50_left.png,stimuli/training/50_right.png,,,,,,,,,,,,,
,,,,,,,$3069151767,2020-07-13_09h44.27.132,fisher_task,2020.1.3,Win32,60,-0.006510417,-0.227864583,1,0,0,3.515,scale,0,3,3,3,1,0.349027907,0.282842712,0.174513954,0.141421356,stimuli/training/50_left.png,stimuli/training/50_right.png,,,,,,,,,,,,,
,,,,,,,$3069151767,2020-07-13_09h44.27.132,fisher_task,2020.1.3,Win32,60,0.21484375,-0.442708333,1,0,0,2.499,scale,0,4,4,4,1,0.275930788,0.223606798,0.275930788,0.223606798,stimuli/training/50_left.png,stimuli/training/50_right.png,,,,,,,,,,,,,
,,,,,,,$3069151767,2020-07-13_09h44.27.132,fisher_task,2020.1.3,Win32,60,0.171875,-0.399739583,1,0,0,3.282,scale,0,5,5,5,1,0.174513954,0.141421356,0.349027907,0.282842712,stimuli/training/20_left.png,stimuli/training/20_right.png,,,,,,,,,,,,,
,,,,,,,$3069151767,2020-07-13_09h44.27.132,fisher_task,2020.1.3,Win32,60,-0.15234375,-0.389322917,1,0,0,2.483,scale,0,6,6,6,1,0.349027907,0.282842712,0.174513954,0.141421356,stimuli/training/80_left.png,stimuli/training/80_right.png,,,,,,,,,,,,,
,,,,,,,$3069151767,2020-07-13_09h44.27.132,fisher_task,2020.1.3,Win32,60,0.180989583,-0.388020833,1,0,0,3.117,scale,0,7,7,7,1,0.1234,0.1,0.3702,0.3,stimuli/training/30_left.png,stimuli/training/30_right.png,,,,,,,,,,,,,
,,,,,,,$3069151767,2020-07-13_09h44.27.132,fisher_task,2020.1.3,Win32,60,-0.13671875,-0.384114583,1,0,0,2.267,scale,0,8,8,8,1,0.3702,0.3,0.1234,0.1,stimuli/training/70_left.png,stimuli/training/70_right.png,,,,,,,,,,,,,
,,,,,,,$3069151767,2020-07-13_09h44.27.132,fisher_task,2020.1.3,Win32,60,-0.1640625,-0.375,1,0,0,2.032,scale,0,9,9,9,1,0.326485712,0.264575131,0.21373507,0.173205081,stimuli/training/90_left.png,stimuli/training/90_right.png,,,,,,,,,,,,,
,,,,,,,$3069151767,2020-07-13_09h44.27.132,fisher_task,2020.1.3,Win32,60,0.16015625,-0.360677083,1,0,0,1.533,scale,0,10,10,10,1,0.21373507,0.173205081,0.326485712,0.264575131,stimuli/training/10_left.png,stimuli/training/10_right.png,,,,,,,,,,,,,
,,,,,,,$3069151767,2020-07-13_09h44.27.132,fisher_task,2020.1.3,Win32,60,0.15234375,-0.416666667,1,0,0,2.832,scale,,,,,,0.302267034,0.244948974,0.2468,0.2,stimuli/lakes/604055_left.png,stimuli/lakes/604055_right.png,space,5.301,,0,0,0,55,1,,,,,
,,,,,,,$3069151767,2020-07-13_09h44.27.132,fisher_task,2020.1.3,Win32,60,0.166666667,-0.384114583,1,0,0,1.798,scale,,,,,,0.275930788,0.223606798,0.275930788,0.223606798,stimuli/lakes/504054_left.png,stimuli/lakes/504054_right.png,,,,0,1,1,54,1,,,,,
,,,,,,,$3069151767,2020-07-13_09h44.27.132,fisher_task,2020.1.3,Win32,60,0.154947917,-0.37109375,1,0,0,1.598,scale,,,,,,0.21373507,0.173205081,0.326485712,0.264575131,stimuli/lakes/303025_left.png,stimuli/lakes/303025_right.png,,,,0,2,2,25,1,,,,,
,,,,,,,$3069151767,2020-07-13_09h44.27.132,fisher_task,2020.1.3,Win32,60,-0.157552083,-0.380208333,1,0,0,1.684,scale,,,,,,0.326485712,0.264575131,0.21373507,0.173205081,stimuli/lakes/7090129_left.png,stimuli/lakes/7090129_right.png,,,,0,3,3,129,1,,,,,
,,,,,,,$3069151767,2020-07-13_09h44.27.132,fisher_task,2020.1.3,Win32,60,-0.135416667,-0.338541667,1,0,0,1.967,scale,,,,,,0.174513954,0.141421356,0.349027907,0.282842712,stimuli/lakes/206072_left.png,stimuli/lakes/206072_right.png,,,,0,4,4,72,1,,,,,
,,,,,,,$3069151767,2020-07-13_09h44.27.132,fisher_task,2020.1.3,Win32,60,-0.2578125,-0.446614583,1,0,0,2.016,scale,,,,,,0.21373507,0.173205081,0.326485712,0.264575131,stimuli/lakes/306073_left.png,stimuli/lakes/306073_right.png,,,,0,5,5,73,1,,,,,
,,,,,,,$3069151767,2020-07-13_09h44.27.132,fisher_task,2020.1.3,Win32,60,-0.001302083,-0.43359375,1,0,0,2.533,scale,,,,,,0.3702,0.3,0.1234,0.1,stimuli/lakes/904058_left.png,stimuli/lakes/904058_right.png,,,,0,6,6,58,1,,,,,
,,,,,,,$3069151767,2020-07-13_09h44.27.132,fisher_task,2020.1.3,Win32,60,0.1640625,-0.397135417,1,0,0,1.398,scale,,,,,,0.2468,0.2,0.302267034,0.244948974,stimuli/lakes/403026_left.png,stimuli/lakes/403026_right.png,,,,0,7,7,26,1,,,,,
,,,,,,,$3069151767,2020-07-13_09h44.27.132,fisher_task,2020.1.3,Win32,60,-0.147135417,-0.364583333,1,0,0,1.532,scale,,,,,,0.3702,0.3,0.1234,0.1,stimuli/lakes/906088_left.png,stimuli/lakes/906088_right.png,,,,0,8,8,88,1,,,,,
,,,,,,,$3069151767,2020-07-13_09h44.27.132,fisher_task,2020.1.3,Win32,60,0.16015625,-0.38671875,1,0,0,2.199,scale,,,,,,0.21373507,0.173205081,0.326485712,0.264575131,stimuli/lakes/305061_left.png,stimuli/lakes/305061_right.png,,,,0,9,9,61,1,,,,,
,,,,,,,$3069151767,2020-07-13_09h44.27.132,fisher_task,2020.1.3,Win32,60,-0.141927083,-0.365885417,1,0,0,1.499,scale,,,,,,0.326485712,0.264575131,0.21373507,0.173205081,stimuli/lakes/706077_left.png,stimuli/lakes/706077_right.png,,,,0,10,10,77,1,,,,,
,,,,,,,$3069151767,2020-07-13_09h44.27.132,fisher_task,2020.1.3,Win32,60,-0.140625,-0.385416667,1,0,0,1.283,scale,,,,,,0.1234,0.1,0.3702,0.3,stimuli/lakes/1080107_left.png,stimuli/lakes/1080107_right.png,,,,0,11,11,107,1,,,,,
,,,,,,,$3069151767,2020-07-13_09h44.27.132,fisher_task,2020.1.3,Win32,60,0.151041667,-0.36328125,1,0,0,1.267,scale,,,,,,0.2468,0.2,0.302267034,0.244948974,stimuli/lakes/403035_left.png,stimuli/lakes/403035_right.png,,,,0,12,12,35,1,,,,,
,,,,,,,$3069151767,2020-07-13_09h44.27.132,fisher_task,2020.1.3,Win32,60,0.151041667,-0.360677083,1,0,0,0.884,scale,,,,,,0.275930788,0.223606798,0.275930788,0.223606798,stimuli/lakes/50104_left.png,stimuli/lakes/50104_right.png,,,,0,13,13,4,1,,,,,
,,,,,,,$3069151767,2020-07-13_09h44.27.132,fisher_task,2020.1.3,Win32,60,0.165364583,-0.373697917,1,0,0,1.149,scale,,,,,,0.21373507,0.173205081,0.326485712,0.264575131,stimuli/lakes/303034_left.png,stimuli/lakes/303034_right.png,,,,0,14,14,34,1,,,,,
,,,,,,,$3069151767,2020-07-13_09h44.27.132,fisher_task,2020.1.3,Win32,60,-0.1484375,-0.346354167,1,0,0,1.066,scale,,,,,,0.21373507,0.173205081,0.326485712,0.264575131,stimuli/lakes/3070100_left.png,stimuli/lakes/3070100_right.png,,,,0,15,15,100,1,,,,,
,,,,,,,$3069151767,2020-07-13_09h44.27.132,fisher_task,2020.1.3,Win32,60,0.15234375,-0.389322917,1,0,0,1.5,scale,,,,,,0.2468,0.2,0.302267034,0.244948974,stimuli/lakes/404053_left.png,stimuli/lakes/404053_right.png,,,,0,16,16,53,1,,,,,
,,,,,,,$3069151767,2020-07-13_09h44.27.132,fisher_task,2020.1.3,Win32,60,-0.162760417,-0.36328125,1,0,0,1.034,scale,,,,,,0.21373507,0.173205081,0.326485712,0.264575131,stimuli/lakes/3090122_left.png,stimuli/lakes/3090122_right.png,,,,0,17,17,122,1,,,,,
,,,,,,,$3069151767,2020-07-13_09h44.27.132,fisher_task,2020.1.3,Win32,60,0.15234375,-0.397135417,1,0,0,1.182,scale,,,,,,0.275930788,0.223606798,0.275930788,0.223606798,stimuli/lakes/503027_left.png,stimuli/lakes/503027_right.png,,,,0,18,18,27,1,,,,,
,,,,,,,$3069151767,2020-07-13_09h44.27.132,fisher_task,2020.1.3,Win32,60,0.154947917,-0.397135417,1,0,0,1.334,scale,,,,,,0.2468,0.2,0.302267034,0.244948974,stimuli/lakes/404044_left.png,stimuli/lakes/404044_right.png,,,,0,19,19,44,1,,,,,
,,,,,,,$3069151767,2020-07-13_09h44.27.132,fisher_task,2020.1.3,Win32,60,-0.16015625,-0.359375,1,0,0,1.033,scale,,,,,,0.1234,0.1,0.3702,0.3,stimuli/lakes/1090119_left.png,stimuli/lakes/1090119_right.png,,,,0,20,20,119,1,,,,,
,,,,,,,$3069151767,2020-07-13_09h44.27.132,fisher_task,2020.1.3,Win32,60,0.140625,-0.369791667,1,0,0,1.17,scale,,,,,,0.349027907,0.282842712,0.174513954,0.141421356,stimuli/lakes/803030_left.png,stimuli/lakes/803030_right.png,,,,0,21,21,30,1,,,,,
,,,,,,,$3069151767,2020-07-13_09h44.27.132,fisher_task,2020.1.3,Win32,60,0.16015625,-0.372395833,1,0,0,1.582,scale,,,,,,0.326485712,0.264575131,0.21373507,0.173205081,stimuli/lakes/70108_left.png,stimuli/lakes/70108_right.png,,,space,0,22,22,8,1,11.792,,,,
,,,,,,,$3069151767,2020-07-13_09h44.27.132,fisher_task,2020.1.3,Win32,60,-0.153645833,-0.358072917,1,0,0,1.468,scale,,,,,,0.21373507,0.173205081,0.326485712,0.264575131,stimuli/lakes/3090121_left.png,stimuli/lakes/3090121_right.png,,,,0,23,23,121,1,,,,,
,,,,,,,$3069151767,2020-07-13_09h44.27.132,fisher_task,2020.1.3,Win32,60,0.16796875,-0.412760417,1,0,0,2.867,scale,,,,,,0.302267034,0.244948974,0.2468,0.2,stimuli/lakes/603028_left.png,stimuli/lakes/603028_right.png,,,,0,24,24,28,1,,,,,
,,,,,,,$3069151767,2020-07-13_09h44.27.132,fisher_task,2020.1.3,Win32,60,-0.00390625,-0.25390625,1,0,0,2.535,scale,,,,,,0.326485712,0.264575131,0.21373507,0.173205081,stimuli/lakes/705067_left.png,stimuli/lakes/705067_right.png,,,,0,25,25,67,1,,,,,
,,,,,,,$3069151767,2020-07-13_09h44.27.132,fisher_task,2020.1.3,Win32,60,0.01953125,-0.248697917,1,0,0,2.07,scale,,,,,,0.3702,0.3,0.1234,0.1,stimuli/lakes/905070_left.png,stimuli/lakes/905070_right.png,,,,0,26,26,70,1,,,,,
,,,,,,,$3069151767,2020-07-13_09h44.27.132,fisher_task,2020.1.3,Win32,60,-0.0078125,-0.2265625,1,0,0,1.199,scale,,,,,,0.275930788,0.223606798,0.275930788,0.223606798,stimuli/lakes/506084_left.png,stimuli/lakes/506084_right.png,,,,0,27,27,84,1,,,,,
,,,,,,,$3069151767,2020-07-13_09h44.27.132,fisher_task,2020.1.3,Win32,60,0.16015625,-0.32421875,1,0,0,1.167,scale,,,,,,0.174513954,0.141421356,0.349027907,0.282842712,stimuli/lakes/202011_left.png,stimuli/lakes/202011_right.png,,,,0,28,28,11,1,,,,,
,,,,,,,$3069151767,2020-07-13_09h44.27.132,fisher_task,2020.1.3,Win32,60,-0.131510417,-0.372395833,1,0,0,1.383,scale,,,,,,0.21373507,0.173205081,0.326485712,0.264575131,stimuli/lakes/306082_left.png,stimuli/lakes/306082_right.png,,,,0,29,29,82,1,,,,,
,,,,,,,$3069151767,2020-07-13_09h44.27.132,fisher_task,2020.1.3,Win32,60,0.16015625,-0.360677083,1,0,0,1.399,scale,,,,,,0.275930788,0.223606798,0.275930788,0.223606798,stimuli/lakes/503036_left.png,stimuli/lakes/503036_right.png,,,,0,30,30,36,1,,,,,
,,,,,,,$3069151767,2020-07-13_09h44.27.132,fisher_task,2020.1.3,Win32,60,-0.154947917,-0.338541667,1,0,0,1.9,scale,,,,,,0.21373507,0.173205081,0.326485712,0.264575131,stimuli/lakes/307091_left.png,stimuli/lakes/307091_right.png,,,,0,31,31,91,1,,,,,
,,,,,,,$3069151767,2020-07-13_09h44.27.132,fisher_task,2020.1.3,Win32,60,-0.15625,-0.33984375,1,0,0,0.935,scale,,,,,,0.349027907,0.282842712,0.174513954,0.141421356,stimuli/lakes/806078_left.png,stimuli/lakes/806078_right.png,,,,0,32,32,78,1,,,,,
,,,,,,,$3069151767,2020-07-13_09h44.27.132,fisher_task,2020.1.3,Win32,60,-0.145833333,-0.352864583,1,0,0,1.583,scale,,,,,,0.1234,0.1,0.3702,0.3,stimuli/lakes/106080_left.png,stimuli/lakes/106080_right.png,,,,0,33,33,80,1,,,,,
,,,,,,,$3069151767,2020-07-13_09h44.27.132,fisher_task,2020.1.3,Win32,60,-0.166666667,-0.3671875,1,0,0,0.969,scale,,,,,,0.21373507,0.173205081,0.326485712,0.264575131,stimuli/lakes/3080109_left.png,stimuli/lakes/3080109_right.png,,,,0,34,34,109,1,,,,,
,,,,,,,$3069151767,2020-07-13_09h44.27.132,fisher_task,2020.1.3,Win32,60,0.002604167,-0.236979167,1,0,0,1.85,scale,,,,,,0.2468,0.2,0.302267034,0.244948974,stimuli/lakes/405063_left.png,stimuli/lakes/405063_right.png,,,,0,35,35,63,1,,,,,
,,,,,,,$3069151767,2020-07-13_09h44.27.132,fisher_task,2020.1.3,Win32,60,0.15234375,-0.361979167,1,0,0,1.065,scale,,,,,,0.349027907,0.282842712,0.174513954,0.141421356,stimuli/lakes/80109_left.png,stimuli/lakes/80109_right.png,,,,0,36,36,9,1,,,,,
,,,,,,,$3069151767,2020-07-13_09h44.27.132,fisher_task,2020.1.3,Win32,60,0.161458333,-0.397135417,1,0,0,1.534,scale,,,,,,0.1234,0.1,0.3702,0.3,stimuli/lakes/104041_left.png,stimuli/lakes/104041_right.png,,,,0,37,37,41,1,,,,,
,,,,,,,$3069151767,2020-07-13_09h44.27.132,fisher_task,2020.1.3,Win32,60,0.161458333,-0.397135417,1,0,0,0.9,scale,,,,,,0.2468,0.2,0.302267034,0.244948974,stimuli/lakes/402015_left.png,stimuli/lakes/402015_right.png,,,,0,38,38,15,1,,,,,
,,,,,,,$3069151767,2020-07-13_09h44.27.132,fisher_task,2020.1.3,Win32,60,-0.161458333,-0.345052083,1,0,0,1.27,scale,,,,,,0.275930788,0.223606798,0.275930788,0.223606798,stimuli/lakes/507093_left.png,stimuli/lakes/507093_right.png,,,,0,39,39,93,1,,,,,
,,,,,,,$3069151767,2020-07-13_09h44.27.132,fisher_task,2020.1.3,Win32,60,0.154947917,-0.36328125,1,0,0,1.196,scale,,,,,,0.275930788,0.223606798,0.275930788,0.223606798,stimuli/lakes/502016_left.png,stimuli/lakes/502016_right.png,,,,0,40,40,16,1,,,,,
,,,,,,,$3069151767,2020-07-13_09h44.27.132,fisher_task,2020.1.3,Win32,60,0.154947917,-0.368489583,1,0,0,0.982,scale,,,,,,0.302267034,0.244948974,0.2468,0.2,stimuli/lakes/602018_left.png,stimuli/lakes/602018_right.png,,,,0,41,41,18,1,,,,,
,,,,,,,$3069151767,2020-07-13_09h44.27.132,fisher_task,2020.1.3,Win32,60,0.1484375,-0.37109375,1,0,0,0.864,scale,,,,,,0.21373507,0.173205081,0.326485712,0.264575131,stimuli/lakes/302012_left.png,stimuli/lakes/302012_right.png,,,,0,42,42,12,1,,,,,
,,,,,,,$3069151767,2020-07-13_09h44.27.132,fisher_task,2020.1.3,Win32,60,0.149739583,-0.393229167,1,0,0,1.497,scale,,,,,,0.275930788,0.223606798,0.275930788,0.223606798,stimuli/lakes/504045_left.png,stimuli/lakes/504045_right.png,,,,0,43,43,45,1,,,,,
,,,,,,,$3069151767,2020-07-13_09h44.27.132,fisher_task,2020.1.3,Win32,60,-0.149739583,-0.345052083,1,0,0,1.232,scale,,,,,,0.174513954,0.141421356,0.349027907,0.282842712,stimuli/lakes/207090_left.png,stimuli/lakes/207090_right.png,,,space,0,44,44,90,1,4.192,,,,
,,,,,,,$3069151767,2020-07-13_09h44.27.132,fisher_task,2020.1.3,Win32,60,0.178385417,-0.397135417,1,0,0,1.135,scale,,,,,,0.302267034,0.244948974,0.2468,0.2,stimuli/lakes/603037_left.png,stimuli/lakes/603037_right.png,,,,0,45,45,37,1,,,,,
,,,,,,,$3069151767,2020-07-13_09h44.27.132,fisher_task,2020.1.3,Win32,60,0.17578125,-0.388020833,1,0,0,1.001,scale,,,,,,0.1234,0.1,0.3702,0.3,stimuli/lakes/103023_left.png,stimuli/lakes/103023_right.png,,,,0,46,46,23,1,,,,,
,,,,,,,$3069151767,2020-07-13_09h44.27.132,fisher_task,2020.1.3,Win32,60,-0.13671875,-0.354166667,1,0,0,1.368,scale,,,,,,0.302267034,0.244948974,0.2468,0.2,stimuli/lakes/6070103_left.png,stimuli/lakes/6070103_right.png,,,,0,47,47,103,1,,,,,
,,,,,,,$3069151767,2020-07-13_09h44.27.132,fisher_task,2020.1.3,Win32,60,-0.1875,-0.373697917,1,0,0,2,scale,,,,,,0.1234,0.1,0.3702,0.3,stimuli/lakes/106071_left.png,stimuli/lakes/106071_right.png,,,,0,48,48,71,1,,,,,
,,,,,,,$3069151767,2020-07-13_09h44.27.132,fisher_task,2020.1.3,Win32,60,0.001302083,-0.24609375,1,0,0,1.983,scale,,,,,,0.21373507,0.173205081,0.326485712,0.264575131,stimuli/lakes/305062_left.png,stimuli/lakes/305062_right.png,,,,0,49,49,62,1,,,,,
,,,,,,,$3069151767,2020-07-13_09h44.27.132,fisher_task,2020.1.3,Win32,60,0.010416667,-0.236979167,1,0,0,2.081,scale,,,,,,0.349027907,0.282842712,0.174513954,0.141421356,stimuli/lakes/805069_left.png,stimuli/lakes/805069_right.png,,,,0,50,50,69,1,,,,,
,,,,,,,$3069151767,2020-07-13_09h44.27.132,fisher_task,2020.1.3,Win32,60,0.15625,-0.37109375,1,0,0,2.416,scale,,,,,,0.3702,0.3,0.1234,0.1,stimuli/lakes/904049_left.png,stimuli/lakes/904049_right.png,,,,0,51,51,49,1,,,,,
,,,,,,,$3069151767,2020-07-13_09h44.27.132,fisher_task,2020.1.3,Win32,60,0.16015625,-0.375,1,0,0,1.266,scale,,,,,,0.326485712,0.264575131,0.21373507,0.173205081,stimuli/lakes/702020_left.png,stimuli/lakes/702020_right.png,,,,0,52,52,20,1,,,,,
,,,,,,,$3069151767,2020-07-13_09h44.27.132,fisher_task,2020.1.3,Win32,60,0.154947917,-0.369791667,1,0,0,1.003,scale,,,,,,0.1234,0.1,0.3702,0.3,stimuli/lakes/103032_left.png,stimuli/lakes/103032_right.png,,,,0,53,53,32,1,,,,,
,,,,,,,$3069151767,2020-07-13_09h44.27.132,fisher_task,2020.1.3,Win32,60,0.154947917,-0.372395833,1,0,0,0.818,scale,,,,,,0.2468,0.2,0.302267034,0.244948974,stimuli/lakes/40102_left.png,stimuli/lakes/40102_right.png,,,,0,54,54,2,1,,,,,
,,,,,,,$3069151767,2020-07-13_09h44.27.132,fisher_task,2020.1.3,Win32,60,0.154947917,-0.372395833,1,0,0,0.983,scale,,,,,,0.326485712,0.264575131,0.21373507,0.173205081,stimuli/lakes/703038_left.png,stimuli/lakes/703038_right.png,,,,0,55,55,38,1,,,,,
,,,,,,,$3069151767,2020-07-13_09h44.27.132,fisher_task,2020.1.3,Win32,60,-0.00390625,-0.248697917,1,0,0,1.436,scale,,,,,,0.326485712,0.264575131,0.21373507,0.173205081,stimuli/lakes/705068_left.png,stimuli/lakes/705068_right.png,,,,0,56,56,68,1,,,,,
,,,,,,,$3069151767,2020-07-13_09h44.27.132,fisher_task,2020.1.3,Win32,60,-0.149739583,-0.342447917,1,0,0,1.185,scale,,,,,,0.326485712,0.264575131,0.21373507,0.173205081,stimuli/lakes/7080116_left.png,stimuli/lakes/7080116_right.png,,,,0,57,57,116,1,,,,,
,,,,,,,$3069151767,2020-07-13_09h44.27.132,fisher_task,2020.1.3,Win32,60,0.1328125,-0.364583333,1,0,0,1.8,scale,,,,,,0.349027907,0.282842712,0.174513954,0.141421356,stimuli/lakes/802021_left.png,stimuli/lakes/802021_right.png,,,,0,58,58,21,1,,,,,
,,,,,,,$3069151767,2020-07-13_09h44.27.132,fisher_task,2020.1.3,Win32,60,0.140625,-0.37109375,1,0,0,1.082,scale,,,,,,0.326485712,0.264575131,0.21373507,0.173205081,stimuli/lakes/70107_left.png,stimuli/lakes/70107_right.png,,,,0,59,59,7,1,,,,,
,,,,,,,$3069151767,2020-07-13_09h44.27.132,fisher_task,2020.1.3,Win32,60,-0.16015625,-0.348958333,1,0,0,1.183,scale,,,,,,0.1234,0.1,0.3702,0.3,stimuli/lakes/107098_left.png,stimuli/lakes/107098_right.png,,,,0,60,60,98,1,,,,,
,,,,,,,$3069151767,2020-07-13_09h44.27.132,fisher_task,2020.1.3,Win32,60,-0.145833333,-0.341145833,1,0,0,1.364,scale,,,,,,0.174513954,0.141421356,0.349027907,0.282842712,stimuli/lakes/2080108_left.png,stimuli/lakes/2080108_right.png,,,,0,61,61,108,1,,,,,
,,,,,,,$3069151767,2020-07-13_09h44.27.132,fisher_task,2020.1.3,Win32,60,0.1640625,-0.36328125,1,0,0,1.383,scale,,,,,,0.21373507,0.173205081,0.326485712,0.264575131,stimuli/lakes/304052_left.png,stimuli/lakes/304052_right.png,,,,0,62,62,52,1,,,,,
,,,,,,,$3069151767,2020-07-13_09h44.27.132,fisher_task,2020.1.3,Win32,60,-0.157552083,-0.365885417,1,0,0,1.551,scale,,,,,,0.275930788,0.223606798,0.275930788,0.223606798,stimuli/lakes/5080113_left.png,stimuli/lakes/5080113_right.png,,,,0,63,63,113,1,,,,,
,,,,,,,$3069151767,2020-07-13_09h44.27.132,fisher_task,2020.1.3,Win32,60,-0.162760417,-0.368489583,1,0,0,1.749,scale,,,,,,0.349027907,0.282842712,0.174513954,0.141421356,stimuli/lakes/8080118_left.png,stimuli/lakes/8080118_right.png,,,,0,64,64,118,1,,,,,
,,,,,,,$3069151767,2020-07-13_09h44.27.132,fisher_task,2020.1.3,Win32,60,-0.161458333,-0.368489583,1,0,0,1.083,scale,,,,,,0.302267034,0.244948974,0.2468,0.2,stimuli/lakes/606085_left.png,stimuli/lakes/606085_right.png,,,,0,65,65,85,1,,,,,
,,,,,,,$3069151767,2020-07-13_09h44.27.132,fisher_task,2020.1.3,Win32,60,-0.1328125,-0.34375,1,0,0,1.334,scale,,,,,,0.2468,0.2,0.302267034,0.244948974,stimuli/lakes/4090124_left.png,stimuli/lakes/4090124_right.png,,,space,0,66,66,124,1,5.642,,,,
,,,,,,,$3069151767,2020-07-13_09h44.27.132,fisher_task,2020.1.3,Win32,60,0.1640625,-0.38671875,1,0,0,1.201,scale,,,,,,0.349027907,0.282842712,0.174513954,0.141421356,stimuli/lakes/803039_left.png,stimuli/lakes/803039_right.png,,,,0,67,67,39,1,,,,,
,,,,,,,$3069151767,2020-07-13_09h44.27.132,fisher_task,2020.1.3,Win32,60,-0.1328125,-0.35546875,1,0,0,1.134,scale,,,,,,0.302267034,0.244948974,0.2468,0.2,stimuli/lakes/607094_left.png,stimuli/lakes/607094_right.png,,,,0,68,68,94,1,,,,,
,,,,,,,$3069151767,2020-07-13_09h44.27.132,fisher_task,2020.1.3,Win32,60,-0.1484375,-0.33984375,1,0,0,1.516,scale,,,,,,0.302267034,0.244948974,0.2468,0.2,stimuli/lakes/606076_left.png,stimuli/lakes/606076_right.png,,,,0,69,69,76,1,,,,,
,,,,,,,$3069151767,2020-07-13_09h44.27.132,fisher_task,2020.1.3,Win32,60,0.143229167,-0.34375,1,0,0,1.067,scale,,,,,,0.3702,0.3,0.1234,0.1,stimuli/lakes/901010_left.png,stimuli/lakes/901010_right.png,,,,0,70,70,10,1,,,,,
,,,,,,,$3069151767,2020-07-13_09h44.27.132,fisher_task,2020.1.3,Win32,60,0.149739583,-0.385416667,1,0,0,1.017,scale,,,,,,0.174513954,0.141421356,0.349027907,0.282842712,stimuli/lakes/203033_left.png,stimuli/lakes/203033_right.png,,,,0,71,71,33,1,,,,,
,,,,,,,$3069151767,2020-07-13_09h44.27.132,fisher_task,2020.1.3,Win32,60,-0.15625,-0.348958333,1,0,0,1.581,scale,,,,,,0.2468,0.2,0.302267034,0.244948974,stimuli/lakes/406083_left.png,stimuli/lakes/406083_right.png,,,,0,72,72,83,1,,,,,
,,,,,,,$3069151767,2020-07-13_09h44.27.132,fisher_task,2020.1.3,Win32,60,0.149739583,-0.377604167,1,0,0,0.949,scale,,,,,,0.21373507,0.173205081,0.326485712,0.264575131,stimuli/lakes/30100_left.png,stimuli/lakes/30100_right.png,,,,0,73,73,0,1,,,,,
,,,,,,,$3069151767,2020-07-13_09h44.27.132,fisher_task,2020.1.3,Win32,60,-0.135416667,-0.337239583,1,0,0,0.987,scale,,,,,,0.3702,0.3,0.1234,0.1,stimuli/lakes/907097_left.png,stimuli/lakes/907097_right.png,,,,0,74,74,97,1,,,,,
,,,,,,,$3069151767,2020-07-13_09h44.27.132,fisher_task,2020.1.3,Win32,60,-0.1484375,-0.348958333,1,0,0,1.163,scale,,,,,,0.302267034,0.244948974,0.2468,0.2,stimuli/lakes/6080115_left.png,stimuli/lakes/6080115_right.png,,,,0,75,75,115,1,,,,,
,,,,,,,$3069151767,2020-07-13_09h44.27.132,fisher_task,2020.1.3,Win32,60,0.161458333,-0.346354167,1,0,0,1.117,scale,,,,,,0.302267034,0.244948974,0.2468,0.2,stimuli/lakes/60106_left.png,stimuli/lakes/60106_right.png,,,,0,76,76,6,1,,,,,
,,,,,,,$3069151767,2020-07-13_09h44.27.132,fisher_task,2020.1.3,Win32,60,0.16015625,-0.34765625,1,0,0,0.717,scale,,,,,,0.21373507,0.173205081,0.326485712,0.264575131,stimuli/lakes/30101_left.png,stimuli/lakes/30101_right.png,,,,0,77,77,1,1,,,,,
,,,,,,,$3069151767,2020-07-13_09h44.27.132,fisher_task,2020.1.3,Win32,60,-0.139322917,-0.337239583,1,0,0,0.734,scale,,,,,,0.302267034,0.244948974,0.2468,0.2,stimuli/lakes/6090126_left.png,stimuli/lakes/6090126_right.png,,,,0,78,78,126,1,,,,,
,,,,,,,$3069151767,2020-07-13_09h44.27.132,fisher_task,2020.1.3,Win32,60,0.138020833,-0.345052083,1,0,0,0.864,scale,,,,,,0.3702,0.3,0.1234,0.1,stimuli/lakes/903031_left.png,stimuli/lakes/903031_right.png,,,,0,79,79,31,1,,,,,
,,,,,,,$3069151767,2020-07-13_09h44.27.132,fisher_task,2020.1.3,Win32,60,0.1953125,-0.365885417,1,0,0,1.149,scale,,,,,,0.1234,0.1,0.3702,0.3,stimuli/lakes/104050_left.png,stimuli/lakes/104050_right.png,,,,0,80,80,50,1,,,,,
,,,,,,,$3069151767,2020-07-13_09h44.27.132,fisher_task,2020.1.3,Win32,60,0.131510417,-0.360677083,1,0,0,1.098,scale,,,,,,0.302267034,0.244948974,0.2468,0.2,stimuli/lakes/60105_left.png,stimuli/lakes/60105_right.png,,,,0,81,81,5,1,,,,,
,,,,,,,$3069151767,2020-07-13_09h44.27.132,fisher_task,2020.1.3,Win32,60,0.01171875,-0.2421875,1,0,0,1.633,scale,,,,,,0.2468,0.2,0.302267034,0.244948974,stimuli/lakes/405064_left.png,stimuli/lakes/405064_right.png,,,,0,82,82,64,1,,,,,
,,,,,,,$3069151767,2020-07-13_09h44.27.132,fisher_task,2020.1.3,Win32,60,0.166666667,-0.37109375,1,0,0,2.099,scale,,,,,,0.302267034,0.244948974,0.2468,0.2,stimuli/lakes/604046_left.png,stimuli/lakes/604046_right.png,,,,0,83,83,46,1,,,,,
,,,,,,,$3069151767,2020-07-13_09h44.27.132,fisher_task,2020.1.3,Win32,60,-0.1328125,-0.3359375,1,0,0,1.799,scale,,,,,,0.3702,0.3,0.1234,0.1,stimuli/lakes/906079_left.png,stimuli/lakes/906079_right.png,,,,0,84,84,79,1,,,,,
,,,,,,,$3069151767,2020-07-13_09h44.27.132,fisher_task,2020.1.3,Win32,60,0.1640625,-0.3671875,1,0,0,0.917,scale,,,,,,0.21373507,0.173205081,0.326485712,0.264575131,stimuli/lakes/304043_left.png,stimuli/lakes/304043_right.png,,,,0,85,85,43,1,,,,,
,,,,,,,$3069151767,2020-07-13_09h44.27.132,fisher_task,2020.1.3,Win32,60,-0.114583333,-0.309895833,1,0,0,1.365,scale,,,,,,0.326485712,0.264575131,0.21373507,0.173205081,stimuli/lakes/707095_left.png,stimuli/lakes/707095_right.png,,,,0,86,86,95,1,,,,,
,,,,,,,$3069151767,2020-07-13_09h44.27.132,fisher_task,2020.1.3,Win32,60,-0.15234375,-0.329427083,1,0,0,1.001,scale,,,,,,0.2468,0.2,0.302267034,0.244948974,stimuli/lakes/4080112_left.png,stimuli/lakes/4080112_right.png,,,,0,87,87,112,1,,,,,
,,,,,,,$3069151767,2020-07-13_09h44.27.132,fisher_task,2020.1.3,Win32,60,-0.1484375,-0.381510417,1,0,0,1.216,scale,,,,,,0.326485712,0.264575131,0.21373507,0.173205081,stimuli/lakes/7070104_left.png,stimuli/lakes/7070104_right.png,,,space,0,88,88,104,1,114.548,,,,
,,,,,,,$3069151767,2020-07-13_09h44.27.132,fisher_task,2020.1.3,Win32,60,-0.15625,-0.37890625,1,0,0,0.968,scale,,,,,,0.2468,0.2,0.302267034,0.244948974,stimuli/lakes/4070101_left.png,stimuli/lakes/4070101_right.png,,,,0,89,89,101,1,,,,,
,,,,,,,$3069151767,2020-07-13_09h44.27.132,fisher_task,2020.1.3,Win32,60,-0.134114583,-0.348958333,1,0,0,1.318,scale,,,,,,0.275930788,0.223606798,0.275930788,0.223606798,stimuli/lakes/506075_left.png,stimuli/lakes/506075_right.png,,,,0,90,90,75,1,,,,,
,,,,,,,$3069151767,2020-07-13_09h44.27.132,fisher_task,2020.1.3,Win32,60,-0.151041667,-0.35546875,1,0,0,1.051,scale,,,,,,0.2468,0.2,0.302267034,0.244948974,stimuli/lakes/406074_left.png,stimuli/lakes/406074_right.png,,,,0,91,91,74,1,,,,,
,,,,,,,$3069151767,2020-07-13_09h44.27.132,fisher_task,2020.1.3,Win32,60,-0.02734375,-0.276041667,1,0,0,2.018,scale,,,,,,0.174513954,0.141421356,0.349027907,0.282842712,stimuli/lakes/205060_left.png,stimuli/lakes/205060_right.png,,,,0,92,92,60,1,,,,,
,,,,,,,$3069151767,2020-07-13_09h44.27.132,fisher_task,2020.1.3,Win32,60,-0.006510417,-0.225260417,1,0,0,1.366,scale,,,,,,0.1234,0.1,0.3702,0.3,stimuli/lakes/105059_left.png,stimuli/lakes/105059_right.png,,,,0,93,93,59,1,,,,,
,,,,,,,$3069151767,2020-07-13_09h44.27.132,fisher_task,2020.1.3,Win32,60,-0.139322917,-0.3515625,1,0,0,1.133,scale,,,,,,0.349027907,0.282842712,0.174513954,0.141421356,stimuli/lakes/806087_left.png,stimuli/lakes/806087_right.png,,,,0,94,94,87,1,,,,,
,,,,,,,$3069151767,2020-07-13_09h44.27.132,fisher_task,2020.1.3,Win32,60,0.12890625,-0.361979167,1,0,0,1.067,scale,,,,,,0.174513954,0.141421356,0.349027907,0.282842712,stimuli/lakes/204042_left.png,stimuli/lakes/204042_right.png,,,,0,95,95,42,1,,,,,
,,,,,,,$3069151767,2020-07-13_09h44.27.132,fisher_task,2020.1.3,Win32,60,0.151041667,-0.380208333,1,0,0,0.864,scale,,,,,,0.3702,0.3,0.1234,0.1,stimuli/lakes/902022_left.png,stimuli/lakes/902022_right.png,,,,0,96,96,22,1,,,,,
,,,,,,,$3069151767,2020-07-13_09h44.27.132,fisher_task,2020.1.3,Win32,60,0.151041667,-0.375,1,0,0,0.734,scale,,,,,,0.174513954,0.141421356,0.349027907,0.282842712,stimuli/lakes/203024_left.png,stimuli/lakes/203024_right.png,,,,0,97,97,24,1,,,,,
,,,,,,,$3069151767,2020-07-13_09h44.27.132,fisher_task,2020.1.3,Win32,60,-0.127604167,-0.337239583,1,0,0,1.25,scale,,,,,,0.302267034,0.244948974,0.2468,0.2,stimuli/lakes/605065_left.png,stimuli/lakes/605065_right.png,,,,0,98,98,65,1,,,,,
,,,,,,,$3069151767,2020-07-13_09h44.27.132,fisher_task,2020.1.3,Win32,60,-0.1328125,-0.334635417,1,0,0,1.267,scale,,,,,,0.349027907,0.282842712,0.174513954,0.141421356,stimuli/lakes/807096_left.png,stimuli/lakes/807096_right.png,,,,0,99,99,96,1,,,,,
,,,,,,,$3069151767,2020-07-13_09h44.27.132,fisher_task,2020.1.3,Win32,60,-0.16015625,-0.34375,1,0,0,1.182,scale,,,,,,0.174513954,0.141421356,0.349027907,0.282842712,stimuli/lakes/207099_left.png,stimuli/lakes/207099_right.png,,,,0,100,100,99,1,,,,,
,,,,,,,$3069151767,2020-07-13_09h44.27.132,fisher_task,2020.1.3,Win32,60,0.114583333,-0.361979167,1,0,0,1.199,scale,,,,,,0.174513954,0.141421356,0.349027907,0.282842712,stimuli/lakes/204051_left.png,stimuli/lakes/204051_right.png,,,,0,101,101,51,1,,,,,
,,,,,,,$3069151767,2020-07-13_09h44.27.132,fisher_task,2020.1.3,Win32,60,-0.122395833,-0.361979167,1,0,0,1.316,scale,,,,,,0.275930788,0.223606798,0.275930788,0.223606798,stimuli/lakes/5070102_left.png,stimuli/lakes/5070102_right.png,,,,0,102,102,102,1,,,,,
,,,,,,,$3069151767,2020-07-13_09h44.27.132,fisher_task,2020.1.3,Win32,60,-0.14453125,-0.34765625,1,0,0,1.116,scale,,,,,,0.326485712,0.264575131,0.21373507,0.173205081,stimuli/lakes/706086_left.png,stimuli/lakes/706086_right.png,,,,0,103,103,86,1,,,,,
,,,,,,,$3069151767,2020-07-13_09h44.27.132,fisher_task,2020.1.3,Win32,60,-0.16015625,-0.3984375,1,0,0,1.398,scale,,,,,,0.2468,0.2,0.302267034,0.244948974,stimuli/lakes/4090123_left.png,stimuli/lakes/4090123_right.png,,,,0,104,104,123,1,,,,,
,,,,,,,$3069151767,2020-07-13_09h44.27.132,fisher_task,2020.1.3,Win32,60,-0.162760417,-0.39453125,1,0,0,1.184,scale,,,,,,0.21373507,0.173205081,0.326485712,0.264575131,stimuli/lakes/3080110_left.png,stimuli/lakes/3080110_right.png,,,,0,105,105,110,1,,,,,
,,,,,,,$3069151767,2020-07-13_09h44.27.132,fisher_task,2020.1.3,Win32,60,-0.14453125,-0.341145833,1,0,0,1.165,scale,,,,,,0.302267034,0.244948974,0.2468,0.2,stimuli/lakes/6080114_left.png,stimuli/lakes/6080114_right.png,,,,0,106,106,114,1,,,,,
,,,,,,,$3069151767,2020-07-13_09h44.27.132,fisher_task,2020.1.3,Win32,60,0.161458333,-0.397135417,1,0,0,1.332,scale,,,,,,0.326485712,0.264575131,0.21373507,0.173205081,stimuli/lakes/704056_left.png,stimuli/lakes/704056_right.png,,,,0,107,107,56,1,,,,,
,,,,,,,$3069151767,2020-07-13_09h44.27.132,fisher_task,2020.1.3,Win32,60,0.16796875,-0.407552083,1,0,0,0.95,scale,,,,,,0.3702,0.3,0.1234,0.1,stimuli/lakes/903040_left.png,stimuli/lakes/903040_right.png,,,,0,108,108,40,1,,,,,
,,,,,,,$3069151767,2020-07-13_09h44.27.132,fisher_task,2020.1.3,Win32,60,-0.157552083,-0.401041667,1,0,0,1.284,scale,,,,,,0.1234,0.1,0.3702,0.3,stimuli/lakes/107089_left.png,stimuli/lakes/107089_right.png,,,,0,109,109,89,1,,,,,
,,,,,,,$3069151767,2020-07-13_09h44.27.132,fisher_task,2020.1.3,Win32,60,0.153645833,-0.36328125,1,0,0,1.499,scale,,,,,,0.349027907,0.282842712,0.174513954,0.141421356,stimuli/lakes/804048_left.png,stimuli/lakes/804048_right.png,,,space,0,110,110,48,1,157.688,,,,
,,,,,,,$3069151767,2020-07-13_09h44.27.132,fisher_task,2020.1.3,Win32,60,0.002604167,-0.236979167,1,0,0,2.498,scale,,,,,,0.302267034,0.244948974,0.2468,0.2,stimuli/lakes/605066_left.png,stimuli/lakes/605066_right.png,,,,0,111,111,66,1,,,,,
,,,,,,,$3069151767,2020-07-13_09h44.27.132,fisher_task,2020.1.3,Win32,60,-0.140625,-0.35546875,1,0,0,1.117,scale,,,,,,0.2468,0.2,0.302267034,0.244948974,stimuli/lakes/4080111_left.png,stimuli/lakes/4080111_right.png,,,,0,112,112,111,1,,,,,
,,,,,,,$3069151767,2020-07-13_09h44.27.132,fisher_task,2020.1.3,Win32,60,-0.16015625,-0.384114583,1,0,0,1.067,scale,,,,,,0.302267034,0.244948974,0.2468,0.2,stimuli/lakes/6090127_left.png,stimuli/lakes/6090127_right.png,,,,0,113,113,127,1,,,,,
,,,,,,,$3069151767,2020-07-13_09h44.27.132,fisher_task,2020.1.3,Win32,60,-0.154947917,-0.360677083,1,0,0,1.231,scale,,,,,,0.3702,0.3,0.1234,0.1,stimuli/lakes/9070106_left.png,stimuli/lakes/9070106_right.png,,,,0,114,114,106,1,,,,,
,,,,,,,$3069151767,2020-07-13_09h44.27.132,fisher_task,2020.1.3,Win32,60,-0.1484375,-0.37890625,1,0,0,1,scale,,,,,,0.2468,0.2,0.302267034,0.244948974,stimuli/lakes/407092_left.png,stimuli/lakes/407092_right.png,,,,0,115,115,92,1,,,,,
,,,,,,,$3069151767,2020-07-13_09h44.27.132,fisher_task,2020.1.3,Win32,60,0.118489583,-0.37890625,1,0,0,1.399,scale,,,,,,0.326485712,0.264575131,0.21373507,0.173205081,stimuli/lakes/704047_left.png,stimuli/lakes/704047_right.png,,,,0,116,116,47,1,,,,,
,,,,,,,$3069151767,2020-07-13_09h44.27.132,fisher_task,2020.1.3,Win32,60,0.154947917,-0.391927083,1,0,0,1.018,scale,,,,,,0.326485712,0.264575131,0.21373507,0.173205081,stimuli/lakes/703029_left.png,stimuli/lakes/703029_right.png,,,,0,117,117,29,1,,,,,
,,,,,,,$3069151767,2020-07-13_09h44.27.132,fisher_task,2020.1.3,Win32,60,-0.13671875,-0.369791667,1,0,0,1.15,scale,,,,,,0.349027907,0.282842712,0.174513954,0.141421356,stimuli/lakes/8070105_left.png,stimuli/lakes/8070105_right.png,,,,0,118,118,105,1,,,,,
,,,,,,,$3069151767,2020-07-13_09h44.27.132,fisher_task,2020.1.3,Win32,60,0.143229167,-0.37109375,1,0,0,1.05,scale,,,,,,0.349027907,0.282842712,0.174513954,0.141421356,stimuli/lakes/804057_left.png,stimuli/lakes/804057_right.png,,,,0,119,119,57,1,,,,,
,,,,,,,$3069151767,2020-07-13_09h44.27.132,fisher_task,2020.1.3,Win32,60,0.143229167,-0.37109375,1,0,0,0.767,scale,,,,,,0.302267034,0.244948974,0.2468,0.2,stimuli/lakes/602017_left.png,stimuli/lakes/602017_right.png,,,,0,120,120,17,1,,,,,
,,,,,,,$3069151767,2020-07-13_09h44.27.132,fisher_task,2020.1.3,Win32,60,-0.16015625,-0.346354167,1,0,0,1.55,scale,,,,,,0.326485712,0.264575131,0.21373507,0.173205081,stimuli/lakes/7090128_left.png,stimuli/lakes/7090128_right.png,,,,0,121,121,128,1,,,,,
,,,,,,,$3069151767,2020-07-13_09h44.27.132,fisher_task,2020.1.3,Win32,60,0.162760417,-0.346354167,1,0,0,0.917,scale,,,,,,0.2468,0.2,0.302267034,0.244948974,stimuli/lakes/40103_left.png,stimuli/lakes/40103_right.png,,,,0,122,122,3,1,,,,,
,,,,,,,$3069151767,2020-07-13_09h44.27.132,fisher_task,2020.1.3,Win32,60,-0.161458333,-0.325520833,1,0,0,1.582,scale,,,,,,0.174513954,0.141421356,0.349027907,0.282842712,stimuli/lakes/206081_left.png,stimuli/lakes/206081_right.png,,,,0,123,123,81,1,,,,,
,,,,,,,$3069151767,2020-07-13_09h44.27.132,fisher_task,2020.1.3,Win32,60,-0.158854167,-0.377604167,1,0,0,1.75,scale,,,,,,0.174513954,0.141421356,0.349027907,0.282842712,stimuli/lakes/2090120_left.png,stimuli/lakes/2090120_right.png,,,,0,124,124,120,1,,,,,
,,,,,,,$3069151767,2020-07-13_09h44.27.132,fisher_task,2020.1.3,Win32,60,0.18359375,-0.39453125,1,0,0,1.13,scale,,,,,,0.326485712,0.264575131,0.21373507,0.173205081,stimuli/lakes/702019_left.png,stimuli/lakes/702019_right.png,,,,0,125,125,19,1,,,,,
,,,,,,,$3069151767,2020-07-13_09h44.27.132,fisher_task,2020.1.3,Win32,60,0.166666667,-0.389322917,1,0,0,0.866,scale,,,,,,0.2468,0.2,0.302267034,0.244948974,stimuli/lakes/402014_left.png,stimuli/lakes/402014_right.png,,,,0,126,126,14,1,,,,,
,,,,,,,$3069151767,2020-07-13_09h44.27.132,fisher_task,2020.1.3,Win32,60,-0.15234375,-0.3671875,1,0,0,1.036,scale,,,,,,0.275930788,0.223606798,0.275930788,0.223606798,stimuli/lakes/5090125_left.png,stimuli/lakes/5090125_right.png,,,,0,127,127,125,1,,,,,
,,,,,,,$3069151767,2020-07-13_09h44.27.132,fisher_task,2020.1.3,Win32,60,-0.16796875,-0.37890625,1,0,0,0.934,scale,,,,,,0.326485712,0.264575131,0.21373507,0.173205081,stimuli/lakes/7080117_left.png,stimuli/lakes/7080117_right.png,,,,0,128,128,117,1,,,,,
,,,,,,,$3069151767,2020-07-13_09h44.27.132,fisher_task,2020.1.3,Win32,60,0.161458333,-0.40625,1,0,0,1.118,scale,,,,,,0.21373507,0.173205081,0.326485712,0.264575131,stimuli/lakes/302013_left.png,stimuli/lakes/302013_right.png,,,,0,129,129,13,1,,,,,
,,,,,,,$3069151767,2020-07-13_09h44.27.132,fisher_task,2020.1.3,Win32,60,,,,,,,,,,,,,,,,,,,,,,,,,,,,space,16.351,space,27.52
