keySpace.keys,instructions.thisRepN,instructions.thisTrialN,instructions.thisN,instructions.thisIndex,instructions.ran,participant,date,expName,psychopyVersion,OS,frameRate,mouse.x,mouse.y,mouse.leftButton,mouse.midButton,mouse.rightButton,mouse.time,mouse.clicked_name,training.thisRepN,training.thisTrialN,training.thisN,training.thisIndex,training.ran,widthBasketLeft,heightBasketLeft,widthBasketRight,heightBasketRight,leftLake,rightLake,space2.keys,space2.rt,space1.keys,trials.thisRepN,trials.thisTrialN,trials.thisN,trials.thisIndex,trials.ran,space1.rt,finalSpace1.keys,finalSpace1.rt,finalSpace2.keys,finalSpace2.rt
,0,0,0,0,1,$2435314127,2020-07-19_21h07.00.571,fisher_task,2020.1.3,Win32,60,,,,,,,,,,,,,,,,,,,,,,,,,,,,,,,
,,,,,,$2435314127,2020-07-19_21h07.00.571,fisher_task,2020.1.3,Win32,60,0.153703719,-0.379629643,1,0,0,10.529125,scale,0,0,0,0,1,0.275930788,0.223606798,0.275930788,0.223606798,stimuli/training/20_left.png,stimuli/training/20_right.png,,,,,,,,,,,,,
,,,,,,$2435314127,2020-07-19_21h07.00.571,fisher_task,2020.1.3,Win32,60,-0.142592581,-0.356481494,1,0,0,4.19772,scale,0,1,1,1,1,0.275930788,0.223606798,0.275930788,0.223606798,stimuli/training/80_left.png,stimuli/training/80_right.png,,,,,,,,,,,,,
,,,,,,$2435314127,2020-07-19_21h07.00.571,fisher_task,2020.1.3,Win32,60,0.159259275,-0.375000013,1,0,0,4.181755,scale,0,2,2,2,1,0.174513954,0.141421356,0.349027907,0.282842712,stimuli/training/50_left.png,stimuli/training/50_right.png,,,,,,,,,,,,,
,,,,,,$2435314127,2020-07-19_21h07.00.571,fisher_task,2020.1.3,Win32,60,-0.103703692,-0.282407419,1,0,0,6.547465,scale,0,3,3,3,1,0.349027907,0.282842712,0.174513954,0.141421356,stimuli/training/50_left.png,stimuli/training/50_right.png,,,,,,,,,,,,,
,,,,,,$2435314127,2020-07-19_21h07.00.571,fisher_task,2020.1.3,Win32,60,1.32455E-08,-0.250925937,1,0,0,3.548605,scale,0,4,4,4,1,0.275930788,0.223606798,0.275930788,0.223606798,stimuli/training/50_left.png,stimuli/training/50_right.png,,,,,,,,,,,,,
,,,,,,$2435314127,2020-07-19_21h07.00.571,fisher_task,2020.1.3,Win32,60,0.170370386,-0.39166668,1,0,0,2.915215,scale,0,5,5,5,1,0.174513954,0.141421356,0.349027907,0.282842712,stimuli/training/20_left.png,stimuli/training/20_right.png,,,,,,,,,,,,,
,,,,,,$2435314127,2020-07-19_21h07.00.571,fisher_task,2020.1.3,Win32,60,-0.1611111,-0.429629643,1,0,0,5.11484,scale,0,6,6,6,1,0.349027907,0.282842712,0.174513954,0.141421356,stimuli/training/80_left.png,stimuli/training/80_right.png,,,,,,,,,,,,,
,,,,,,$2435314127,2020-07-19_21h07.00.571,fisher_task,2020.1.3,Win32,60,0.159259275,-0.427777848,1,0,0,2.19878,scale,0,7,7,7,1,0.1234,0.1,0.3702,0.3,stimuli/training/30_left.png,stimuli/training/30_right.png,,,,,,,,,,,,,
,,,,,,$2435314127,2020-07-19_21h07.00.571,fisher_task,2020.1.3,Win32,60,-0.163888878,-0.405555569,1,0,0,5.01461,scale,0,8,8,8,1,0.3702,0.3,0.1234,0.1,stimuli/training/70_left.png,stimuli/training/70_right.png,,,,,,,,,,,,,
,,,,,,$2435314127,2020-07-19_21h07.00.571,fisher_task,2020.1.3,Win32,60,-0.145370359,-0.412037051,1,0,0,1.91549,scale,0,9,9,9,1,0.326485712,0.264575131,0.21373507,0.173205081,stimuli/training/90_left.png,stimuli/training/90_right.png,,,,,,,,,,,,,
,,,,,,$2435314127,2020-07-19_21h07.00.571,fisher_task,2020.1.3,Win32,60,0.150925941,-0.422222236,1,0,0,1.532415,scale,0,10,10,10,1,0.21373507,0.173205081,0.326485712,0.264575131,stimuli/training/10_left.png,stimuli/training/10_right.png,,,,,,,,,,,,,
,,,,,,$2435314127,2020-07-19_21h07.00.571,fisher_task,2020.1.3,Win32,60,0.154629645,-0.397222236,1,0,0,7.630125,scale,,,,,,0.174513954,0.141421356,0.349027907,0.282842712,stimuli/lakes/203033_left.png,stimuli/lakes/203033_right.png,space,10.335805,,0,0,0,33,1,,,,,
,,,,,,$2435314127,2020-07-19_21h07.00.571,fisher_task,2020.1.3,Win32,60,-0.156481471,-0.398148162,1,0,0,3.6315,scale,,,,,,0.326485712,0.264575131,0.21373507,0.173205081,stimuli/lakes/7070104_left.png,stimuli/lakes/7070104_right.png,,,,0,1,1,104,1,,,,,
,,,,,,$2435314127,2020-07-19_21h07.00.571,fisher_task,2020.1.3,Win32,60,-0.1611111,-0.411111125,1,0,0,7.98037,scale,,,,,,0.275930788,0.223606798,0.275930788,0.223606798,stimuli/lakes/5090125_left.png,stimuli/lakes/5090125_right.png,,,,0,2,2,125,1,,,,,
,,,,,,$2435314127,2020-07-19_21h07.00.571,fisher_task,2020.1.3,Win32,60,0.156481497,-0.402777791,1,0,0,1.765675,scale,,,,,,0.2468,0.2,0.302267034,0.244948974,stimuli/lakes/403026_left.png,stimuli/lakes/403026_right.png,,,,0,3,3,26,1,,,,,
,,,,,,$2435314127,2020-07-19_21h07.00.571,fisher_task,2020.1.3,Win32,60,-0.154629619,-0.397222236,1,0,0,5.14781,scale,,,,,,0.302267034,0.244948974,0.2468,0.2,stimuli/lakes/6070103_left.png,stimuli/lakes/6070103_right.png,,,,0,4,4,103,1,,,,,
,,,,,,$2435314127,2020-07-19_21h07.00.571,fisher_task,2020.1.3,Win32,60,0.133333349,-0.309259271,1,0,0,4.531275,scale,,,,,,0.174513954,0.141421356,0.349027907,0.282842712,stimuli/lakes/205060_left.png,stimuli/lakes/205060_right.png,,,,0,5,5,60,1,,,,,
,,,,,,$2435314127,2020-07-19_21h07.00.571,fisher_task,2020.1.3,Win32,60,-0.124999989,-0.315740753,1,0,0,12.212075,scale,,,,,,0.302267034,0.244948974,0.2468,0.2,stimuli/lakes/605066_left.png,stimuli/lakes/605066_right.png,,,,0,6,6,66,1,,,,,
,,,,,,$2435314127,2020-07-19_21h07.00.571,fisher_task,2020.1.3,Win32,60,0.142592608,-0.316666735,1,0,0,5.03122,scale,,,,,,0.302267034,0.244948974,0.2468,0.2,stimuli/lakes/60105_left.png,stimuli/lakes/60105_right.png,,,,0,7,7,5,1,,,,,
,,,,,,$2435314127,2020-07-19_21h07.00.571,fisher_task,2020.1.3,Win32,60,0.16944446,-0.35277779,1,0,0,6.64786,scale,,,,,,0.275930788,0.223606798,0.275930788,0.223606798,stimuli/lakes/503027_left.png,stimuli/lakes/503027_right.png,,,,0,8,8,27,1,,,,,
,,,,,,$2435314127,2020-07-19_21h07.00.571,fisher_task,2020.1.3,Win32,60,-0.159259248,-0.362963032,1,0,0,4.282095,scale,,,,,,0.349027907,0.282842712,0.174513954,0.141421356,stimuli/lakes/805069_left.png,stimuli/lakes/805069_right.png,,,,0,9,9,69,1,,,,,
,,,,,,$2435314127,2020-07-19_21h07.00.571,fisher_task,2020.1.3,Win32,60,0.030555569,-0.246296307,1,0,0,11.428815,scale,,,,,,0.174513954,0.141421356,0.349027907,0.282842712,stimuli/lakes/206072_left.png,stimuli/lakes/206072_right.png,,,,0,10,10,72,1,,,,,
,,,,,,$2435314127,2020-07-19_21h07.00.571,fisher_task,2020.1.3,Win32,60,0.127777793,-0.307407476,1,0,0,4.765435,scale,,,,,,0.2468,0.2,0.302267034,0.244948974,stimuli/lakes/405064_left.png,stimuli/lakes/405064_right.png,,,,0,11,11,64,1,,,,,
,,,,,,$2435314127,2020-07-19_21h07.00.571,fisher_task,2020.1.3,Win32,60,0.164814831,-0.409259329,1,0,0,3.531225,scale,,,,,,0.21373507,0.173205081,0.326485712,0.264575131,stimuli/lakes/302013_left.png,stimuli/lakes/302013_right.png,,,,0,12,12,13,1,,,,,
,,,,,,$2435314127,2020-07-19_21h07.00.571,fisher_task,2020.1.3,Win32,60,0.142592608,-0.328703716,1,0,0,8.21342,scale,,,,,,0.349027907,0.282842712,0.174513954,0.141421356,stimuli/lakes/80109_left.png,stimuli/lakes/80109_right.png,,,,0,13,13,9,1,,,,,
,,,,,,$2435314127,2020-07-19_21h07.00.571,fisher_task,2020.1.3,Win32,60,0.163888905,-0.371296309,1,0,0,4.56445,scale,,,,,,0.1234,0.1,0.3702,0.3,stimuli/lakes/105059_left.png,stimuli/lakes/105059_right.png,,,,0,14,14,59,1,,,,,
,,,,,,$2435314127,2020-07-19_21h07.00.571,fisher_task,2020.1.3,Win32,60,-0.153703693,-0.414814828,1,0,0,5.68166,scale,,,,,,0.326485712,0.264575131,0.21373507,0.173205081,stimuli/lakes/7080117_left.png,stimuli/lakes/7080117_right.png,,,,0,15,15,117,1,,,,,
,,,,,,$2435314127,2020-07-19_21h07.00.571,fisher_task,2020.1.3,Win32,60,0.13981483,-0.342592605,1,0,0,4.8472,scale,,,,,,0.2468,0.2,0.302267034,0.244948974,stimuli/lakes/405063_left.png,stimuli/lakes/405063_right.png,,,,0,16,16,63,1,,,,,
,,,,,,$2435314127,2020-07-19_21h07.00.571,fisher_task,2020.1.3,Win32,60,-0.001851839,-0.235185196,1,0,0,5.79761,scale,,,,,,0.349027907,0.282842712,0.174513954,0.141421356,stimuli/lakes/803030_left.png,stimuli/lakes/803030_right.png,,,,0,17,17,30,1,,,,,
,,,,,,$2435314127,2020-07-19_21h07.00.571,fisher_task,2020.1.3,Win32,60,0.004629643,-0.256481549,1,0,0,4.747565,scale,,,,,,0.302267034,0.244948974,0.2468,0.2,stimuli/lakes/604055_left.png,stimuli/lakes/604055_right.png,,,,0,18,18,55,1,,,,,
,,,,,,$2435314127,2020-07-19_21h07.00.571,fisher_task,2020.1.3,Win32,60,0.086111126,-0.265740809,1,0,0,8.31307,scale,,,,,,0.174513954,0.141421356,0.349027907,0.282842712,stimuli/lakes/204042_left.png,stimuli/lakes/204042_right.png,,,,0,19,19,42,1,,,,,
,,,,,,$2435314127,2020-07-19_21h07.00.571,fisher_task,2020.1.3,Win32,60,0.164814831,-0.415740754,1,0,0,3.531535,scale,,,,,,0.21373507,0.173205081,0.326485712,0.264575131,stimuli/lakes/302012_left.png,stimuli/lakes/302012_right.png,,,,0,20,20,12,1,,,,,
,,,,,,$2435314127,2020-07-19_21h07.00.571,fisher_task,2020.1.3,Win32,60,-0.026851839,-0.253703715,1,0,0,6.14721,scale,,,,,,0.302267034,0.244948974,0.2468,0.2,stimuli/lakes/602018_left.png,stimuli/lakes/602018_right.png,,,,0,21,21,18,1,,,,,
,,,,,,$2435314127,2020-07-19_21h07.00.571,fisher_task,2020.1.3,Win32,60,0.019444458,-0.23796303,1,0,0,8.146535,scale,,,,,,0.21373507,0.173205081,0.326485712,0.264575131,stimuli/lakes/3080110_left.png,stimuli/lakes/3080110_right.png,,,space,0,22,22,110,1,6.38263,,,,
,,,,,,$2435314127,2020-07-19_21h07.00.571,fisher_task,2020.1.3,Win32,60,0.01203705,-0.253703715,1,0,0,8.33061,scale,,,,,,0.174513954,0.141421356,0.349027907,0.282842712,stimuli/lakes/2080108_left.png,stimuli/lakes/2080108_right.png,,,,0,23,23,108,1,,,,,
,,,,,,$2435314127,2020-07-19_21h07.00.571,fisher_task,2020.1.3,Win32,60,-0.116666655,-0.310185197,1,0,0,8.863165,scale,,,,,,0.326485712,0.264575131,0.21373507,0.173205081,stimuli/lakes/704047_left.png,stimuli/lakes/704047_right.png,,,,0,24,24,47,1,,,,,
,,,,,,$2435314127,2020-07-19_21h07.00.571,fisher_task,2020.1.3,Win32,60,0.000925939,-0.24722229,1,0,0,9.09637,scale,,,,,,0.349027907,0.282842712,0.174513954,0.141421356,stimuli/lakes/802021_left.png,stimuli/lakes/802021_right.png,,,,0,25,25,21,1,,,,,
,,,,,,$2435314127,2020-07-19_21h07.00.571,fisher_task,2020.1.3,Win32,60,-0.099074062,-0.283333345,1,0,0,4.96444,scale,,,,,,0.302267034,0.244948974,0.2468,0.2,stimuli/lakes/606085_left.png,stimuli/lakes/606085_right.png,,,,0,26,26,85,1,,,,,
,,,,,,$2435314127,2020-07-19_21h07.00.571,fisher_task,2020.1.3,Win32,60,-0.171296286,-0.434259273,1,0,0,2.632495,scale,,,,,,0.302267034,0.244948974,0.2468,0.2,stimuli/lakes/6090126_left.png,stimuli/lakes/6090126_right.png,,,,0,27,27,126,1,,,,,
,,,,,,$2435314127,2020-07-19_21h07.00.571,fisher_task,2020.1.3,Win32,60,-0.005555542,-0.248148159,1,0,0,5.28037,scale,,,,,,0.21373507,0.173205081,0.326485712,0.264575131,stimuli/lakes/3090122_left.png,stimuli/lakes/3090122_right.png,,,,0,28,28,122,1,,,,,
,,,,,,$2435314127,2020-07-19_21h07.00.571,fisher_task,2020.1.3,Win32,60,0.165740756,-0.402777791,1,0,0,2.065675,scale,,,,,,0.21373507,0.173205081,0.326485712,0.264575131,stimuli/lakes/303025_left.png,stimuli/lakes/303025_right.png,,,,0,29,29,25,1,,,,,
,,,,,,$2435314127,2020-07-19_21h07.00.571,fisher_task,2020.1.3,Win32,60,0.115740756,-0.314814827,1,0,0,7.013495,scale,,,,,,0.275930788,0.223606798,0.275930788,0.223606798,stimuli/lakes/50104_left.png,stimuli/lakes/50104_right.png,,,,0,30,30,4,1,,,,,
,,,,,,$2435314127,2020-07-19_21h07.00.571,fisher_task,2020.1.3,Win32,60,-0.154629619,-0.4046297,1,0,0,12.19573,scale,,,,,,0.3702,0.3,0.1234,0.1,stimuli/lakes/903040_left.png,stimuli/lakes/903040_right.png,,,,0,31,31,40,1,,,,,
,,,,,,$2435314127,2020-07-19_21h07.00.571,fisher_task,2020.1.3,Win32,60,0.153703719,-0.39166668,1,0,0,3.96464,scale,,,,,,0.174513954,0.141421356,0.349027907,0.282842712,stimuli/lakes/207090_left.png,stimuli/lakes/207090_right.png,,,,0,32,32,90,1,,,,,
,,,,,,$2435314127,2020-07-19_21h07.00.571,fisher_task,2020.1.3,Win32,60,0.009259273,-0.255555567,1,0,0,2.68223,scale,,,,,,0.275930788,0.223606798,0.275930788,0.223606798,stimuli/lakes/506084_left.png,stimuli/lakes/506084_right.png,,,,0,33,33,84,1,,,,,
,,,,,,$2435314127,2020-07-19_21h07.00.571,fisher_task,2020.1.3,Win32,60,0.143518534,-0.364814828,1,0,0,7.89748,scale,,,,,,0.1234,0.1,0.3702,0.3,stimuli/lakes/107098_left.png,stimuli/lakes/107098_right.png,,,,0,34,34,98,1,,,,,
,,,,,,$2435314127,2020-07-19_21h07.00.571,fisher_task,2020.1.3,Win32,60,-0.14074073,-0.347222235,1,0,0,7.01356,scale,,,,,,0.302267034,0.244948974,0.2468,0.2,stimuli/lakes/603037_left.png,stimuli/lakes/603037_right.png,,,,0,35,35,37,1,,,,,
,,,,,,$2435314127,2020-07-19_21h07.00.571,fisher_task,2020.1.3,Win32,60,0.004629643,-0.260185197,1,0,0,2.482265,scale,,,,,,0.275930788,0.223606798,0.275930788,0.223606798,stimuli/lakes/504054_left.png,stimuli/lakes/504054_right.png,,,,0,36,36,54,1,,,,,
,,,,,,$2435314127,2020-07-19_21h07.00.571,fisher_task,2020.1.3,Win32,60,-0.156481471,-0.42129631,1,0,0,3.79848,scale,,,,,,0.326485712,0.264575131,0.21373507,0.173205081,stimuli/lakes/7090129_left.png,stimuli/lakes/7090129_right.png,,,,0,37,37,129,1,,,,,
,,,,,,$2435314127,2020-07-19_21h07.00.571,fisher_task,2020.1.3,Win32,60,0.123148163,-0.32777779,1,0,0,8.946705,scale,,,,,,0.2468,0.2,0.302267034,0.244948974,stimuli/lakes/404044_left.png,stimuli/lakes/404044_right.png,,,,0,38,38,44,1,,,,,
,,,,,,$2435314127,2020-07-19_21h07.00.571,fisher_task,2020.1.3,Win32,60,0.000925939,-0.25185192,1,0,0,2.46544,scale,,,,,,0.2468,0.2,0.302267034,0.244948974,stimuli/lakes/406083_left.png,stimuli/lakes/406083_right.png,,,,0,39,39,83,1,,,,,
,,,,,,$2435314127,2020-07-19_21h07.00.571,fisher_task,2020.1.3,Win32,60,-0.148148137,-0.372222292,1,0,0,5.24777,scale,,,,,,0.326485712,0.264575131,0.21373507,0.173205081,stimuli/lakes/707095_left.png,stimuli/lakes/707095_right.png,,,,0,40,40,95,1,,,,,
,,,,,,$2435314127,2020-07-19_21h07.00.571,fisher_task,2020.1.3,Win32,60,0.030555569,-0.260185197,1,0,0,9.296105,scale,,,,,,0.326485712,0.264575131,0.21373507,0.173205081,stimuli/lakes/70107_left.png,stimuli/lakes/70107_right.png,,,,0,41,41,7,1,,,,,
,,,,,,$2435314127,2020-07-19_21h07.00.571,fisher_task,2020.1.3,Win32,60,-0.095370302,-0.294444456,1,0,0,4.498635,scale,,,,,,0.302267034,0.244948974,0.2468,0.2,stimuli/lakes/606076_left.png,stimuli/lakes/606076_right.png,,,,0,42,42,76,1,,,,,
,,,,,,$2435314127,2020-07-19_21h07.00.571,fisher_task,2020.1.3,Win32,60,0.159259275,-0.427777848,1,0,0,2.932285,scale,,,,,,0.1234,0.1,0.3702,0.3,stimuli/lakes/103032_left.png,stimuli/lakes/103032_right.png,,,,0,43,43,32,1,,,,,
,,,,,,$2435314127,2020-07-19_21h07.00.571,fisher_task,2020.1.3,Win32,60,-0.163888878,-0.397222236,1,0,0,7.196905,scale,,,,,,0.302267034,0.244948974,0.2468,0.2,stimuli/lakes/6080114_left.png,stimuli/lakes/6080114_right.png,,,space,0,44,44,114,1,4.286775,,,,
,,,,,,$2435314127,2020-07-19_21h07.00.571,fisher_task,2020.1.3,Win32,60,0.008333347,-0.248148159,1,0,0,4.765075,scale,,,,,,0.302267034,0.244948974,0.2468,0.2,stimuli/lakes/603028_left.png,stimuli/lakes/603028_right.png,,,,0,45,45,28,1,,,,,
,,,,,,$2435314127,2020-07-19_21h07.00.571,fisher_task,2020.1.3,Win32,60,-0.155555488,-0.41666668,1,0,0,7.180165,scale,,,,,,0.326485712,0.264575131,0.21373507,0.173205081,stimuli/lakes/7080116_left.png,stimuli/lakes/7080116_right.png,,,,0,46,46,116,1,,,,,
,,,,,,$2435314127,2020-07-19_21h07.00.571,fisher_task,2020.1.3,Win32,60,0.049074088,-0.2638889,1,0,0,10.24688,scale,,,,,,0.1234,0.1,0.3702,0.3,stimuli/lakes/107089_left.png,stimuli/lakes/107089_right.png,,,,0,47,47,89,1,,,,,
,,,,,,$2435314127,2020-07-19_21h07.00.571,fisher_task,2020.1.3,Win32,60,-0.023148135,-0.266666678,1,0,0,5.3813,scale,,,,,,0.2468,0.2,0.302267034,0.244948974,stimuli/lakes/4090123_left.png,stimuli/lakes/4090123_right.png,,,,0,48,48,123,1,,,,,
,,,,,,$2435314127,2020-07-19_21h07.00.571,fisher_task,2020.1.3,Win32,60,0.042592606,-0.257407419,1,0,0,4.030925,scale,,,,,,0.275930788,0.223606798,0.275930788,0.223606798,stimuli/lakes/504045_left.png,stimuli/lakes/504045_right.png,,,,0,49,49,45,1,,,,,
,,,,,,$2435314127,2020-07-19_21h07.00.571,fisher_task,2020.1.3,Win32,60,1.32455E-08,-0.262962974,1,0,0,1.83202,scale,,,,,,0.275930788,0.223606798,0.275930788,0.223606798,stimuli/lakes/506075_left.png,stimuli/lakes/506075_right.png,,,,0,50,50,75,1,,,,,
,,,,,,$2435314127,2020-07-19_21h07.00.571,fisher_task,2020.1.3,Win32,60,-0.085185173,-0.286111123,1,0,0,4.16476,scale,,,,,,0.349027907,0.282842712,0.174513954,0.141421356,stimuli/lakes/806078_left.png,stimuli/lakes/806078_right.png,,,,0,51,51,78,1,,,,,
,,,,,,$2435314127,2020-07-19_21h07.00.571,fisher_task,2020.1.3,Win32,60,0.134259275,-0.353703773,1,0,0,9.21348,scale,,,,,,0.21373507,0.173205081,0.326485712,0.264575131,stimuli/lakes/303034_left.png,stimuli/lakes/303034_right.png,,,,0,52,52,34,1,,,,,
,,,,,,$2435314127,2020-07-19_21h07.00.571,fisher_task,2020.1.3,Win32,60,-0.074074062,-0.283333345,1,0,0,4.481545,scale,,,,,,0.2468,0.2,0.302267034,0.244948974,stimuli/lakes/4080111_left.png,stimuli/lakes/4080111_right.png,,,,0,53,53,111,1,,,,,
,,,,,,$2435314127,2020-07-19_21h07.00.571,fisher_task,2020.1.3,Win32,60,-0.124999989,-0.326851864,1,0,0,3.88165,scale,,,,,,0.3702,0.3,0.1234,0.1,stimuli/lakes/906079_left.png,stimuli/lakes/906079_right.png,,,,0,54,54,79,1,,,,,
,,,,,,$2435314127,2020-07-19_21h07.00.571,fisher_task,2020.1.3,Win32,60,0.037962977,-0.253703715,1,0,0,4.16488,scale,,,,,,0.326485712,0.264575131,0.21373507,0.173205081,stimuli/lakes/702020_left.png,stimuli/lakes/702020_right.png,,,,0,55,55,20,1,,,,,
,,,,,,$2435314127,2020-07-19_21h07.00.571,fisher_task,2020.1.3,Win32,60,0.035185199,-0.267592604,1,0,0,3.314365,scale,,,,,,0.302267034,0.244948974,0.2468,0.2,stimuli/lakes/60106_left.png,stimuli/lakes/60106_right.png,,,,0,56,56,6,1,,,,,
,,,,,,$2435314127,2020-07-19_21h07.00.571,fisher_task,2020.1.3,Win32,60,-0.024999987,-0.260185197,1,0,0,8.647135,scale,,,,,,0.3702,0.3,0.1234,0.1,stimuli/lakes/902022_left.png,stimuli/lakes/902022_right.png,,,,0,57,57,22,1,,,,,
,,,,,,$2435314127,2020-07-19_21h07.00.571,fisher_task,2020.1.3,Win32,60,0.130555571,-0.328703716,1,0,0,5.582075,scale,,,,,,0.174513954,0.141421356,0.349027907,0.282842712,stimuli/lakes/203024_left.png,stimuli/lakes/203024_right.png,,,,0,58,58,24,1,,,,,
,,,,,,$2435314127,2020-07-19_21h07.00.571,fisher_task,2020.1.3,Win32,60,-0.124999989,-0.334259272,1,0,0,7.546675,scale,,,,,,0.326485712,0.264575131,0.21373507,0.173205081,stimuli/lakes/706077_left.png,stimuli/lakes/706077_right.png,,,,0,59,59,77,1,,,,,
,,,,,,$2435314127,2020-07-19_21h07.00.571,fisher_task,2020.1.3,Win32,60,-0.041666654,-0.267592604,1,0,0,4.797935,scale,,,,,,0.174513954,0.141421356,0.349027907,0.282842712,stimuli/lakes/2090120_left.png,stimuli/lakes/2090120_right.png,,,,0,60,60,120,1,,,,,
,,,,,,$2435314127,2020-07-19_21h07.00.571,fisher_task,2020.1.3,Win32,60,0.05555557,-0.261111179,1,0,0,9.79558,scale,,,,,,0.3702,0.3,0.1234,0.1,stimuli/lakes/901010_left.png,stimuli/lakes/901010_right.png,,,,0,61,61,10,1,,,,,
,,,,,,$2435314127,2020-07-19_21h07.00.571,fisher_task,2020.1.3,Win32,60,0.001851922,-0.250000011,1,0,0,4.1983,scale,,,,,,0.21373507,0.173205081,0.326485712,0.264575131,stimuli/lakes/306082_left.png,stimuli/lakes/306082_right.png,,,,0,62,62,82,1,,,,,
,,,,,,$2435314127,2020-07-19_21h07.00.571,fisher_task,2020.1.3,Win32,60,0.068518533,-0.267592604,1,0,0,5.46502,scale,,,,,,0.2468,0.2,0.302267034,0.244948974,stimuli/lakes/402015_left.png,stimuli/lakes/402015_right.png,,,,0,63,63,15,1,,,,,
,,,,,,$2435314127,2020-07-19_21h07.00.571,fisher_task,2020.1.3,Win32,60,0.02592594,-0.256481549,1,0,0,3.09875,scale,,,,,,0.302267034,0.244948974,0.2468,0.2,stimuli/lakes/602017_left.png,stimuli/lakes/602017_right.png,,,,0,64,64,17,1,,,,,
,,,,,,$2435314127,2020-07-19_21h07.00.571,fisher_task,2020.1.3,Win32,60,-0.049074005,-0.272222234,1,0,0,5.19872,scale,,,,,,0.349027907,0.282842712,0.174513954,0.141421356,stimuli/lakes/803039_left.png,stimuli/lakes/803039_right.png,,,,0,65,65,39,1,,,,,
,,,,,,$2435314127,2020-07-19_21h07.00.571,fisher_task,2020.1.3,Win32,60,-0.102777766,-0.308333345,1,0,0,14.145085,scale,,,,,,0.302267034,0.244948974,0.2468,0.2,stimuli/lakes/6080115_left.png,stimuli/lakes/6080115_right.png,,,space,0,66,66,115,1,113.28828,,,,
,,,,,,$2435314127,2020-07-19_21h07.00.571,fisher_task,2020.1.3,Win32,60,0.084259274,-0.286111123,1,0,0,4.29886,scale,,,,,,0.2468,0.2,0.302267034,0.244948974,stimuli/lakes/403035_left.png,stimuli/lakes/403035_right.png,,,,0,67,67,35,1,,,,,
,,,,,,$2435314127,2020-07-19_21h07.00.571,fisher_task,2020.1.3,Win32,60,0.069444459,-0.270370438,1,0,0,4.114275,scale,,,,,,0.174513954,0.141421356,0.349027907,0.282842712,stimuli/lakes/207099_left.png,stimuli/lakes/207099_right.png,,,,0,68,68,99,1,,,,,
,,,,,,$2435314127,2020-07-19_21h07.00.571,fisher_task,2020.1.3,Win32,60,-0.104629561,-0.295370382,1,0,0,9.66282,scale,,,,,,0.326485712,0.264575131,0.21373507,0.173205081,stimuli/lakes/704056_left.png,stimuli/lakes/704056_right.png,,,,0,69,69,56,1,,,,,
,,,,,,$2435314127,2020-07-19_21h07.00.571,fisher_task,2020.1.3,Win32,60,-0.038888876,-0.252777789,1,0,0,4.8808,scale,,,,,,0.275930788,0.223606798,0.275930788,0.223606798,stimuli/lakes/507093_left.png,stimuli/lakes/507093_right.png,,,,0,70,70,93,1,,,,,
,,,,,,$2435314127,2020-07-19_21h07.00.571,fisher_task,2020.1.3,Win32,60,-0.049999987,-0.264814826,1,0,0,6.730315,scale,,,,,,0.349027907,0.282842712,0.174513954,0.141421356,stimuli/lakes/806087_left.png,stimuli/lakes/806087_right.png,,,,0,71,71,87,1,,,,,
,,,,,,$2435314127,2020-07-19_21h07.00.571,fisher_task,2020.1.3,Win32,60,-0.12777771,-0.319444457,1,0,0,5.381035,scale,,,,,,0.3702,0.3,0.1234,0.1,stimuli/lakes/904058_left.png,stimuli/lakes/904058_right.png,,,,0,72,72,58,1,,,,,
,,,,,,$2435314127,2020-07-19_21h07.00.571,fisher_task,2020.1.3,Win32,60,0.152777793,-0.362963032,1,0,0,2.498975,scale,,,,,,0.1234,0.1,0.3702,0.3,stimuli/lakes/104041_left.png,stimuli/lakes/104041_right.png,,,,0,73,73,41,1,,,,,
,,,,,,$2435314127,2020-07-19_21h07.00.571,fisher_task,2020.1.3,Win32,60,-0.158333322,-0.424074088,1,0,0,3.5159,scale,,,,,,0.3702,0.3,0.1234,0.1,stimuli/lakes/907097_left.png,stimuli/lakes/907097_right.png,,,,0,74,74,97,1,,,,,
,,,,,,$2435314127,2020-07-19_21h07.00.571,fisher_task,2020.1.3,Win32,60,0.140740756,-0.398148162,1,0,0,5.86441,scale,,,,,,0.21373507,0.173205081,0.326485712,0.264575131,stimuli/lakes/305062_left.png,stimuli/lakes/305062_right.png,,,,0,75,75,62,1,,,,,
,,,,,,$2435314127,2020-07-19_21h07.00.571,fisher_task,2020.1.3,Win32,60,-0.147222211,-0.415740754,1,0,0,2.964955,scale,,,,,,0.3702,0.3,0.1234,0.1,stimuli/lakes/906088_left.png,stimuli/lakes/906088_right.png,,,,0,76,76,88,1,,,,,
,,,,,,$2435314127,2020-07-19_21h07.00.571,fisher_task,2020.1.3,Win32,60,-0.143518507,-0.348148161,1,0,0,5.414105,scale,,,,,,0.326485712,0.264575131,0.21373507,0.173205081,stimuli/lakes/705067_left.png,stimuli/lakes/705067_right.png,,,,0,77,77,67,1,,,,,
,,,,,,$2435314127,2020-07-19_21h07.00.571,fisher_task,2020.1.3,Win32,60,-0.150925858,-0.397222236,1,0,0,2.33205,scale,,,,,,0.302267034,0.244948974,0.2468,0.2,stimuli/lakes/607094_left.png,stimuli/lakes/607094_right.png,,,,0,78,78,94,1,,,,,
,,,,,,$2435314127,2020-07-19_21h07.00.571,fisher_task,2020.1.3,Win32,60,-0.007407338,-0.24722229,1,0,0,7.280555,scale,,,,,,0.2468,0.2,0.302267034,0.244948974,stimuli/lakes/407092_left.png,stimuli/lakes/407092_right.png,,,,0,79,79,92,1,,,,,
,,,,,,$2435314127,2020-07-19_21h07.00.571,fisher_task,2020.1.3,Win32,60,-0.031481469,-0.25185192,1,0,0,6.66378,scale,,,,,,0.326485712,0.264575131,0.21373507,0.173205081,stimuli/lakes/703029_left.png,stimuli/lakes/703029_right.png,,,,0,80,80,29,1,,,,,
,,,,,,$2435314127,2020-07-19_21h07.00.571,fisher_task,2020.1.3,Win32,60,0.095370385,-0.284259327,1,0,0,4.78151,scale,,,,,,0.275930788,0.223606798,0.275930788,0.223606798,stimuli/lakes/503036_left.png,stimuli/lakes/503036_right.png,,,,0,81,81,36,1,,,,,
,,,,,,$2435314127,2020-07-19_21h07.00.571,fisher_task,2020.1.3,Win32,60,-0.081481413,-0.289814827,1,0,0,4.31488,scale,,,,,,0.21373507,0.173205081,0.326485712,0.264575131,stimuli/lakes/3090121_left.png,stimuli/lakes/3090121_right.png,,,,0,82,82,121,1,,,,,
,,,,,,$2435314127,2020-07-19_21h07.00.571,fisher_task,2020.1.3,Win32,60,0.039814829,-0.254629641,1,0,0,8.97993,scale,,,,,,0.3702,0.3,0.1234,0.1,stimuli/lakes/903031_left.png,stimuli/lakes/903031_right.png,,,,0,83,83,31,1,,,,,
,,,,,,$2435314127,2020-07-19_21h07.00.571,fisher_task,2020.1.3,Win32,60,-0.028703691,-0.272222234,1,0,0,3.981305,scale,,,,,,0.1234,0.1,0.3702,0.3,stimuli/lakes/1080107_left.png,stimuli/lakes/1080107_right.png,,,,0,84,84,107,1,,,,,
,,,,,,$2435314127,2020-07-19_21h07.00.571,fisher_task,2020.1.3,Win32,60,-0.044444375,-0.25185192,1,0,0,4.781455,scale,,,,,,0.326485712,0.264575131,0.21373507,0.173205081,stimuli/lakes/703038_left.png,stimuli/lakes/703038_right.png,,,,0,85,85,38,1,,,,,
,,,,,,$2435314127,2020-07-19_21h07.00.571,fisher_task,2020.1.3,Win32,60,0.156481497,-0.42129631,1,0,0,2.84821,scale,,,,,,0.174513954,0.141421356,0.349027907,0.282842712,stimuli/lakes/202011_left.png,stimuli/lakes/202011_right.png,,,,0,86,86,11,1,,,,,
,,,,,,$2435314127,2020-07-19_21h07.00.571,fisher_task,2020.1.3,Win32,60,-0.153703693,-0.374074087,1,0,0,3.581805,scale,,,,,,0.349027907,0.282842712,0.174513954,0.141421356,stimuli/lakes/807096_left.png,stimuli/lakes/807096_right.png,,,,0,87,87,96,1,,,,,
,,,,,,$2435314127,2020-07-19_21h07.00.571,fisher_task,2020.1.3,Win32,60,-0.089814803,-0.276851863,1,0,0,3.86467,scale,,,,,,0.326485712,0.264575131,0.21373507,0.173205081,stimuli/lakes/706086_left.png,stimuli/lakes/706086_right.png,,,space,0,88,88,86,1,36.75562,,,,
,,,,,,$2435314127,2020-07-19_21h07.00.571,fisher_task,2020.1.3,Win32,60,0.158333349,-0.414814828,1,0,0,2.03162,scale,,,,,,0.21373507,0.173205081,0.326485712,0.264575131,stimuli/lakes/30101_left.png,stimuli/lakes/30101_right.png,,,,0,89,89,1,1,,,,,
,,,,,,$2435314127,2020-07-19_21h07.00.571,fisher_task,2020.1.3,Win32,60,0.093518533,-0.291666678,1,0,0,2.781795,scale,,,,,,0.1234,0.1,0.3702,0.3,stimuli/lakes/106071_left.png,stimuli/lakes/106071_right.png,,,,0,90,90,71,1,,,,,
,,,,,,$2435314127,2020-07-19_21h07.00.571,fisher_task,2020.1.3,Win32,60,-0.117592581,-0.318518531,1,0,0,5.51454,scale,,,,,,0.349027907,0.282842712,0.174513954,0.141421356,stimuli/lakes/804048_left.png,stimuli/lakes/804048_right.png,,,,0,91,91,48,1,,,,,
,,,,,,$2435314127,2020-07-19_21h07.00.571,fisher_task,2020.1.3,Win32,60,0.14444446,-0.351851865,1,0,0,4.081765,scale,,,,,,0.1234,0.1,0.3702,0.3,stimuli/lakes/104050_left.png,stimuli/lakes/104050_right.png,,,,0,92,92,50,1,,,,,
,,,,,,$2435314127,2020-07-19_21h07.00.571,fisher_task,2020.1.3,Win32,60,0.098148163,-0.287962975,1,0,0,4.4318,scale,,,,,,0.2468,0.2,0.302267034,0.244948974,stimuli/lakes/404053_left.png,stimuli/lakes/404053_right.png,,,,0,93,93,53,1,,,,,
,,,,,,$2435314127,2020-07-19_21h07.00.571,fisher_task,2020.1.3,Win32,60,0.126851867,-0.312962975,1,0,0,5.68082,scale,,,,,,0.275930788,0.223606798,0.275930788,0.223606798,stimuli/lakes/502016_left.png,stimuli/lakes/502016_right.png,,,,0,94,94,16,1,,,,,
,,,,,,$2435314127,2020-07-19_21h07.00.571,fisher_task,2020.1.3,Win32,60,0.156481497,-0.389814828,1,0,0,5.39838,scale,,,,,,0.2468,0.2,0.302267034,0.244948974,stimuli/lakes/40103_left.png,stimuli/lakes/40103_right.png,,,,0,95,95,3,1,,,,,
,,,,,,$2435314127,2020-07-19_21h07.00.571,fisher_task,2020.1.3,Win32,60,-0.124074063,-0.316666735,1,0,0,5.180675,scale,,,,,,0.302267034,0.244948974,0.2468,0.2,stimuli/lakes/605065_left.png,stimuli/lakes/605065_right.png,,,,0,96,96,65,1,,,,,
,,,,,,$2435314127,2020-07-19_21h07.00.571,fisher_task,2020.1.3,Win32,60,-0.147222211,-0.420370384,1,0,0,1.948955,scale,,,,,,0.349027907,0.282842712,0.174513954,0.141421356,stimuli/lakes/8080118_left.png,stimuli/lakes/8080118_right.png,,,,0,97,97,118,1,,,,,
,,,,,,$2435314127,2020-07-19_21h07.00.571,fisher_task,2020.1.3,Win32,60,0.150925941,-0.383333346,1,0,0,4.265345,scale,,,,,,0.2468,0.2,0.302267034,0.244948974,stimuli/lakes/402014_left.png,stimuli/lakes/402014_right.png,,,,0,98,98,14,1,,,,,
,,,,,,$2435314127,2020-07-19_21h07.00.571,fisher_task,2020.1.3,Win32,60,-0.142592581,-0.364814828,1,0,0,3.981525,scale,,,,,,0.275930788,0.223606798,0.275930788,0.223606798,stimuli/lakes/5080113_left.png,stimuli/lakes/5080113_right.png,,,,0,99,99,113,1,,,,,
,,,,,,$2435314127,2020-07-19_21h07.00.571,fisher_task,2020.1.3,Win32,60,0.158333349,-0.424074088,1,0,0,5.564865,scale,,,,,,0.2468,0.2,0.302267034,0.244948974,stimuli/lakes/40102_left.png,stimuli/lakes/40102_right.png,,,,0,100,100,2,1,,,,,
,,,,,,$2435314127,2020-07-19_21h07.00.571,fisher_task,2020.1.3,Win32,60,0.158333349,-0.403703717,1,0,0,4.54823,scale,,,,,,0.1234,0.1,0.3702,0.3,stimuli/lakes/103023_left.png,stimuli/lakes/103023_right.png,,,,0,101,101,23,1,,,,,
,,,,,,$2435314127,2020-07-19_21h07.00.571,fisher_task,2020.1.3,Win32,60,0.041666681,-0.250925937,1,0,0,5.481415,scale,,,,,,0.21373507,0.173205081,0.326485712,0.264575131,stimuli/lakes/3070100_left.png,stimuli/lakes/3070100_right.png,,,,0,102,102,100,1,,,,,
,,,,,,$2435314127,2020-07-19_21h07.00.571,fisher_task,2020.1.3,Win32,60,-0.141666599,-0.367592662,1,0,0,2.616,scale,,,,,,0.349027907,0.282842712,0.174513954,0.141421356,stimuli/lakes/8070105_left.png,stimuli/lakes/8070105_right.png,,,,0,103,103,105,1,,,,,
,,,,,,$2435314127,2020-07-19_21h07.00.571,fisher_task,2020.1.3,Win32,60,-0.072222154,-0.269444456,1,0,0,6.314155,scale,,,,,,0.302267034,0.244948974,0.2468,0.2,stimuli/lakes/604046_left.png,stimuli/lakes/604046_right.png,,,,0,104,104,46,1,,,,,
,,,,,,$2435314127,2020-07-19_21h07.00.571,fisher_task,2020.1.3,Win32,60,0.112037052,-0.301851864,1,0,0,6.230805,scale,,,,,,0.21373507,0.173205081,0.326485712,0.264575131,stimuli/lakes/305061_left.png,stimuli/lakes/305061_right.png,,,,0,105,105,61,1,,,,,
,,,,,,$2435314127,2020-07-19_21h07.00.571,fisher_task,2020.1.3,Win32,60,0.032407421,-0.2638889,1,0,0,8.679905,scale,,,,,,0.2468,0.2,0.302267034,0.244948974,stimuli/lakes/406074_left.png,stimuli/lakes/406074_right.png,,,,0,106,106,74,1,,,,,
,,,,,,$2435314127,2020-07-19_21h07.00.571,fisher_task,2020.1.3,Win32,60,-0.029629617,-0.254629641,1,0,0,5.464635,scale,,,,,,0.2468,0.2,0.302267034,0.244948974,stimuli/lakes/4080112_left.png,stimuli/lakes/4080112_right.png,,,,0,107,107,112,1,,,,,
,,,,,,$2435314127,2020-07-19_21h07.00.571,fisher_task,2020.1.3,Win32,60,0.044444458,-0.250925937,1,0,0,5.86434,scale,,,,,,0.326485712,0.264575131,0.21373507,0.173205081,stimuli/lakes/702019_left.png,stimuli/lakes/702019_right.png,,,,0,108,108,19,1,,,,,
,,,,,,$2435314127,2020-07-19_21h07.00.571,fisher_task,2020.1.3,Win32,60,-0.104629561,-0.313888901,1,0,0,9.630015,scale,,,,,,0.275930788,0.223606798,0.275930788,0.223606798,stimuli/lakes/5070102_left.png,stimuli/lakes/5070102_right.png,,,,0,109,109,102,1,,,,,
,,,,,,$2435314127,2020-07-19_21h07.00.571,fisher_task,2020.1.3,Win32,60,0.131481497,-0.318518531,1,0,0,7.4804,scale,,,,,,0.21373507,0.173205081,0.326485712,0.264575131,stimuli/lakes/304043_left.png,stimuli/lakes/304043_right.png,,,space,0,110,110,43,1,1.725,,,,
,,,,,,$2435314127,2020-07-19_21h07.00.571,fisher_task,2020.1.3,Win32,60,-0.044444375,-0.274074086,1,0,0,5.86811,scale,,,,,,0.21373507,0.173205081,0.326485712,0.264575131,stimuli/lakes/3080109_left.png,stimuli/lakes/3080109_right.png,,,,0,111,111,109,1,,,,,
,,,,,,$2435314127,2020-07-19_21h07.00.571,fisher_task,2020.1.3,Win32,60,-0.099999932,-0.298148217,1,0,0,7.68094,scale,,,,,,0.349027907,0.282842712,0.174513954,0.141421356,stimuli/lakes/804057_left.png,stimuli/lakes/804057_right.png,,,,0,112,112,57,1,,,,,
,,,,,,$2435314127,2020-07-19_21h07.00.571,fisher_task,2020.1.3,Win32,60,-0.144444433,-0.423148218,1,0,0,1.682825,scale,,,,,,0.3702,0.3,0.1234,0.1,stimuli/lakes/9070106_left.png,stimuli/lakes/9070106_right.png,,,,0,113,113,106,1,,,,,
,,,,,,$2435314127,2020-07-19_21h07.00.571,fisher_task,2020.1.3,Win32,60,-0.145370359,-0.407407421,1,0,0,1.882285,scale,,,,,,0.302267034,0.244948974,0.2468,0.2,stimuli/lakes/6090127_left.png,stimuli/lakes/6090127_right.png,,,,0,114,114,127,1,,,,,
,,,,,,$2435314127,2020-07-19_21h07.00.571,fisher_task,2020.1.3,Win32,60,-0.16574073,-0.419444458,1,0,0,2.366175,scale,,,,,,0.326485712,0.264575131,0.21373507,0.173205081,stimuli/lakes/7090128_left.png,stimuli/lakes/7090128_right.png,,,,0,115,115,128,1,,,,,
,,,,,,$2435314127,2020-07-19_21h07.00.571,fisher_task,2020.1.3,Win32,60,0.134259275,-0.331481494,1,0,0,2.315925,scale,,,,,,0.21373507,0.173205081,0.326485712,0.264575131,stimuli/lakes/306073_left.png,stimuli/lakes/306073_right.png,,,,0,116,116,73,1,,,,,
,,,,,,$2435314127,2020-07-19_21h07.00.571,fisher_task,2020.1.3,Win32,60,0.069444459,-0.269444456,1,0,0,5.71417,scale,,,,,,0.21373507,0.173205081,0.326485712,0.264575131,stimuli/lakes/307091_left.png,stimuli/lakes/307091_right.png,,,,0,117,117,91,1,,,,,
,,,,,,$2435314127,2020-07-19_21h07.00.571,fisher_task,2020.1.3,Win32,60,-0.137036969,-0.343518531,1,0,0,1.965695,scale,,,,,,0.326485712,0.264575131,0.21373507,0.173205081,stimuli/lakes/705068_left.png,stimuli/lakes/705068_right.png,,,,0,118,118,68,1,,,,,
,,,,,,$2435314127,2020-07-19_21h07.00.571,fisher_task,2020.1.3,Win32,60,0.152777793,-0.418518589,1,0,0,3.16534,scale,,,,,,0.21373507,0.173205081,0.326485712,0.264575131,stimuli/lakes/30100_left.png,stimuli/lakes/30100_right.png,,,,0,119,119,0,1,,,,,
,,,,,,$2435314127,2020-07-19_21h07.00.571,fisher_task,2020.1.3,Win32,60,-0.154629619,-0.399074087,1,0,0,5.381775,scale,,,,,,0.3702,0.3,0.1234,0.1,stimuli/lakes/905070_left.png,stimuli/lakes/905070_right.png,,,,0,120,120,70,1,,,,,
,,,,,,$2435314127,2020-07-19_21h07.00.571,fisher_task,2020.1.3,Win32,60,-0.157407397,-0.388888902,1,0,0,11.62903,scale,,,,,,0.3702,0.3,0.1234,0.1,stimuli/lakes/904049_left.png,stimuli/lakes/904049_right.png,,,,0,121,121,49,1,,,,,
,,,,,,$2435314127,2020-07-19_21h07.00.571,fisher_task,2020.1.3,Win32,60,1.32455E-08,-0.250925937,1,0,0,10.446135,scale,,,,,,0.1234,0.1,0.3702,0.3,stimuli/lakes/1090119_left.png,stimuli/lakes/1090119_right.png,,,,0,122,122,119,1,,,,,
,,,,,,$2435314127,2020-07-19_21h07.00.571,fisher_task,2020.1.3,Win32,60,-0.025925857,-0.253703715,1,0,0,12.99567,scale,,,,,,0.326485712,0.264575131,0.21373507,0.173205081,stimuli/lakes/70108_left.png,stimuli/lakes/70108_right.png,,,,0,123,123,8,1,,,,,
,,,,,,$2435314127,2020-07-19_21h07.00.571,fisher_task,2020.1.3,Win32,60,0.140740756,-0.336111124,1,0,0,2.749165,scale,,,,,,0.21373507,0.173205081,0.326485712,0.264575131,stimuli/lakes/304052_left.png,stimuli/lakes/304052_right.png,,,,0,124,124,52,1,,,,,
,,,,,,$2435314127,2020-07-19_21h07.00.571,fisher_task,2020.1.3,Win32,60,0.125925941,-0.324074086,1,0,0,2.165885,scale,,,,,,0.1234,0.1,0.3702,0.3,stimuli/lakes/106080_left.png,stimuli/lakes/106080_right.png,,,,0,125,125,80,1,,,,,
,,,,,,$2435314127,2020-07-19_21h07.00.571,fisher_task,2020.1.3,Win32,60,0.077777792,-0.275925937,1,0,0,4.53109,scale,,,,,,0.2468,0.2,0.302267034,0.244948974,stimuli/lakes/4070101_left.png,stimuli/lakes/4070101_right.png,,,,0,126,126,101,1,,,,,
,,,,,,$2435314127,2020-07-19_21h07.00.571,fisher_task,2020.1.3,Win32,60,0.133333349,-0.336111124,1,0,0,2.565485,scale,,,,,,0.174513954,0.141421356,0.349027907,0.282842712,stimuli/lakes/204051_left.png,stimuli/lakes/204051_right.png,,,,0,127,127,51,1,,,,,
,,,,,,$2435314127,2020-07-19_21h07.00.571,fisher_task,2020.1.3,Win32,60,-0.04259258,-0.2638889,1,0,0,7.281165,scale,,,,,,0.2468,0.2,0.302267034,0.244948974,stimuli/lakes/4090124_left.png,stimuli/lakes/4090124_right.png,,,,0,128,128,124,1,,,,,
,,,,,,$2435314127,2020-07-19_21h07.00.571,fisher_task,2020.1.3,Win32,60,0.130555571,-0.319444457,1,0,0,3.53168,scale,,,,,,0.174513954,0.141421356,0.349027907,0.282842712,stimuli/lakes/206081_left.png,stimuli/lakes/206081_right.png,,,,0,129,129,81,1,,,,,
,,,,,,$2435314127,2020-07-19_21h07.00.571,fisher_task,2020.1.3,Win32,60,,,,,,,,,,,,,,,,,,,,,,,,,,,,space,22.723305,space,74.64671
