keySpace.keys,instructions.thisRepN,instructions.thisTrialN,instructions.thisN,instructions.thisIndex,instructions.ran,participant,date,expName,psychopyVersion,OS,frameRate,mouse.x,mouse.y,mouse.leftButton,mouse.midButton,mouse.rightButton,mouse.time,mouse.clicked_name,training.thisRepN,training.thisTrialN,training.thisN,training.thisIndex,training.ran,widthBasketLeft,heightBasketLeft,widthBasketRight,heightBasketRight,leftLake,rightLake,space2.keys,space2.rt,space1.keys,trials.thisRepN,trials.thisTrialN,trials.thisN,trials.thisIndex,trials.ran,space1.rt,finalSpace1.keys,finalSpace1.rt,finalSpace2.keys,finalSpace2.rt
,0,0,0,0,1,$4630453662,2020-07-19_23h24.30.657,fisher_task,2020.1.3,Win32,60,,,,,,,,,,,,,,,,,,,,,,,,,,,,,,,
,,,,,,$4630453662,2020-07-19_23h24.30.657,fisher_task,2020.1.3,Win32,60,0.155092593,-0.355324074,1,0,0,7.163,scale,0,0,0,0,1,0.275930788,0.223606798,0.275930788,0.223606798,stimuli/training/20_left.png,stimuli/training/20_right.png,,,,,,,,,,,,,
,,,,,,$4630453662,2020-07-19_23h24.30.657,fisher_task,2020.1.3,Win32,60,-0.149305556,-0.369212963,1,0,0,7.582,scale,0,1,1,1,1,0.275930788,0.223606798,0.275930788,0.223606798,stimuli/training/80_left.png,stimuli/training/80_right.png,,,,,,,,,,,,,
,,,,,,$4630453662,2020-07-19_23h24.30.657,fisher_task,2020.1.3,Win32,60,0.113425926,-0.289351852,1,0,0,8.931,scale,0,2,2,2,1,0.174513954,0.141421356,0.349027907,0.282842712,stimuli/training/50_left.png,stimuli/training/50_right.png,,,,,,,,,,,,,
,,,,,,$4630453662,2020-07-19_23h24.30.657,fisher_task,2020.1.3,Win32,60,-0.122685185,-0.30787037,1,0,0,4.367,scale,0,3,3,3,1,0.349027907,0.282842712,0.174513954,0.141421356,stimuli/training/50_left.png,stimuli/training/50_right.png,,,,,,,,,,,,,
,,,,,,$4630453662,2020-07-19_23h24.30.657,fisher_task,2020.1.3,Win32,60,0.018518519,-0.24537037,1,0,0,6.914,scale,0,4,4,4,1,0.275930788,0.223606798,0.275930788,0.223606798,stimuli/training/50_left.png,stimuli/training/50_right.png,,,,,,,,,,,,,
,,,,,,$4630453662,2020-07-19_23h24.30.657,fisher_task,2020.1.3,Win32,60,0.141203704,-0.381944444,1,0,0,12.366,scale,0,5,5,5,1,0.174513954,0.141421356,0.349027907,0.282842712,stimuli/training/20_left.png,stimuli/training/20_right.png,,,,,,,,,,,,,
,,,,,,$4630453662,2020-07-19_23h24.30.657,fisher_task,2020.1.3,Win32,60,-0.170138889,-0.387731481,1,0,0,6.033,scale,0,6,6,6,1,0.349027907,0.282842712,0.174513954,0.141421356,stimuli/training/80_left.png,stimuli/training/80_right.png,,,,,,,,,,,,,
,,,,,,$4630453662,2020-07-19_23h24.30.657,fisher_task,2020.1.3,Win32,60,0.131944444,-0.340277778,1,0,0,7.767,scale,0,7,7,7,1,0.1234,0.1,0.3702,0.3,stimuli/training/30_left.png,stimuli/training/30_right.png,,,,,,,,,,,,,
,,,,,,$4630453662,2020-07-19_23h24.30.657,fisher_task,2020.1.3,Win32,60,-0.158564815,-0.372685185,1,0,0,6.982,scale,0,8,8,8,1,0.3702,0.3,0.1234,0.1,stimuli/training/70_left.png,stimuli/training/70_right.png,,,,,,,,,,,,,
,,,,,,$4630453662,2020-07-19_23h24.30.657,fisher_task,2020.1.3,Win32,60,-0.162037037,-0.395833333,1,0,0,4.531,scale,0,9,9,9,1,0.326485712,0.264575131,0.21373507,0.173205081,stimuli/training/90_left.png,stimuli/training/90_right.png,,,,,,,,,,,,,
,,,,,,$4630453662,2020-07-19_23h24.30.657,fisher_task,2020.1.3,Win32,60,0.15162037,-0.392361111,1,0,0,9.434,scale,0,10,10,10,1,0.21373507,0.173205081,0.326485712,0.264575131,stimuli/training/10_left.png,stimuli/training/10_right.png,,,,,,,,,,,,,
,,,,,,$4630453662,2020-07-19_23h24.30.657,fisher_task,2020.1.3,Win32,60,0.141203704,-0.385416667,1,0,0,4.3,scale,,,,,,0.174513954,0.141421356,0.349027907,0.282842712,stimuli/lakes/202011_left.png,stimuli/lakes/202011_right.png,space,13.047,,0,0,0,11,1,,,,,
,,,,,,$4630453662,2020-07-19_23h24.30.657,fisher_task,2020.1.3,Win32,60,0.119212963,-0.326388889,1,0,0,7.6,scale,,,,,,0.174513954,0.141421356,0.349027907,0.282842712,stimuli/lakes/206081_left.png,stimuli/lakes/206081_right.png,,,,0,1,1,81,1,,,,,
,,,,,,$4630453662,2020-07-19_23h24.30.657,fisher_task,2020.1.3,Win32,60,0.111111111,-0.300925926,1,0,0,15.233,scale,,,,,,0.349027907,0.282842712,0.174513954,0.141421356,stimuli/lakes/80109_left.png,stimuli/lakes/80109_right.png,,,,0,2,2,9,1,,,,,
,,,,,,$4630453662,2020-07-19_23h24.30.657,fisher_task,2020.1.3,Win32,60,-0.076388889,-0.287037037,1,0,0,11.299,scale,,,,,,0.174513954,0.141421356,0.349027907,0.282842712,stimuli/lakes/207090_left.png,stimuli/lakes/207090_right.png,,,,0,3,3,90,1,,,,,
,,,,,,$4630453662,2020-07-19_23h24.30.657,fisher_task,2020.1.3,Win32,60,0.141203704,-0.332175926,1,0,0,6.334,scale,,,,,,0.326485712,0.264575131,0.21373507,0.173205081,stimuli/lakes/70108_left.png,stimuli/lakes/70108_right.png,,,,0,4,4,8,1,,,,,
,,,,,,$4630453662,2020-07-19_23h24.30.657,fisher_task,2020.1.3,Win32,60,-0.050925926,-0.261574074,1,0,0,10.301,scale,,,,,,0.275930788,0.223606798,0.275930788,0.223606798,stimuli/lakes/506084_left.png,stimuli/lakes/506084_right.png,,,,0,5,5,84,1,,,,,
,,,,,,$4630453662,2020-07-19_23h24.30.657,fisher_task,2020.1.3,Win32,60,-0.099537037,-0.295138889,1,0,0,7.782,scale,,,,,,0.275930788,0.223606798,0.275930788,0.223606798,stimuli/lakes/5070102_left.png,stimuli/lakes/5070102_right.png,,,,0,6,6,102,1,,,,,
,,,,,,$4630453662,2020-07-19_23h24.30.657,fisher_task,2020.1.3,Win32,60,-0.134259259,-0.331018519,1,0,0,3.499,scale,,,,,,0.275930788,0.223606798,0.275930788,0.223606798,stimuli/lakes/5080113_left.png,stimuli/lakes/5080113_right.png,,,,0,7,7,113,1,,,,,
,,,,,,$4630453662,2020-07-19_23h24.30.657,fisher_task,2020.1.3,Win32,60,0.113425926,-0.298611111,1,0,0,6.949,scale,,,,,,0.275930788,0.223606798,0.275930788,0.223606798,stimuli/lakes/503027_left.png,stimuli/lakes/503027_right.png,,,,0,8,8,27,1,,,,,
,,,,,,$4630453662,2020-07-19_23h24.30.657,fisher_task,2020.1.3,Win32,60,-0.059027778,-0.253472222,1,0,0,10.866,scale,,,,,,0.349027907,0.282842712,0.174513954,0.141421356,stimuli/lakes/803030_left.png,stimuli/lakes/803030_right.png,,,,0,9,9,30,1,,,,,
,,,,,,$4630453662,2020-07-19_23h24.30.657,fisher_task,2020.1.3,Win32,60,0.05787037,-0.25,1,0,0,13.815,scale,,,,,,0.174513954,0.141421356,0.349027907,0.282842712,stimuli/lakes/207099_left.png,stimuli/lakes/207099_right.png,,,,0,10,10,99,1,,,,,
,,,,,,$4630453662,2020-07-19_23h24.30.657,fisher_task,2020.1.3,Win32,60,0.077546296,-0.27662037,1,0,0,12.7,scale,,,,,,0.3702,0.3,0.1234,0.1,stimuli/lakes/901010_left.png,stimuli/lakes/901010_right.png,,,,0,11,11,10,1,,,,,
,,,,,,$4630453662,2020-07-19_23h24.30.657,fisher_task,2020.1.3,Win32,60,0.090277778,-0.282407407,1,0,0,7.016,scale,,,,,,0.2468,0.2,0.302267034,0.244948974,stimuli/lakes/405063_left.png,stimuli/lakes/405063_right.png,,,,0,12,12,63,1,,,,,
,,,,,,$4630453662,2020-07-19_23h24.30.657,fisher_task,2020.1.3,Win32,60,0.145833333,-0.377314815,1,0,0,3.816,scale,,,,,,0.21373507,0.173205081,0.326485712,0.264575131,stimuli/lakes/302013_left.png,stimuli/lakes/302013_right.png,,,,0,13,13,13,1,,,,,
,,,,,,$4630453662,2020-07-19_23h24.30.657,fisher_task,2020.1.3,Win32,60,-0.078703704,-0.273148148,1,0,0,5.417,scale,,,,,,0.326485712,0.264575131,0.21373507,0.173205081,stimuli/lakes/705068_left.png,stimuli/lakes/705068_right.png,,,,0,14,14,68,1,,,,,
,,,,,,$4630453662,2020-07-19_23h24.30.657,fisher_task,2020.1.3,Win32,60,0.122685185,-0.322916667,1,0,0,5.834,scale,,,,,,0.21373507,0.173205081,0.326485712,0.264575131,stimuli/lakes/302012_left.png,stimuli/lakes/302012_right.png,,,,0,15,15,12,1,,,,,
,,,,,,$4630453662,2020-07-19_23h24.30.657,fisher_task,2020.1.3,Win32,60,-0.104166667,-0.28587963,1,0,0,11.733,scale,,,,,,0.21373507,0.173205081,0.326485712,0.264575131,stimuli/lakes/3090122_left.png,stimuli/lakes/3090122_right.png,,,,0,16,16,122,1,,,,,
,,,,,,$4630453662,2020-07-19_23h24.30.657,fisher_task,2020.1.3,Win32,60,-0.149305556,-0.34375,1,0,0,4.13,scale,,,,,,0.349027907,0.282842712,0.174513954,0.141421356,stimuli/lakes/806087_left.png,stimuli/lakes/806087_right.png,,,,0,17,17,87,1,,,,,
,,,,,,$4630453662,2020-07-19_23h24.30.657,fisher_task,2020.1.3,Win32,60,0.141203704,-0.357638889,1,0,0,4.565,scale,,,,,,0.2468,0.2,0.302267034,0.244948974,stimuli/lakes/40103_left.png,stimuli/lakes/40103_right.png,,,,0,18,18,3,1,,,,,
,,,,,,$4630453662,2020-07-19_23h24.30.657,fisher_task,2020.1.3,Win32,60,-0.083333333,-0.275462963,1,0,0,6.198,scale,,,,,,0.2468,0.2,0.302267034,0.244948974,stimuli/lakes/407092_left.png,stimuli/lakes/407092_right.png,,,,0,19,19,92,1,,,,,
,,,,,,$4630453662,2020-07-19_23h24.30.657,fisher_task,2020.1.3,Win32,60,0.141203704,-0.373842593,1,0,0,9.614,scale,,,,,,0.1234,0.1,0.3702,0.3,stimuli/lakes/103032_left.png,stimuli/lakes/103032_right.png,,,,0,20,20,32,1,,,,,
,,,,,,$4630453662,2020-07-19_23h24.30.657,fisher_task,2020.1.3,Win32,60,-0.109953704,-0.293981481,1,0,0,4.348,scale,,,,,,0.326485712,0.264575131,0.21373507,0.173205081,stimuli/lakes/703038_left.png,stimuli/lakes/703038_right.png,,,,0,21,21,38,1,,,,,
,,,,,,$4630453662,2020-07-19_23h24.30.657,fisher_task,2020.1.3,Win32,60,0.077546296,-0.266203704,1,0,0,10.533,scale,,,,,,0.302267034,0.244948974,0.2468,0.2,stimuli/lakes/602017_left.png,stimuli/lakes/602017_right.png,,,space,0,22,22,17,1,12.106,,,,
,,,,,,$4630453662,2020-07-19_23h24.30.657,fisher_task,2020.1.3,Win32,60,-0.115740741,-0.295138889,1,0,0,4.6,scale,,,,,,0.2468,0.2,0.302267034,0.244948974,stimuli/lakes/4090123_left.png,stimuli/lakes/4090123_right.png,,,,0,23,23,123,1,,,,,
,,,,,,$4630453662,2020-07-19_23h24.30.657,fisher_task,2020.1.3,Win32,60,-0.16087963,-0.363425926,1,0,0,4.751,scale,,,,,,0.302267034,0.244948974,0.2468,0.2,stimuli/lakes/6080115_left.png,stimuli/lakes/6080115_right.png,,,,0,24,24,115,1,,,,,
,,,,,,$4630453662,2020-07-19_23h24.30.657,fisher_task,2020.1.3,Win32,60,-0.155092593,-0.381944444,1,0,0,6.295,scale,,,,,,0.349027907,0.282842712,0.174513954,0.141421356,stimuli/lakes/806078_left.png,stimuli/lakes/806078_right.png,,,,0,25,25,78,1,,,,,
,,,,,,$4630453662,2020-07-19_23h24.30.657,fisher_task,2020.1.3,Win32,60,-0.042824074,-0.261574074,1,0,0,10.097,scale,,,,,,0.174513954,0.141421356,0.349027907,0.282842712,stimuli/lakes/2090120_left.png,stimuli/lakes/2090120_right.png,,,,0,26,26,120,1,,,,,
,,,,,,$4630453662,2020-07-19_23h24.30.657,fisher_task,2020.1.3,Win32,60,-0.09837963,-0.277777778,1,0,0,7.4,scale,,,,,,0.21373507,0.173205081,0.326485712,0.264575131,stimuli/lakes/3090121_left.png,stimuli/lakes/3090121_right.png,,,,0,27,27,121,1,,,,,
,,,,,,$4630453662,2020-07-19_23h24.30.657,fisher_task,2020.1.3,Win32,60,-0.148148148,-0.346064815,1,0,0,5.098,scale,,,,,,0.326485712,0.264575131,0.21373507,0.173205081,stimuli/lakes/7070104_left.png,stimuli/lakes/7070104_right.png,,,,0,28,28,104,1,,,,,
,,,,,,$4630453662,2020-07-19_23h24.30.657,fisher_task,2020.1.3,Win32,60,-0.152777778,-0.375,1,0,0,4.099,scale,,,,,,0.349027907,0.282842712,0.174513954,0.141421356,stimuli/lakes/8080118_left.png,stimuli/lakes/8080118_right.png,,,,0,29,29,118,1,,,,,
,,,,,,$4630453662,2020-07-19_23h24.30.657,fisher_task,2020.1.3,Win32,60,-0.150462963,-0.371527778,1,0,0,4.967,scale,,,,,,0.302267034,0.244948974,0.2468,0.2,stimuli/lakes/6070103_left.png,stimuli/lakes/6070103_right.png,,,,0,30,30,103,1,,,,,
,,,,,,$4630453662,2020-07-19_23h24.30.657,fisher_task,2020.1.3,Win32,60,0.145833333,-0.387731481,1,0,0,5.433,scale,,,,,,0.21373507,0.173205081,0.326485712,0.264575131,stimuli/lakes/30101_left.png,stimuli/lakes/30101_right.png,,,,0,31,31,1,1,,,,,
,,,,,,$4630453662,2020-07-19_23h24.30.657,fisher_task,2020.1.3,Win32,60,-0.045138889,-0.244212963,1,0,0,6.249,scale,,,,,,0.302267034,0.244948974,0.2468,0.2,stimuli/lakes/605065_left.png,stimuli/lakes/605065_right.png,,,,0,32,32,65,1,,,,,
,,,,,,$4630453662,2020-07-19_23h24.30.657,fisher_task,2020.1.3,Win32,60,0.116898148,-0.305555556,1,0,0,5.735,scale,,,,,,0.174513954,0.141421356,0.349027907,0.282842712,stimuli/lakes/204051_left.png,stimuli/lakes/204051_right.png,,,,0,33,33,51,1,,,,,
,,,,,,$4630453662,2020-07-19_23h24.30.657,fisher_task,2020.1.3,Win32,60,-0.155092593,-0.378472222,1,0,0,3.866,scale,,,,,,0.326485712,0.264575131,0.21373507,0.173205081,stimuli/lakes/7090129_left.png,stimuli/lakes/7090129_right.png,,,,0,34,34,129,1,,,,,
,,,,,,$4630453662,2020-07-19_23h24.30.657,fisher_task,2020.1.3,Win32,60,0.123842593,-0.328703704,1,0,0,6.866,scale,,,,,,0.21373507,0.173205081,0.326485712,0.264575131,stimuli/lakes/304043_left.png,stimuli/lakes/304043_right.png,,,,0,35,35,43,1,,,,,
,,,,,,$4630453662,2020-07-19_23h24.30.657,fisher_task,2020.1.3,Win32,60,0.134259259,-0.365740741,1,0,0,3.249,scale,,,,,,0.2468,0.2,0.302267034,0.244948974,stimuli/lakes/403026_left.png,stimuli/lakes/403026_right.png,,,,0,36,36,26,1,,,,,
,,,,,,$4630453662,2020-07-19_23h24.30.657,fisher_task,2020.1.3,Win32,60,-0.077546296,-0.265046296,1,0,0,4.849,scale,,,,,,0.302267034,0.244948974,0.2468,0.2,stimuli/lakes/603028_left.png,stimuli/lakes/603028_right.png,,,,0,37,37,28,1,,,,,
,,,,,,$4630453662,2020-07-19_23h24.30.657,fisher_task,2020.1.3,Win32,60,0.136574074,-0.368055556,1,0,0,3.183,scale,,,,,,0.1234,0.1,0.3702,0.3,stimuli/lakes/104041_left.png,stimuli/lakes/104041_right.png,,,,0,38,38,41,1,,,,,
,,,,,,$4630453662,2020-07-19_23h24.30.657,fisher_task,2020.1.3,Win32,60,0.141203704,-0.380787037,1,0,0,2.899,scale,,,,,,0.1234,0.1,0.3702,0.3,stimuli/lakes/103023_left.png,stimuli/lakes/103023_right.png,,,,0,39,39,23,1,,,,,
,,,,,,$4630453662,2020-07-19_23h24.30.657,fisher_task,2020.1.3,Win32,60,0.125,-0.33912037,1,0,0,6.118,scale,,,,,,0.174513954,0.141421356,0.349027907,0.282842712,stimuli/lakes/204042_left.png,stimuli/lakes/204042_right.png,,,,0,40,40,42,1,,,,,
,,,,,,$4630453662,2020-07-19_23h24.30.657,fisher_task,2020.1.3,Win32,60,0.053240741,-0.258101852,1,0,0,6.334,scale,,,,,,0.2468,0.2,0.302267034,0.244948974,stimuli/lakes/406083_left.png,stimuli/lakes/406083_right.png,,,,0,41,41,83,1,,,,,
,,,,,,$4630453662,2020-07-19_23h24.30.657,fisher_task,2020.1.3,Win32,60,0.081018519,-0.277777778,1,0,0,4.449,scale,,,,,,0.2468,0.2,0.302267034,0.244948974,stimuli/lakes/404044_left.png,stimuli/lakes/404044_right.png,,,,0,42,42,44,1,,,,,
,,,,,,$4630453662,2020-07-19_23h24.30.657,fisher_task,2020.1.3,Win32,60,0.118055556,-0.3125,1,0,0,9.231,scale,,,,,,0.302267034,0.244948974,0.2468,0.2,stimuli/lakes/60106_left.png,stimuli/lakes/60106_right.png,,,,0,43,43,6,1,,,,,
,,,,,,$4630453662,2020-07-19_23h24.30.657,fisher_task,2020.1.3,Win32,60,-0.149305556,-0.341435185,1,0,0,3.444,scale,,,,,,0.326485712,0.264575131,0.21373507,0.173205081,stimuli/lakes/7080116_left.png,stimuli/lakes/7080116_right.png,,,space,0,44,44,116,1,20.839,,,,
,,,,,,$4630453662,2020-07-19_23h24.30.657,fisher_task,2020.1.3,Win32,60,0.122685185,-0.322916667,1,0,0,5.01,scale,,,,,,0.21373507,0.173205081,0.326485712,0.264575131,stimuli/lakes/305062_left.png,stimuli/lakes/305062_right.png,,,,0,45,45,62,1,,,,,
,,,,,,$4630453662,2020-07-19_23h24.30.657,fisher_task,2020.1.3,Win32,60,-0.15625,-0.37037037,1,0,0,2.899,scale,,,,,,0.326485712,0.264575131,0.21373507,0.173205081,stimuli/lakes/7080117_left.png,stimuli/lakes/7080117_right.png,,,,0,46,46,117,1,,,,,
,,,,,,$4630453662,2020-07-19_23h24.30.657,fisher_task,2020.1.3,Win32,60,0.113425926,-0.329861111,1,0,0,3.865,scale,,,,,,0.21373507,0.173205081,0.326485712,0.264575131,stimuli/lakes/304052_left.png,stimuli/lakes/304052_right.png,,,,0,47,47,52,1,,,,,
,,,,,,$4630453662,2020-07-19_23h24.30.657,fisher_task,2020.1.3,Win32,60,-0.157407407,-0.380787037,1,0,0,3.7,scale,,,,,,0.3702,0.3,0.1234,0.1,stimuli/lakes/9070106_left.png,stimuli/lakes/9070106_right.png,,,,0,48,48,106,1,,,,,
,,,,,,$4630453662,2020-07-19_23h24.30.657,fisher_task,2020.1.3,Win32,60,-0.141203704,-0.34375,1,0,0,5.598,scale,,,,,,0.302267034,0.244948974,0.2468,0.2,stimuli/lakes/6080114_left.png,stimuli/lakes/6080114_right.png,,,,0,49,49,114,1,,,,,
,,,,,,$4630453662,2020-07-19_23h24.30.657,fisher_task,2020.1.3,Win32,60,-0.136574074,-0.327546296,1,0,0,7.864,scale,,,,,,0.326485712,0.264575131,0.21373507,0.173205081,stimuli/lakes/706086_left.png,stimuli/lakes/706086_right.png,,,,0,50,50,86,1,,,,,
,,,,,,$4630453662,2020-07-19_23h24.30.657,fisher_task,2020.1.3,Win32,60,0.085648148,-0.287037037,1,0,0,3.932,scale,,,,,,0.2468,0.2,0.302267034,0.244948974,stimuli/lakes/4070101_left.png,stimuli/lakes/4070101_right.png,,,,0,51,51,101,1,,,,,
,,,,,,$4630453662,2020-07-19_23h24.30.657,fisher_task,2020.1.3,Win32,60,-0.118055556,-0.292824074,1,0,0,13.166,scale,,,,,,0.3702,0.3,0.1234,0.1,stimuli/lakes/902022_left.png,stimuli/lakes/902022_right.png,,,,0,52,52,22,1,,,,,
,,,,,,$4630453662,2020-07-19_23h24.30.657,fisher_task,2020.1.3,Win32,60,-0.153935185,-0.354166667,1,0,0,4.216,scale,,,,,,0.302267034,0.244948974,0.2468,0.2,stimuli/lakes/606076_left.png,stimuli/lakes/606076_right.png,,,,0,53,53,76,1,,,,,
,,,,,,$4630453662,2020-07-19_23h24.30.657,fisher_task,2020.1.3,Win32,60,-0.127314815,-0.325231481,1,0,0,6.2,scale,,,,,,0.302267034,0.244948974,0.2468,0.2,stimuli/lakes/6090126_left.png,stimuli/lakes/6090126_right.png,,,,0,54,54,126,1,,,,,
,,,,,,$4630453662,2020-07-19_23h24.30.657,fisher_task,2020.1.3,Win32,60,0.125,-0.332175926,1,0,0,4.75,scale,,,,,,0.2468,0.2,0.302267034,0.244948974,stimuli/lakes/402014_left.png,stimuli/lakes/402014_right.png,,,,0,55,55,14,1,,,,,
,,,,,,$4630453662,2020-07-19_23h24.30.657,fisher_task,2020.1.3,Win32,60,0.101851852,-0.296296296,1,0,0,6.197,scale,,,,,,0.302267034,0.244948974,0.2468,0.2,stimuli/lakes/602018_left.png,stimuli/lakes/602018_right.png,,,,0,56,56,18,1,,,,,
,,,,,,$4630453662,2020-07-19_23h24.30.657,fisher_task,2020.1.3,Win32,60,0.081018519,-0.283564815,1,0,0,7.116,scale,,,,,,0.1234,0.1,0.3702,0.3,stimuli/lakes/106080_left.png,stimuli/lakes/106080_right.png,,,,0,57,57,80,1,,,,,
,,,,,,$4630453662,2020-07-19_23h24.30.657,fisher_task,2020.1.3,Win32,60,-0.113425926,-0.293981481,1,0,0,5.249,scale,,,,,,0.2468,0.2,0.302267034,0.244948974,stimuli/lakes/4080111_left.png,stimuli/lakes/4080111_right.png,,,,0,58,58,111,1,,,,,
,,,,,,$4630453662,2020-07-19_23h24.30.657,fisher_task,2020.1.3,Win32,60,0.03125,-0.258101852,1,0,0,6.166,scale,,,,,,0.1234,0.1,0.3702,0.3,stimuli/lakes/1080107_left.png,stimuli/lakes/1080107_right.png,,,,0,59,59,107,1,,,,,
,,,,,,$4630453662,2020-07-19_23h24.30.657,fisher_task,2020.1.3,Win32,60,-0.143518519,-0.327546296,1,0,0,3.683,scale,,,,,,0.326485712,0.264575131,0.21373507,0.173205081,stimuli/lakes/705067_left.png,stimuli/lakes/705067_right.png,,,,0,60,60,67,1,,,,,
,,,,,,$4630453662,2020-07-19_23h24.30.657,fisher_task,2020.1.3,Win32,60,-0.099537037,-0.287037037,1,0,0,5.548,scale,,,,,,0.302267034,0.244948974,0.2468,0.2,stimuli/lakes/603037_left.png,stimuli/lakes/603037_right.png,,,,0,61,61,37,1,,,,,
,,,,,,$4630453662,2020-07-19_23h24.30.657,fisher_task,2020.1.3,Win32,60,-0.06712963,-0.25462963,1,0,0,5.816,scale,,,,,,0.302267034,0.244948974,0.2468,0.2,stimuli/lakes/604055_left.png,stimuli/lakes/604055_right.png,,,,0,62,62,55,1,,,,,
,,,,,,$4630453662,2020-07-19_23h24.30.657,fisher_task,2020.1.3,Win32,60,-0.137731481,-0.314814815,1,0,0,6.149,scale,,,,,,0.349027907,0.282842712,0.174513954,0.141421356,stimuli/lakes/804057_left.png,stimuli/lakes/804057_right.png,,,,0,63,63,57,1,,,,,
,,,,,,$4630453662,2020-07-19_23h24.30.657,fisher_task,2020.1.3,Win32,60,0.076388889,-0.27662037,1,0,0,3.8,scale,,,,,,0.21373507,0.173205081,0.326485712,0.264575131,stimuli/lakes/307091_left.png,stimuli/lakes/307091_right.png,,,,0,64,64,91,1,,,,,
,,,,,,$4630453662,2020-07-19_23h24.30.657,fisher_task,2020.1.3,Win32,60,0.123842593,-0.321759259,1,0,0,5.733,scale,,,,,,0.2468,0.2,0.302267034,0.244948974,stimuli/lakes/405064_left.png,stimuli/lakes/405064_right.png,,,,0,65,65,64,1,,,,,
,,,,,,$4630453662,2020-07-19_23h24.30.657,fisher_task,2020.1.3,Win32,60,-0.12037037,-0.292824074,1,0,0,5.266,scale,,,,,,0.326485712,0.264575131,0.21373507,0.173205081,stimuli/lakes/704056_left.png,stimuli/lakes/704056_right.png,,,space,0,66,66,56,1,13.735,,,,
,,,,,,$4630453662,2020-07-19_23h24.30.657,fisher_task,2020.1.3,Win32,60,0.131944444,-0.337962963,1,0,0,4.481,scale,,,,,,0.21373507,0.173205081,0.326485712,0.264575131,stimuli/lakes/305061_left.png,stimuli/lakes/305061_right.png,,,,0,67,67,61,1,,,,,
,,,,,,$4630453662,2020-07-19_23h24.30.657,fisher_task,2020.1.3,Win32,60,-0.155092593,-0.361111111,1,0,0,3.866,scale,,,,,,0.3702,0.3,0.1234,0.1,stimuli/lakes/906079_left.png,stimuli/lakes/906079_right.png,,,,0,68,68,79,1,,,,,
,,,,,,$4630453662,2020-07-19_23h24.30.657,fisher_task,2020.1.3,Win32,60,-0.137731481,-0.335648148,1,0,0,3.664,scale,,,,,,0.349027907,0.282842712,0.174513954,0.141421356,stimuli/lakes/804048_left.png,stimuli/lakes/804048_right.png,,,,0,69,69,48,1,,,,,
,,,,,,$4630453662,2020-07-19_23h24.30.657,fisher_task,2020.1.3,Win32,60,-0.146990741,-0.344907407,1,0,0,5.883,scale,,,,,,0.3702,0.3,0.1234,0.1,stimuli/lakes/904058_left.png,stimuli/lakes/904058_right.png,,,,0,70,70,58,1,,,,,
,,,,,,$4630453662,2020-07-19_23h24.30.657,fisher_task,2020.1.3,Win32,60,-0.090277778,-0.267361111,1,0,0,6.3,scale,,,,,,0.21373507,0.173205081,0.326485712,0.264575131,stimuli/lakes/3080109_left.png,stimuli/lakes/3080109_right.png,,,,0,71,71,109,1,,,,,
,,,,,,$4630453662,2020-07-19_23h24.30.657,fisher_task,2020.1.3,Win32,60,0.061342593,-0.266203704,1,0,0,5.267,scale,,,,,,0.1234,0.1,0.3702,0.3,stimuli/lakes/107089_left.png,stimuli/lakes/107089_right.png,,,,0,72,72,89,1,,,,,
,,,,,,$4630453662,2020-07-19_23h24.30.657,fisher_task,2020.1.3,Win32,60,-0.141203704,-0.331018519,1,0,0,6.917,scale,,,,,,0.326485712,0.264575131,0.21373507,0.173205081,stimuli/lakes/706077_left.png,stimuli/lakes/706077_right.png,,,,0,73,73,77,1,,,,,
,,,,,,$4630453662,2020-07-19_23h24.30.657,fisher_task,2020.1.3,Win32,60,0.140046296,-0.385416667,1,0,0,4.5,scale,,,,,,0.1234,0.1,0.3702,0.3,stimuli/lakes/104050_left.png,stimuli/lakes/104050_right.png,,,,0,74,74,50,1,,,,,
,,,,,,$4630453662,2020-07-19_23h24.30.657,fisher_task,2020.1.3,Win32,60,-0.086805556,-0.277777778,1,0,0,8.048,scale,,,,,,0.326485712,0.264575131,0.21373507,0.173205081,stimuli/lakes/703029_left.png,stimuli/lakes/703029_right.png,,,,0,75,75,29,1,,,,,
,,,,,,$4630453662,2020-07-19_23h24.30.657,fisher_task,2020.1.3,Win32,60,-0.131944444,-0.310185185,1,0,0,3.983,scale,,,,,,0.3702,0.3,0.1234,0.1,stimuli/lakes/903031_left.png,stimuli/lakes/903031_right.png,,,,0,76,76,31,1,,,,,
,,,,,,$4630453662,2020-07-19_23h24.30.657,fisher_task,2020.1.3,Win32,60,-0.148148148,-0.33912037,1,0,0,5.434,scale,,,,,,0.349027907,0.282842712,0.174513954,0.141421356,stimuli/lakes/805069_left.png,stimuli/lakes/805069_right.png,,,,0,77,77,69,1,,,,,
,,,,,,$4630453662,2020-07-19_23h24.30.657,fisher_task,2020.1.3,Win32,60,-0.078703704,-0.261574074,1,0,0,11.248,scale,,,,,,0.174513954,0.141421356,0.349027907,0.282842712,stimuli/lakes/2080108_left.png,stimuli/lakes/2080108_right.png,,,,0,78,78,108,1,,,,,
,,,,,,$4630453662,2020-07-19_23h24.30.657,fisher_task,2020.1.3,Win32,60,-0.158564815,-0.359953704,1,0,0,4.449,scale,,,,,,0.349027907,0.282842712,0.174513954,0.141421356,stimuli/lakes/807096_left.png,stimuli/lakes/807096_right.png,,,,0,79,79,96,1,,,,,
,,,,,,$4630453662,2020-07-19_23h24.30.657,fisher_task,2020.1.3,Win32,60,0.128472222,-0.365740741,1,0,0,12.983,scale,,,,,,0.2468,0.2,0.302267034,0.244948974,stimuli/lakes/403035_left.png,stimuli/lakes/403035_right.png,,,,0,80,80,35,1,,,,,
,,,,,,$4630453662,2020-07-19_23h24.30.657,fisher_task,2020.1.3,Win32,60,0.0625,-0.271990741,1,0,0,9.451,scale,,,,,,0.275930788,0.223606798,0.275930788,0.223606798,stimuli/lakes/504045_left.png,stimuli/lakes/504045_right.png,,,,0,81,81,45,1,,,,,
,,,,,,$4630453662,2020-07-19_23h24.30.657,fisher_task,2020.1.3,Win32,60,-0.052083333,-0.253472222,1,0,0,5.599,scale,,,,,,0.275930788,0.223606798,0.275930788,0.223606798,stimuli/lakes/506075_left.png,stimuli/lakes/506075_right.png,,,,0,82,82,75,1,,,,,
,,,,,,$4630453662,2020-07-19_23h24.30.657,fisher_task,2020.1.3,Win32,60,0.12962963,-0.386574074,1,0,0,5.683,scale,,,,,,0.174513954,0.141421356,0.349027907,0.282842712,stimuli/lakes/203024_left.png,stimuli/lakes/203024_right.png,,,,0,83,83,24,1,,,,,
,,,,,,$4630453662,2020-07-19_23h24.30.657,fisher_task,2020.1.3,Win32,60,0.125,-0.365740741,1,0,0,4.266,scale,,,,,,0.174513954,0.141421356,0.349027907,0.282842712,stimuli/lakes/205060_left.png,stimuli/lakes/205060_right.png,,,,0,84,84,60,1,,,,,
,,,,,,$4630453662,2020-07-19_23h24.30.657,fisher_task,2020.1.3,Win32,60,-0.141203704,-0.394675926,1,0,0,2.715,scale,,,,,,0.3702,0.3,0.1234,0.1,stimuli/lakes/907097_left.png,stimuli/lakes/907097_right.png,,,,0,85,85,97,1,,,,,
,,,,,,$4630453662,2020-07-19_23h24.30.657,fisher_task,2020.1.3,Win32,60,-0.090277778,-0.288194444,1,0,0,4.75,scale,,,,,,0.2468,0.2,0.302267034,0.244948974,stimuli/lakes/4080112_left.png,stimuli/lakes/4080112_right.png,,,,0,86,86,112,1,,,,,
,,,,,,$4630453662,2020-07-19_23h24.30.657,fisher_task,2020.1.3,Win32,60,-0.136574074,-0.37037037,1,0,0,4.964,scale,,,,,,0.3702,0.3,0.1234,0.1,stimuli/lakes/906088_left.png,stimuli/lakes/906088_right.png,,,,0,87,87,88,1,,,,,
,,,,,,$4630453662,2020-07-19_23h24.30.657,fisher_task,2020.1.3,Win32,60,-0.039351852,-0.253472222,1,0,0,15.249,scale,,,,,,0.1234,0.1,0.3702,0.3,stimuli/lakes/107098_left.png,stimuli/lakes/107098_right.png,,,space,0,88,88,98,1,15.498,,,,
,,,,,,$4630453662,2020-07-19_23h24.30.657,fisher_task,2020.1.3,Win32,60,0.084490741,-0.284722222,1,0,0,10.067,scale,,,,,,0.326485712,0.264575131,0.21373507,0.173205081,stimuli/lakes/702020_left.png,stimuli/lakes/702020_right.png,,,,0,89,89,20,1,,,,,
,,,,,,$4630453662,2020-07-19_23h24.30.657,fisher_task,2020.1.3,Win32,60,-0.144675926,-0.375,1,0,0,9.296,scale,,,,,,0.326485712,0.264575131,0.21373507,0.173205081,stimuli/lakes/707095_left.png,stimuli/lakes/707095_right.png,,,,0,90,90,95,1,,,,,
,,,,,,$4630453662,2020-07-19_23h24.30.657,fisher_task,2020.1.3,Win32,60,-0.152777778,-0.390046296,1,0,0,3.749,scale,,,,,,0.3702,0.3,0.1234,0.1,stimuli/lakes/905070_left.png,stimuli/lakes/905070_right.png,,,,0,91,91,70,1,,,,,
,,,,,,$4630453662,2020-07-19_23h24.30.657,fisher_task,2020.1.3,Win32,60,-0.016203704,-0.247685185,1,0,0,4.35,scale,,,,,,0.2468,0.2,0.302267034,0.244948974,stimuli/lakes/406074_left.png,stimuli/lakes/406074_right.png,,,,0,92,92,74,1,,,,,
,,,,,,$4630453662,2020-07-19_23h24.30.657,fisher_task,2020.1.3,Win32,60,0.118055556,-0.331018519,1,0,0,7.616,scale,,,,,,0.302267034,0.244948974,0.2468,0.2,stimuli/lakes/60105_left.png,stimuli/lakes/60105_right.png,,,,0,93,93,5,1,,,,,
,,,,,,$4630453662,2020-07-19_23h24.30.657,fisher_task,2020.1.3,Win32,60,0.033564815,-0.247685185,1,0,0,9.35,scale,,,,,,0.302267034,0.244948974,0.2468,0.2,stimuli/lakes/604046_left.png,stimuli/lakes/604046_right.png,,,,0,94,94,46,1,,,,,
,,,,,,$4630453662,2020-07-19_23h24.30.657,fisher_task,2020.1.3,Win32,60,0.136574074,-0.363425926,1,0,0,4.017,scale,,,,,,0.21373507,0.173205081,0.326485712,0.264575131,stimuli/lakes/303025_left.png,stimuli/lakes/303025_right.png,,,,0,95,95,25,1,,,,,
,,,,,,$4630453662,2020-07-19_23h24.30.657,fisher_task,2020.1.3,Win32,60,-0.113425926,-0.293981481,1,0,0,3.416,scale,,,,,,0.3702,0.3,0.1234,0.1,stimuli/lakes/903040_left.png,stimuli/lakes/903040_right.png,,,,0,96,96,40,1,,,,,
,,,,,,$4630453662,2020-07-19_23h24.30.657,fisher_task,2020.1.3,Win32,60,-0.104166667,-0.282407407,1,0,0,5.067,scale,,,,,,0.2468,0.2,0.302267034,0.244948974,stimuli/lakes/4090124_left.png,stimuli/lakes/4090124_right.png,,,,0,97,97,124,1,,,,,
,,,,,,$4630453662,2020-07-19_23h24.30.657,fisher_task,2020.1.3,Win32,60,0.137731481,-0.386574074,1,0,0,6.283,scale,,,,,,0.275930788,0.223606798,0.275930788,0.223606798,stimuli/lakes/50104_left.png,stimuli/lakes/50104_right.png,,,,0,98,98,4,1,,,,,
,,,,,,$4630453662,2020-07-19_23h24.30.657,fisher_task,2020.1.3,Win32,60,-0.148148148,-0.381944444,1,0,0,4.615,scale,,,,,,0.275930788,0.223606798,0.275930788,0.223606798,stimuli/lakes/507093_left.png,stimuli/lakes/507093_right.png,,,,0,99,99,93,1,,,,,
,,,,,,$4630453662,2020-07-19_23h24.30.657,fisher_task,2020.1.3,Win32,60,-0.150462963,-0.393518519,1,0,0,4.016,scale,,,,,,0.302267034,0.244948974,0.2468,0.2,stimuli/lakes/607094_left.png,stimuli/lakes/607094_right.png,,,,0,100,100,94,1,,,,,
,,,,,,$4630453662,2020-07-19_23h24.30.657,fisher_task,2020.1.3,Win32,60,0.034722222,-0.259259259,1,0,0,4.882,scale,,,,,,0.1234,0.1,0.3702,0.3,stimuli/lakes/1090119_left.png,stimuli/lakes/1090119_right.png,,,,0,101,101,119,1,,,,,
,,,,,,$4630453662,2020-07-19_23h24.30.657,fisher_task,2020.1.3,Win32,60,0.136574074,-0.393518519,1,0,0,5.299,scale,,,,,,0.1234,0.1,0.3702,0.3,stimuli/lakes/105059_left.png,stimuli/lakes/105059_right.png,,,,0,102,102,59,1,,,,,
,,,,,,$4630453662,2020-07-19_23h24.30.657,fisher_task,2020.1.3,Win32,60,0.108796296,-0.322916667,1,0,0,5.18,scale,,,,,,0.2468,0.2,0.302267034,0.244948974,stimuli/lakes/404053_left.png,stimuli/lakes/404053_right.png,,,,0,103,103,53,1,,,,,
,,,,,,$4630453662,2020-07-19_23h24.30.657,fisher_task,2020.1.3,Win32,60,0.09375,-0.30787037,1,0,0,3.95,scale,,,,,,0.21373507,0.173205081,0.326485712,0.264575131,stimuli/lakes/306082_left.png,stimuli/lakes/306082_right.png,,,,0,104,104,82,1,,,,,
,,,,,,$4630453662,2020-07-19_23h24.30.657,fisher_task,2020.1.3,Win32,60,0.136574074,-0.383101852,1,0,0,4.133,scale,,,,,,0.1234,0.1,0.3702,0.3,stimuli/lakes/106071_left.png,stimuli/lakes/106071_right.png,,,,0,105,105,71,1,,,,,
,,,,,,$4630453662,2020-07-19_23h24.30.657,fisher_task,2020.1.3,Win32,60,0.101851852,-0.318287037,1,0,0,6.016,scale,,,,,,0.21373507,0.173205081,0.326485712,0.264575131,stimuli/lakes/3070100_left.png,stimuli/lakes/3070100_right.png,,,,0,106,106,100,1,,,,,
,,,,,,$4630453662,2020-07-19_23h24.30.657,fisher_task,2020.1.3,Win32,60,0.12962963,-0.344907407,1,0,0,7.549,scale,,,,,,0.275930788,0.223606798,0.275930788,0.223606798,stimuli/lakes/503036_left.png,stimuli/lakes/503036_right.png,,,,0,107,107,36,1,,,,,
,,,,,,$4630453662,2020-07-19_23h24.30.657,fisher_task,2020.1.3,Win32,60,-0.128472222,-0.313657407,1,0,0,3.632,scale,,,,,,0.326485712,0.264575131,0.21373507,0.173205081,stimuli/lakes/704047_left.png,stimuli/lakes/704047_right.png,,,,0,108,108,47,1,,,,,
,,,,,,$4630453662,2020-07-19_23h24.30.657,fisher_task,2020.1.3,Win32,60,0.136574074,-0.361111111,1,0,0,4.333,scale,,,,,,0.21373507,0.173205081,0.326485712,0.264575131,stimuli/lakes/303034_left.png,stimuli/lakes/303034_right.png,,,,0,109,109,34,1,,,,,
,,,,,,$4630453662,2020-07-19_23h24.30.657,fisher_task,2020.1.3,Win32,60,0.079861111,-0.283564815,1,0,0,7.733,scale,,,,,,0.326485712,0.264575131,0.21373507,0.173205081,stimuli/lakes/702019_left.png,stimuli/lakes/702019_right.png,,,space,0,110,110,19,1,8.191,,,,
,,,,,,$4630453662,2020-07-19_23h24.30.657,fisher_task,2020.1.3,Win32,60,0.136574074,-0.388888889,1,0,0,2.417,scale,,,,,,0.174513954,0.141421356,0.349027907,0.282842712,stimuli/lakes/203033_left.png,stimuli/lakes/203033_right.png,,,,0,111,111,33,1,,,,,
,,,,,,$4630453662,2020-07-19_23h24.30.657,fisher_task,2020.1.3,Win32,60,0.122685185,-0.349537037,1,0,0,4.667,scale,,,,,,0.2468,0.2,0.302267034,0.244948974,stimuli/lakes/402015_left.png,stimuli/lakes/402015_right.png,,,,0,112,112,15,1,,,,,
,,,,,,$4630453662,2020-07-19_23h24.30.657,fisher_task,2020.1.3,Win32,60,0.130787037,-0.358796296,1,0,0,5.965,scale,,,,,,0.2468,0.2,0.302267034,0.244948974,stimuli/lakes/40102_left.png,stimuli/lakes/40102_right.png,,,,0,113,113,2,1,,,,,
,,,,,,$4630453662,2020-07-19_23h24.30.657,fisher_task,2020.1.3,Win32,60,0.068287037,-0.269675926,1,0,0,7.899,scale,,,,,,0.275930788,0.223606798,0.275930788,0.223606798,stimuli/lakes/504054_left.png,stimuli/lakes/504054_right.png,,,,0,114,114,54,1,,,,,
,,,,,,$4630453662,2020-07-19_23h24.30.657,fisher_task,2020.1.3,Win32,60,0.112268519,-0.31712963,1,0,0,5.216,scale,,,,,,0.174513954,0.141421356,0.349027907,0.282842712,stimuli/lakes/206072_left.png,stimuli/lakes/206072_right.png,,,,0,115,115,72,1,,,,,
,,,,,,$4630453662,2020-07-19_23h24.30.657,fisher_task,2020.1.3,Win32,60,-0.148148148,-0.351851852,1,0,0,4.616,scale,,,,,,0.302267034,0.244948974,0.2468,0.2,stimuli/lakes/606085_left.png,stimuli/lakes/606085_right.png,,,,0,116,116,85,1,,,,,
,,,,,,$4630453662,2020-07-19_23h24.30.657,fisher_task,2020.1.3,Win32,60,-0.136574074,-0.363425926,1,0,0,4.566,scale,,,,,,0.3702,0.3,0.1234,0.1,stimuli/lakes/904049_left.png,stimuli/lakes/904049_right.png,,,,0,117,117,49,1,,,,,
,,,,,,$4630453662,2020-07-19_23h24.30.657,fisher_task,2020.1.3,Win32,60,-0.152777778,-0.37962963,1,0,0,3.633,scale,,,,,,0.349027907,0.282842712,0.174513954,0.141421356,stimuli/lakes/8070105_left.png,stimuli/lakes/8070105_right.png,,,,0,118,118,105,1,,,,,
,,,,,,$4630453662,2020-07-19_23h24.30.657,fisher_task,2020.1.3,Win32,60,-0.152777778,-0.388888889,1,0,0,3.501,scale,,,,,,0.326485712,0.264575131,0.21373507,0.173205081,stimuli/lakes/7090128_left.png,stimuli/lakes/7090128_right.png,,,,0,119,119,128,1,,,,,
,,,,,,$4630453662,2020-07-19_23h24.30.657,fisher_task,2020.1.3,Win32,60,-0.0625,-0.265046296,1,0,0,5.999,scale,,,,,,0.21373507,0.173205081,0.326485712,0.264575131,stimuli/lakes/3080110_left.png,stimuli/lakes/3080110_right.png,,,,0,120,120,110,1,,,,,
,,,,,,$4630453662,2020-07-19_23h24.30.657,fisher_task,2020.1.3,Win32,60,0.109953704,-0.305555556,1,0,0,7.015,scale,,,,,,0.21373507,0.173205081,0.326485712,0.264575131,stimuli/lakes/306073_left.png,stimuli/lakes/306073_right.png,,,,0,121,121,73,1,,,,,
,,,,,,$4630453662,2020-07-19_23h24.30.657,fisher_task,2020.1.3,Win32,60,0.138888889,-0.346064815,1,0,0,6.233,scale,,,,,,0.275930788,0.223606798,0.275930788,0.223606798,stimuli/lakes/502016_left.png,stimuli/lakes/502016_right.png,,,,0,122,122,16,1,,,,,
,,,,,,$4630453662,2020-07-19_23h24.30.657,fisher_task,2020.1.3,Win32,60,0.064814815,-0.256944444,1,0,0,11.699,scale,,,,,,0.349027907,0.282842712,0.174513954,0.141421356,stimuli/lakes/802021_left.png,stimuli/lakes/802021_right.png,,,,0,123,123,21,1,,,,,
,,,,,,$4630453662,2020-07-19_23h24.30.657,fisher_task,2020.1.3,Win32,60,-0.153935185,-0.385416667,1,0,0,5.966,scale,,,,,,0.302267034,0.244948974,0.2468,0.2,stimuli/lakes/6090127_left.png,stimuli/lakes/6090127_right.png,,,,0,124,124,127,1,,,,,
,,,,,,$4630453662,2020-07-19_23h24.30.657,fisher_task,2020.1.3,Win32,60,0.099537037,-0.295138889,1,0,0,3.746,scale,,,,,,0.326485712,0.264575131,0.21373507,0.173205081,stimuli/lakes/70107_left.png,stimuli/lakes/70107_right.png,,,,0,125,125,7,1,,,,,
,,,,,,$4630453662,2020-07-19_23h24.30.657,fisher_task,2020.1.3,Win32,60,-0.159722222,-0.40625,1,0,0,6.066,scale,,,,,,0.275930788,0.223606798,0.275930788,0.223606798,stimuli/lakes/5090125_left.png,stimuli/lakes/5090125_right.png,,,,0,126,126,125,1,,,,,
,,,,,,$4630453662,2020-07-19_23h24.30.657,fisher_task,2020.1.3,Win32,60,-0.142361111,-0.326388889,1,0,0,4.382,scale,,,,,,0.302267034,0.244948974,0.2468,0.2,stimuli/lakes/605066_left.png,stimuli/lakes/605066_right.png,,,,0,127,127,66,1,,,,,
,,,,,,$4630453662,2020-07-19_23h24.30.657,fisher_task,2020.1.3,Win32,60,-0.126157407,-0.309027778,1,0,0,4.043,scale,,,,,,0.349027907,0.282842712,0.174513954,0.141421356,stimuli/lakes/803039_left.png,stimuli/lakes/803039_right.png,,,,0,128,128,39,1,,,,,
,,,,,,$4630453662,2020-07-19_23h24.30.657,fisher_task,2020.1.3,Win32,60,0.144675926,-0.399305556,1,0,0,2.649,scale,,,,,,0.21373507,0.173205081,0.326485712,0.264575131,stimuli/lakes/30100_left.png,stimuli/lakes/30100_right.png,,,,0,129,129,0,1,,,,,
,,,,,,$4630453662,2020-07-19_23h24.30.657,fisher_task,2020.1.3,Win32,60,,,,,,,,,,,,,,,,,,,,,,,,,,,,space,12.814,space,74.626
