keySpace.keys,keySpace.rt,instructions.thisRepN,instructions.thisTrialN,instructions.thisN,instructions.thisIndex,instructions.ran,participant,date,expName,psychopyVersion,OS,frameRate,mouse.x,mouse.y,mouse.leftButton,mouse.midButton,mouse.rightButton,mouse.time,mouse.clicked_name,training.thisRepN,training.thisTrialN,training.thisN,training.thisIndex,training.ran,widthBasketLeft,heightBasketLeft,widthBasketRight,heightBasketRight,leftLake,rightLake,space2.keys,space2.rt,space1.keys,trials.thisRepN,trials.thisTrialN,trials.thisN,trials.thisIndex,trials.ran,space1.rt,finalSpace1.keys,finalSpace1.rt,finalSpace2.keys,finalSpace2.rt
space,2.35271,0,0,0,0,1,$5ea70b0537c5170b90ece8ac,2020-07-13_10h35.47.825,fisher_task,2020.1.3,Win32,60,,,,,,,,,,,,,,,,,,,,,,,,,,,,,,,
,,1,0,1,0,1,$5ea70b0537c5170b90ece8ac,2020-07-13_10h35.47.825,fisher_task,2020.1.3,Win32,60,,,,,,,,,,,,,,,,,,,,,,,,,,,,,,,
,,,,,,,$5ea70b0537c5170b90ece8ac,2020-07-13_10h35.47.825,fisher_task,2020.1.3,Win32,60,0.151851883,-0.38333336,1,0,0,2.03278,scale,0,0,0,0,1,0.275930788,0.223606798,0.275930788,0.223606798,stimuli/training/20_left.png,stimuli/training/20_right.png,,,,,,,,,,,,,
,,,,,,,$5ea70b0537c5170b90ece8ac,2020-07-13_10h35.47.825,fisher_task,2020.1.3,Win32,60,-0.154629608,-0.395370397,1,0,0,1.799915,scale,0,1,1,1,1,0.275930788,0.223606798,0.275930788,0.223606798,stimuli/training/80_left.png,stimuli/training/80_right.png,,,,,,,,,,,,,
,,,,,,,$5ea70b0537c5170b90ece8ac,2020-07-13_10h35.47.825,fisher_task,2020.1.3,Win32,60,0.114814845,-0.308333357,1,0,0,1.715945,scale,0,2,2,2,1,0.174513954,0.141421356,0.349027907,0.282842712,stimuli/training/50_left.png,stimuli/training/50_right.png,,,,,,,,,,,,,
,,,,,,,$5ea70b0537c5170b90ece8ac,2020-07-13_10h35.47.825,fisher_task,2020.1.3,Win32,60,-0.1472222,-0.352777803,1,0,0,1.36659,scale,0,3,3,3,1,0.349027907,0.282842712,0.174513954,0.141421356,stimuli/training/50_left.png,stimuli/training/50_right.png,,,,,,,,,,,,,
,,,,,,,$5ea70b0537c5170b90ece8ac,2020-07-13_10h35.47.825,fisher_task,2020.1.3,Win32,60,0.006481508,-0.26666669,1,0,0,2.29922,scale,0,4,4,4,1,0.275930788,0.223606798,0.275930788,0.223606798,stimuli/training/50_left.png,stimuli/training/50_right.png,,,,,,,,,,,,,
,,,,,,,$5ea70b0537c5170b90ece8ac,2020-07-13_10h35.47.825,fisher_task,2020.1.3,Win32,60,0.170370402,-0.415740825,1,0,0,1.333615,scale,0,5,5,5,1,0.174513954,0.141421356,0.349027907,0.282842712,stimuli/training/20_left.png,stimuli/training/20_right.png,,,,,,,,,,,,,
,,,,,,,$5ea70b0537c5170b90ece8ac,2020-07-13_10h35.47.825,fisher_task,2020.1.3,Win32,60,-0.162036959,-0.42129638,1,0,0,0.96711,scale,0,6,6,6,1,0.349027907,0.282842712,0.174513954,0.141421356,stimuli/training/80_left.png,stimuli/training/80_right.png,,,,,,,,,,,,,
,,,,,,,$5ea70b0537c5170b90ece8ac,2020-07-13_10h35.47.825,fisher_task,2020.1.3,Win32,60,0.171296328,-0.391666693,1,0,0,1.415535,scale,0,7,7,7,1,0.1234,0.1,0.3702,0.3,stimuli/training/30_left.png,stimuli/training/30_right.png,,,,,,,,,,,,,
,,,,,,,$5ea70b0537c5170b90ece8ac,2020-07-13_10h35.47.825,fisher_task,2020.1.3,Win32,60,-0.168518497,-0.429629714,1,0,0,1.1987,scale,0,8,8,8,1,0.3702,0.3,0.1234,0.1,stimuli/training/70_left.png,stimuli/training/70_right.png,,,,,,,,,,,,,
,,,,,,,$5ea70b0537c5170b90ece8ac,2020-07-13_10h35.47.825,fisher_task,2020.1.3,Win32,60,-0.171296275,-0.412037064,1,0,0,1.46296,scale,0,9,9,9,1,0.326485712,0.264575131,0.21373507,0.173205081,stimuli/training/90_left.png,stimuli/training/90_right.png,,,,,,,,,,,,,
,,,,,,,$5ea70b0537c5170b90ece8ac,2020-07-13_10h35.47.825,fisher_task,2020.1.3,Win32,60,0.174074106,-0.426851936,1,0,0,1.08268,scale,0,10,10,10,1,0.21373507,0.173205081,0.326485712,0.264575131,stimuli/training/10_left.png,stimuli/training/10_right.png,,,,,,,,,,,,,
,,,,,,,$5ea70b0537c5170b90ece8ac,2020-07-13_10h35.47.825,fisher_task,2020.1.3,Win32,60,0.071296325,-0.264814838,1,0,0,2.481615,scale,,,,,,0.326485712,0.264575131,0.21373507,0.173205081,stimuli/lakes/70107_left.png,stimuli/lakes/70107_right.png,space,2.65241,,0,0,0,7,1,,,,,
,,,,,,,$5ea70b0537c5170b90ece8ac,2020-07-13_10h35.47.825,fisher_task,2020.1.3,Win32,60,-0.078703623,-0.273148171,1,0,0,1.59952,scale,,,,,,0.3702,0.3,0.1234,0.1,stimuli/lakes/904058_left.png,stimuli/lakes/904058_right.png,,,,0,1,1,58,1,,,,,
,,,,,,,$5ea70b0537c5170b90ece8ac,2020-07-13_10h35.47.825,fisher_task,2020.1.3,Win32,60,0.083333362,-0.273148171,1,0,0,1.73265,scale,,,,,,0.1234,0.1,0.3702,0.3,stimuli/lakes/106080_left.png,stimuli/lakes/106080_right.png,,,,0,2,2,80,1,,,,,
,,,,,,,$5ea70b0537c5170b90ece8ac,2020-07-13_10h35.47.825,fisher_task,2020.1.3,Win32,60,0.139814845,-0.333333358,1,0,0,1.249575,scale,,,,,,0.275930788,0.223606798,0.275930788,0.223606798,stimuli/lakes/504054_left.png,stimuli/lakes/504054_right.png,,,,0,3,3,54,1,,,,,
,,,,,,,$5ea70b0537c5170b90ece8ac,2020-07-13_10h35.47.825,fisher_task,2020.1.3,Win32,60,-0.065740716,-0.281481505,1,0,0,1.682285,scale,,,,,,0.302267034,0.244948974,0.2468,0.2,stimuli/lakes/604046_left.png,stimuli/lakes/604046_right.png,,,,0,4,4,46,1,,,,,
,,,,,,,$5ea70b0537c5170b90ece8ac,2020-07-13_10h35.47.825,fisher_task,2020.1.3,Win32,60,0.123148178,-0.33055558,1,0,0,1.116955,scale,,,,,,0.174513954,0.141421356,0.349027907,0.282842712,stimuli/lakes/205060_left.png,stimuli/lakes/205060_right.png,,,,0,5,5,60,1,,,,,
,,,,,,,$5ea70b0537c5170b90ece8ac,2020-07-13_10h35.47.825,fisher_task,2020.1.3,Win32,60,-0.080555531,-0.281481505,1,0,0,1.83247,scale,,,,,,0.349027907,0.282842712,0.174513954,0.141421356,stimuli/lakes/804057_left.png,stimuli/lakes/804057_right.png,,,,0,6,6,57,1,,,,,
,,,,,,,$5ea70b0537c5170b90ece8ac,2020-07-13_10h35.47.825,fisher_task,2020.1.3,Win32,60,0.152777809,-0.413888916,1,0,0,1.19899,scale,,,,,,0.275930788,0.223606798,0.275930788,0.223606798,stimuli/lakes/502016_left.png,stimuli/lakes/502016_right.png,,,,0,7,7,16,1,,,,,
,,,,,,,$5ea70b0537c5170b90ece8ac,2020-07-13_10h35.47.825,fisher_task,2020.1.3,Win32,60,0.001851935,-0.258333356,1,0,0,2.13225,scale,,,,,,0.174513954,0.141421356,0.349027907,0.282842712,stimuli/lakes/2080108_left.png,stimuli/lakes/2080108_right.png,,,,0,8,8,108,1,,,,,
,,,,,,,$5ea70b0537c5170b90ece8ac,2020-07-13_10h35.47.825,fisher_task,2020.1.3,Win32,60,-0.127777755,-0.323148173,1,0,0,1.166225,scale,,,,,,0.326485712,0.264575131,0.21373507,0.173205081,stimuli/lakes/705067_left.png,stimuli/lakes/705067_right.png,,,,0,9,9,67,1,,,,,
,,,,,,,$5ea70b0537c5170b90ece8ac,2020-07-13_10h35.47.825,fisher_task,2020.1.3,Win32,60,-0.152777756,-0.353703729,1,0,0,0.850065,scale,,,,,,0.326485712,0.264575131,0.21373507,0.173205081,stimuli/lakes/7070104_left.png,stimuli/lakes/7070104_right.png,,,,0,10,10,104,1,,,,,
,,,,,,,$5ea70b0537c5170b90ece8ac,2020-07-13_10h35.47.825,fisher_task,2020.1.3,Win32,60,-0.099074051,-0.292592616,1,0,0,1.131895,scale,,,,,,0.349027907,0.282842712,0.174513954,0.141421356,stimuli/lakes/805069_left.png,stimuli/lakes/805069_right.png,,,,0,11,11,69,1,,,,,
,,,,,,,$5ea70b0537c5170b90ece8ac,2020-07-13_10h35.47.825,fisher_task,2020.1.3,Win32,60,0.005555582,-0.282407487,1,0,0,2.0168,scale,,,,,,0.174513954,0.141421356,0.349027907,0.282842712,stimuli/lakes/207090_left.png,stimuli/lakes/207090_right.png,,,,0,12,12,90,1,,,,,
,,,,,,,$5ea70b0537c5170b90ece8ac,2020-07-13_10h35.47.825,fisher_task,2020.1.3,Win32,60,-0.160185163,-0.358333359,1,0,0,1.26721,scale,,,,,,0.349027907,0.282842712,0.174513954,0.141421356,stimuli/lakes/806078_left.png,stimuli/lakes/806078_right.png,,,,0,13,13,78,1,,,,,
,,,,,,,$5ea70b0537c5170b90ece8ac,2020-07-13_10h35.47.825,fisher_task,2020.1.3,Win32,60,-0.133333311,-0.328703728,1,0,0,1.16581,scale,,,,,,0.302267034,0.244948974,0.2468,0.2,stimuli/lakes/606085_left.png,stimuli/lakes/606085_right.png,,,,0,14,14,85,1,,,,,
,,,,,,,$5ea70b0537c5170b90ece8ac,2020-07-13_10h35.47.825,fisher_task,2020.1.3,Win32,60,0.171296328,-0.373148174,1,0,0,1.066965,scale,,,,,,0.2468,0.2,0.302267034,0.244948974,stimuli/lakes/403026_left.png,stimuli/lakes/403026_right.png,,,,0,15,15,26,1,,,,,
,,,,,,,$5ea70b0537c5170b90ece8ac,2020-07-13_10h35.47.825,fisher_task,2020.1.3,Win32,60,-0.012036954,-0.263888912,1,0,0,2.86679,scale,,,,,,0.3702,0.3,0.1234,0.1,stimuli/lakes/903040_left.png,stimuli/lakes/903040_right.png,,,,0,16,16,40,1,,,,,
,,,,,,,$5ea70b0537c5170b90ece8ac,2020-07-13_10h35.47.825,fisher_task,2020.1.3,Win32,60,-0.079629606,-0.286111135,1,0,0,1.682405,scale,,,,,,0.349027907,0.282842712,0.174513954,0.141421356,stimuli/lakes/804048_left.png,stimuli/lakes/804048_right.png,,,,0,17,17,48,1,,,,,
,,,,,,,$5ea70b0537c5170b90ece8ac,2020-07-13_10h35.47.825,fisher_task,2020.1.3,Win32,60,-0.170370292,-0.424074158,1,0,0,1.412665,scale,,,,,,0.3702,0.3,0.1234,0.1,stimuli/lakes/907097_left.png,stimuli/lakes/907097_right.png,,,,0,18,18,97,1,,,,,
,,,,,,,$5ea70b0537c5170b90ece8ac,2020-07-13_10h35.47.825,fisher_task,2020.1.3,Win32,60,0.076851881,-0.256481504,1,0,0,1.783625,scale,,,,,,0.302267034,0.244948974,0.2468,0.2,stimuli/lakes/603028_left.png,stimuli/lakes/603028_right.png,,,,0,19,19,28,1,,,,,
,,,,,,,$5ea70b0537c5170b90ece8ac,2020-07-13_10h35.47.825,fisher_task,2020.1.3,Win32,60,0.126851882,-0.321296377,1,0,0,1.082785,scale,,,,,,0.174513954,0.141421356,0.349027907,0.282842712,stimuli/lakes/204051_left.png,stimuli/lakes/204051_right.png,,,,0,20,20,51,1,,,,,
,,,,,,,$5ea70b0537c5170b90ece8ac,2020-07-13_10h35.47.825,fisher_task,2020.1.3,Win32,60,-0.154629608,-0.424074158,1,0,0,1.09887,scale,,,,,,0.3702,0.3,0.1234,0.1,stimuli/lakes/9070106_left.png,stimuli/lakes/9070106_right.png,,,,0,21,21,106,1,,,,,
,,,,,,,$5ea70b0537c5170b90ece8ac,2020-07-13_10h35.47.825,fisher_task,2020.1.3,Win32,60,0.158333365,-0.399074157,1,0,0,1.799795,scale,,,,,,0.326485712,0.264575131,0.21373507,0.173205081,stimuli/lakes/702019_left.png,stimuli/lakes/702019_right.png,,,space,0,22,22,19,1,2.373515,,,,
,,,,,,,$5ea70b0537c5170b90ece8ac,2020-07-13_10h35.47.825,fisher_task,2020.1.3,Win32,60,0.04722225,-0.267592615,1,0,0,1.31593,scale,,,,,,0.21373507,0.173205081,0.326485712,0.264575131,stimuli/lakes/305062_left.png,stimuli/lakes/305062_right.png,,,,0,23,23,62,1,,,,,
,,,,,,,$5ea70b0537c5170b90ece8ac,2020-07-13_10h35.47.825,fisher_task,2020.1.3,Win32,60,-0.149074052,-0.391666693,1,0,0,1.06593,scale,,,,,,0.349027907,0.282842712,0.174513954,0.141421356,stimuli/lakes/806087_left.png,stimuli/lakes/806087_right.png,,,,0,24,24,87,1,,,,,
,,,,,,,$5ea70b0537c5170b90ece8ac,2020-07-13_10h35.47.825,fisher_task,2020.1.3,Win32,60,0.018518602,-0.262963042,1,0,0,1.415795,scale,,,,,,0.2468,0.2,0.302267034,0.244948974,stimuli/lakes/406083_left.png,stimuli/lakes/406083_right.png,,,,0,25,25,83,1,,,,,
,,,,,,,$5ea70b0537c5170b90ece8ac,2020-07-13_10h35.47.825,fisher_task,2020.1.3,Win32,60,0.150925957,-0.414814842,1,0,0,1.082725,scale,,,,,,0.2468,0.2,0.302267034,0.244948974,stimuli/lakes/40103_left.png,stimuli/lakes/40103_right.png,,,,0,26,26,3,1,,,,,
,,,,,,,$5ea70b0537c5170b90ece8ac,2020-07-13_10h35.47.825,fisher_task,2020.1.3,Win32,60,-0.165740719,-0.425925954,1,0,0,1.081725,scale,,,,,,0.3702,0.3,0.1234,0.1,stimuli/lakes/906088_left.png,stimuli/lakes/906088_right.png,,,,0,27,27,88,1,,,,,
,,,,,,,$5ea70b0537c5170b90ece8ac,2020-07-13_10h35.47.825,fisher_task,2020.1.3,Win32,60,-0.153703625,-0.400000027,1,0,0,1.03276,scale,,,,,,0.349027907,0.282842712,0.174513954,0.141421356,stimuli/lakes/807096_left.png,stimuli/lakes/807096_right.png,,,,0,28,28,96,1,,,,,
,,,,,,,$5ea70b0537c5170b90ece8ac,2020-07-13_10h35.47.825,fisher_task,2020.1.3,Win32,60,-0.097222199,-0.284259283,1,0,0,1.116235,scale,,,,,,0.302267034,0.244948974,0.2468,0.2,stimuli/lakes/605066_left.png,stimuli/lakes/605066_right.png,,,,0,29,29,66,1,,,,,
,,,,,,,$5ea70b0537c5170b90ece8ac,2020-07-13_10h35.47.825,fisher_task,2020.1.3,Win32,60,0.009259286,-0.258333356,1,0,0,1.133755,scale,,,,,,0.2468,0.2,0.302267034,0.244948974,stimuli/lakes/406074_left.png,stimuli/lakes/406074_right.png,,,,0,30,30,74,1,,,,,
,,,,,,,$5ea70b0537c5170b90ece8ac,2020-07-13_10h35.47.825,fisher_task,2020.1.3,Win32,60,0.152777809,-0.42222225,1,0,0,0.983795,scale,,,,,,0.21373507,0.173205081,0.326485712,0.264575131,stimuli/lakes/30101_left.png,stimuli/lakes/30101_right.png,,,,0,31,31,1,1,,,,,
,,,,,,,$5ea70b0537c5170b90ece8ac,2020-07-13_10h35.47.825,fisher_task,2020.1.3,Win32,60,0.133333364,-0.325925951,1,0,0,1.082705,scale,,,,,,0.1234,0.1,0.3702,0.3,stimuli/lakes/104041_left.png,stimuli/lakes/104041_right.png,,,,0,32,32,41,1,,,,,
,,,,,,,$5ea70b0537c5170b90ece8ac,2020-07-13_10h35.47.825,fisher_task,2020.1.3,Win32,60,0.142592623,-0.33055558,1,0,0,0.982915,scale,,,,,,0.174513954,0.141421356,0.349027907,0.282842712,stimuli/lakes/204042_left.png,stimuli/lakes/204042_right.png,,,,0,33,33,42,1,,,,,
,,,,,,,$5ea70b0537c5170b90ece8ac,2020-07-13_10h35.47.825,fisher_task,2020.1.3,Win32,60,0.050000028,-0.254629709,1,0,0,2.33223,scale,,,,,,0.349027907,0.282842712,0.174513954,0.141421356,stimuli/lakes/802021_left.png,stimuli/lakes/802021_right.png,,,,0,34,34,21,1,,,,,
,,,,,,,$5ea70b0537c5170b90ece8ac,2020-07-13_10h35.47.825,fisher_task,2020.1.3,Win32,60,0.000925952,-0.254629709,1,0,0,2.06608,scale,,,,,,0.1234,0.1,0.3702,0.3,stimuli/lakes/1080107_left.png,stimuli/lakes/1080107_right.png,,,,0,35,35,107,1,,,,,
,,,,,,,$5ea70b0537c5170b90ece8ac,2020-07-13_10h35.47.825,fisher_task,2020.1.3,Win32,60,-0.164814737,-0.42129638,1,0,0,1.165555,scale,,,,,,0.326485712,0.264575131,0.21373507,0.173205081,stimuli/lakes/7080117_left.png,stimuli/lakes/7080117_right.png,,,,0,36,36,117,1,,,,,
,,,,,,,$5ea70b0537c5170b90ece8ac,2020-07-13_10h35.47.825,fisher_task,2020.1.3,Win32,60,-0.176851831,-0.429629714,1,0,0,0.966795,scale,,,,,,0.349027907,0.282842712,0.174513954,0.141421356,stimuli/lakes/8080118_left.png,stimuli/lakes/8080118_right.png,,,,0,37,37,118,1,,,,,
,,,,,,,$5ea70b0537c5170b90ece8ac,2020-07-13_10h35.47.825,fisher_task,2020.1.3,Win32,60,-0.032407382,-0.26203706,1,0,0,1.93215,scale,,,,,,0.174513954,0.141421356,0.349027907,0.282842712,stimuli/lakes/206081_left.png,stimuli/lakes/206081_right.png,,,,0,38,38,81,1,,,,,
,,,,,,,$5ea70b0537c5170b90ece8ac,2020-07-13_10h35.47.825,fisher_task,2020.1.3,Win32,60,0.005555582,-0.268518598,1,0,0,2.03278,scale,,,,,,0.302267034,0.244948974,0.2468,0.2,stimuli/lakes/602018_left.png,stimuli/lakes/602018_right.png,,,,0,39,39,18,1,,,,,
,,,,,,,$5ea70b0537c5170b90ece8ac,2020-07-13_10h35.47.825,fisher_task,2020.1.3,Win32,60,0.150925957,-0.400000027,1,0,0,1.04889,scale,,,,,,0.21373507,0.173205081,0.326485712,0.264575131,stimuli/lakes/302012_left.png,stimuli/lakes/302012_right.png,,,,0,40,40,12,1,,,,,
,,,,,,,$5ea70b0537c5170b90ece8ac,2020-07-13_10h35.47.825,fisher_task,2020.1.3,Win32,60,-0.087036957,-0.26574082,1,0,0,1.73294,scale,,,,,,0.326485712,0.264575131,0.21373507,0.173205081,stimuli/lakes/705068_left.png,stimuli/lakes/705068_right.png,,,,0,41,41,68,1,,,,,
,,,,,,,$5ea70b0537c5170b90ece8ac,2020-07-13_10h35.47.825,fisher_task,2020.1.3,Win32,60,-0.137962941,-0.335185267,1,0,0,1.38213,scale,,,,,,0.302267034,0.244948974,0.2468,0.2,stimuli/lakes/607094_left.png,stimuli/lakes/607094_right.png,,,,0,42,42,94,1,,,,,
,,,,,,,$5ea70b0537c5170b90ece8ac,2020-07-13_10h35.47.825,fisher_task,2020.1.3,Win32,60,0.140740771,-0.324074155,1,0,0,1.1159,scale,,,,,,0.21373507,0.173205081,0.326485712,0.264575131,stimuli/lakes/303034_left.png,stimuli/lakes/303034_right.png,,,,0,43,43,34,1,,,,,
,,,,,,,$5ea70b0537c5170b90ece8ac,2020-07-13_10h35.47.825,fisher_task,2020.1.3,Win32,60,0.05648151,-0.24814817,1,0,0,2.099745,scale,,,,,,0.21373507,0.173205081,0.326485712,0.264575131,stimuli/lakes/307091_left.png,stimuli/lakes/307091_right.png,,,space,0,44,44,91,1,1.683545,,,,
,,,,,,,$5ea70b0537c5170b90ece8ac,2020-07-13_10h35.47.825,fisher_task,2020.1.3,Win32,60,-0.041666641,-0.261111134,1,0,0,1.599455,scale,,,,,,0.3702,0.3,0.1234,0.1,stimuli/lakes/905070_left.png,stimuli/lakes/905070_right.png,,,,0,45,45,70,1,,,,,
,,,,,,,$5ea70b0537c5170b90ece8ac,2020-07-13_10h35.47.825,fisher_task,2020.1.3,Win32,60,0.004629713,-0.253703726,1,0,0,1.665925,scale,,,,,,0.21373507,0.173205081,0.326485712,0.264575131,stimuli/lakes/306073_left.png,stimuli/lakes/306073_right.png,,,,0,46,46,73,1,,,,,
,,,,,,,$5ea70b0537c5170b90ece8ac,2020-07-13_10h35.47.825,fisher_task,2020.1.3,Win32,60,-0.125925847,-0.319444469,1,0,0,1.132095,scale,,,,,,0.275930788,0.223606798,0.275930788,0.223606798,stimuli/lakes/507093_left.png,stimuli/lakes/507093_right.png,,,,0,47,47,93,1,,,,,
,,,,,,,$5ea70b0537c5170b90ece8ac,2020-07-13_10h35.47.825,fisher_task,2020.1.3,Win32,60,0.010185268,-0.251851931,1,0,0,2.482555,scale,,,,,,0.2468,0.2,0.302267034,0.244948974,stimuli/lakes/4070101_left.png,stimuli/lakes/4070101_right.png,,,,0,48,48,101,1,,,,,
,,,,,,,$5ea70b0537c5170b90ece8ac,2020-07-13_10h35.47.825,fisher_task,2020.1.3,Win32,60,-0.104629606,-0.287963043,1,0,0,1.265255,scale,,,,,,0.2468,0.2,0.302267034,0.244948974,stimuli/lakes/4090123_left.png,stimuli/lakes/4090123_right.png,,,,0,49,49,123,1,,,,,
,,,,,,,$5ea70b0537c5170b90ece8ac,2020-07-13_10h35.47.825,fisher_task,2020.1.3,Win32,60,-0.156481403,-0.405555583,1,0,0,0.90018,scale,,,,,,0.275930788,0.223606798,0.275930788,0.223606798,stimuli/lakes/5090125_left.png,stimuli/lakes/5090125_right.png,,,,0,50,50,125,1,,,,,
,,,,,,,$5ea70b0537c5170b90ece8ac,2020-07-13_10h35.47.825,fisher_task,2020.1.3,Win32,60,0.044444472,-0.259259282,1,0,0,2.082735,scale,,,,,,0.302267034,0.244948974,0.2468,0.2,stimuli/lakes/60106_left.png,stimuli/lakes/60106_right.png,,,,0,51,51,6,1,,,,,
,,,,,,,$5ea70b0537c5170b90ece8ac,2020-07-13_10h35.47.825,fisher_task,2020.1.3,Win32,60,0.119444474,-0.316666691,1,0,0,1.11569,scale,,,,,,0.21373507,0.173205081,0.326485712,0.264575131,stimuli/lakes/302013_left.png,stimuli/lakes/302013_right.png,,,,0,52,52,13,1,,,,,
,,,,,,,$5ea70b0537c5170b90ece8ac,2020-07-13_10h35.47.825,fisher_task,2020.1.3,Win32,60,0.083333362,-0.29166669,1,0,0,1.63294,scale,,,,,,0.2468,0.2,0.302267034,0.244948974,stimuli/lakes/405063_left.png,stimuli/lakes/405063_right.png,,,,0,53,53,63,1,,,,,
,,,,,,,$5ea70b0537c5170b90ece8ac,2020-07-13_10h35.47.825,fisher_task,2020.1.3,Win32,60,0.1203704,-0.352777803,1,0,0,0.882755,scale,,,,,,0.275930788,0.223606798,0.275930788,0.223606798,stimuli/lakes/503036_left.png,stimuli/lakes/503036_right.png,,,,0,54,54,36,1,,,,,
,,,,,,,$5ea70b0537c5170b90ece8ac,2020-07-13_10h35.47.825,fisher_task,2020.1.3,Win32,60,0.050925954,-0.26574082,1,0,0,1.33322,scale,,,,,,0.174513954,0.141421356,0.349027907,0.282842712,stimuli/lakes/207099_left.png,stimuli/lakes/207099_right.png,,,,0,55,55,99,1,,,,,
,,,,,,,$5ea70b0537c5170b90ece8ac,2020-07-13_10h35.47.825,fisher_task,2020.1.3,Win32,60,0.12500003,-0.321296377,1,0,0,2.5656,scale,,,,,,0.326485712,0.264575131,0.21373507,0.173205081,stimuli/lakes/70108_left.png,stimuli/lakes/70108_right.png,,,,0,56,56,8,1,,,,,
,,,,,,,$5ea70b0537c5170b90ece8ac,2020-07-13_10h35.47.825,fisher_task,2020.1.3,Win32,60,0.130555586,-0.349074156,1,0,0,1.24911,scale,,,,,,0.2468,0.2,0.302267034,0.244948974,stimuli/lakes/403035_left.png,stimuli/lakes/403035_right.png,,,,0,57,57,35,1,,,,,
,,,,,,,$5ea70b0537c5170b90ece8ac,2020-07-13_10h35.47.825,fisher_task,2020.1.3,Win32,60,-0.163888867,-0.413888916,1,0,0,1.282585,scale,,,,,,0.302267034,0.244948974,0.2468,0.2,stimuli/lakes/6090127_left.png,stimuli/lakes/6090127_right.png,,,,0,58,58,127,1,,,,,
,,,,,,,$5ea70b0537c5170b90ece8ac,2020-07-13_10h35.47.825,fisher_task,2020.1.3,Win32,60,0.165740772,-0.358333359,1,0,0,1.61627,scale,,,,,,0.2468,0.2,0.302267034,0.244948974,stimuli/lakes/404053_left.png,stimuli/lakes/404053_right.png,,,,0,59,59,53,1,,,,,
,,,,,,,$5ea70b0537c5170b90ece8ac,2020-07-13_10h35.47.825,fisher_task,2020.1.3,Win32,60,0.12962966,-0.329629711,1,0,0,1.39657,scale,,,,,,0.21373507,0.173205081,0.326485712,0.264575131,stimuli/lakes/304043_left.png,stimuli/lakes/304043_right.png,,,,0,60,60,43,1,,,,,
,,,,,,,$5ea70b0537c5170b90ece8ac,2020-07-13_10h35.47.825,fisher_task,2020.1.3,Win32,60,-0.049074049,-0.264814838,1,0,0,1.71654,scale,,,,,,0.326485712,0.264575131,0.21373507,0.173205081,stimuli/lakes/703038_left.png,stimuli/lakes/703038_right.png,,,,0,61,61,38,1,,,,,
,,,,,,,$5ea70b0537c5170b90ece8ac,2020-07-13_10h35.47.825,fisher_task,2020.1.3,Win32,60,0.037963047,-0.261111134,1,0,0,1.3,scale,,,,,,0.1234,0.1,0.3702,0.3,stimuli/lakes/106071_left.png,stimuli/lakes/106071_right.png,,,,0,62,62,71,1,,,,,
,,,,,,,$5ea70b0537c5170b90ece8ac,2020-07-13_10h35.47.825,fisher_task,2020.1.3,Win32,60,-0.042592511,-0.259259282,1,0,0,2.199095,scale,,,,,,0.21373507,0.173205081,0.326485712,0.264575131,stimuli/lakes/3090122_left.png,stimuli/lakes/3090122_right.png,,,,0,63,63,122,1,,,,,
,,,,,,,$5ea70b0537c5170b90ece8ac,2020-07-13_10h35.47.825,fisher_task,2020.1.3,Win32,60,0.162037068,-0.384259286,1,0,0,1.232675,scale,,,,,,0.174513954,0.141421356,0.349027907,0.282842712,stimuli/lakes/202011_left.png,stimuli/lakes/202011_right.png,,,,0,64,64,11,1,,,,,
,,,,,,,$5ea70b0537c5170b90ece8ac,2020-07-13_10h35.47.825,fisher_task,2020.1.3,Win32,60,-0.162036959,-0.431481509,1,0,0,1.01607,scale,,,,,,0.302267034,0.244948974,0.2468,0.2,stimuli/lakes/6090126_left.png,stimuli/lakes/6090126_right.png,,,,0,65,65,126,1,,,,,
,,,,,,,$5ea70b0537c5170b90ece8ac,2020-07-13_10h35.47.825,fisher_task,2020.1.3,Win32,60,-0.0564814,-0.255555578,1,0,0,1.198875,scale,,,,,,0.2468,0.2,0.302267034,0.244948974,stimuli/lakes/4080112_left.png,stimuli/lakes/4080112_right.png,,,space,0,66,66,112,1,1.691095,,,,
,,,,,,,$5ea70b0537c5170b90ece8ac,2020-07-13_10h35.47.825,fisher_task,2020.1.3,Win32,60,-0.078703623,-0.29166669,1,0,0,1.516065,scale,,,,,,0.326485712,0.264575131,0.21373507,0.173205081,stimuli/lakes/704056_left.png,stimuli/lakes/704056_right.png,,,,0,67,67,56,1,,,,,
,,,,,,,$5ea70b0537c5170b90ece8ac,2020-07-13_10h35.47.825,fisher_task,2020.1.3,Win32,60,-0.155555534,-0.410185269,1,0,0,1.248795,scale,,,,,,0.326485712,0.264575131,0.21373507,0.173205081,stimuli/lakes/7090129_left.png,stimuli/lakes/7090129_right.png,,,,0,68,68,129,1,,,,,
,,,,,,,$5ea70b0537c5170b90ece8ac,2020-07-13_10h35.47.825,fisher_task,2020.1.3,Win32,60,-0.010185159,-0.262963042,1,0,0,2.799295,scale,,,,,,0.1234,0.1,0.3702,0.3,stimuli/lakes/107098_left.png,stimuli/lakes/107098_right.png,,,,0,69,69,98,1,,,,,
,,,,,,,$5ea70b0537c5170b90ece8ac,2020-07-13_10h35.47.825,fisher_task,2020.1.3,Win32,60,0.147222253,-0.411111138,1,0,0,1.449955,scale,,,,,,0.1234,0.1,0.3702,0.3,stimuli/lakes/103023_left.png,stimuli/lakes/103023_right.png,,,,0,70,70,23,1,,,,,
,,,,,,,$5ea70b0537c5170b90ece8ac,2020-07-13_10h35.47.825,fisher_task,2020.1.3,Win32,60,0.165740772,-0.424074158,1,0,0,1.066005,scale,,,,,,0.21373507,0.173205081,0.326485712,0.264575131,stimuli/lakes/30100_left.png,stimuli/lakes/30100_right.png,,,,0,71,71,0,1,,,,,
,,,,,,,$5ea70b0537c5170b90ece8ac,2020-07-13_10h35.47.825,fisher_task,2020.1.3,Win32,60,0.044444472,-0.254629709,1,0,0,1.81608,scale,,,,,,0.275930788,0.223606798,0.275930788,0.223606798,stimuli/lakes/503027_left.png,stimuli/lakes/503027_right.png,,,,0,72,72,27,1,,,,,
,,,,,,,$5ea70b0537c5170b90ece8ac,2020-07-13_10h35.47.825,fisher_task,2020.1.3,Win32,60,0.084259288,-0.290740821,1,0,0,2.61591,scale,,,,,,0.3702,0.3,0.1234,0.1,stimuli/lakes/902022_left.png,stimuli/lakes/902022_right.png,,,,0,73,73,22,1,,,,,
,,,,,,,$5ea70b0537c5170b90ece8ac,2020-07-13_10h35.47.825,fisher_task,2020.1.3,Win32,60,0.00370373,-0.26666669,1,0,0,2.13136,scale,,,,,,0.302267034,0.244948974,0.2468,0.2,stimuli/lakes/603037_left.png,stimuli/lakes/603037_right.png,,,,0,74,74,37,1,,,,,
,,,,,,,$5ea70b0537c5170b90ece8ac,2020-07-13_10h35.47.825,fisher_task,2020.1.3,Win32,60,-0.187037016,-0.405555583,1,0,0,1.432795,scale,,,,,,0.302267034,0.244948974,0.2468,0.2,stimuli/lakes/6080115_left.png,stimuli/lakes/6080115_right.png,,,,0,75,75,115,1,,,,,
,,,,,,,$5ea70b0537c5170b90ece8ac,2020-07-13_10h35.47.825,fisher_task,2020.1.3,Win32,60,-0.058333309,-0.274074154,1,0,0,2.49903,scale,,,,,,0.21373507,0.173205081,0.326485712,0.264575131,stimuli/lakes/3080110_left.png,stimuli/lakes/3080110_right.png,,,,0,76,76,110,1,,,,,
,,,,,,,$5ea70b0537c5170b90ece8ac,2020-07-13_10h35.47.825,fisher_task,2020.1.3,Win32,60,-0.154629608,-0.412963047,1,0,0,1.06616,scale,,,,,,0.275930788,0.223606798,0.275930788,0.223606798,stimuli/lakes/5080113_left.png,stimuli/lakes/5080113_right.png,,,,0,77,77,113,1,,,,,
,,,,,,,$5ea70b0537c5170b90ece8ac,2020-07-13_10h35.47.825,fisher_task,2020.1.3,Win32,60,0.046296381,-0.2527778,1,0,0,1.832795,scale,,,,,,0.349027907,0.282842712,0.174513954,0.141421356,stimuli/lakes/80109_left.png,stimuli/lakes/80109_right.png,,,,0,78,78,9,1,,,,,
,,,,,,,$5ea70b0537c5170b90ece8ac,2020-07-13_10h35.47.825,fisher_task,2020.1.3,Win32,60,0.184259291,-0.416666694,1,0,0,0.93261,scale,,,,,,0.1234,0.1,0.3702,0.3,stimuli/lakes/103032_left.png,stimuli/lakes/103032_right.png,,,,0,79,79,32,1,,,,,
,,,,,,,$5ea70b0537c5170b90ece8ac,2020-07-13_10h35.47.825,fisher_task,2020.1.3,Win32,60,-0.058333309,-0.264814838,1,0,0,1.63332,scale,,,,,,0.3702,0.3,0.1234,0.1,stimuli/lakes/904049_left.png,stimuli/lakes/904049_right.png,,,,0,80,80,49,1,,,,,
,,,,,,,$5ea70b0537c5170b90ece8ac,2020-07-13_10h35.47.825,fisher_task,2020.1.3,Win32,60,-0.048148067,-0.259259282,1,0,0,1.46602,scale,,,,,,0.326485712,0.264575131,0.21373507,0.173205081,stimuli/lakes/703029_left.png,stimuli/lakes/703029_right.png,,,,0,81,81,29,1,,,,,
,,,,,,,$5ea70b0537c5170b90ece8ac,2020-07-13_10h35.47.825,fisher_task,2020.1.3,Win32,60,-0.1472222,-0.361111137,1,0,0,1.41581,scale,,,,,,0.349027907,0.282842712,0.174513954,0.141421356,stimuli/lakes/8070105_left.png,stimuli/lakes/8070105_right.png,,,,0,82,82,105,1,,,,,
,,,,,,,$5ea70b0537c5170b90ece8ac,2020-07-13_10h35.47.825,fisher_task,2020.1.3,Win32,60,0.146296327,-0.338888914,1,0,0,0.816995,scale,,,,,,0.2468,0.2,0.302267034,0.244948974,stimuli/lakes/402015_left.png,stimuli/lakes/402015_right.png,,,,0,83,83,15,1,,,,,
,,,,,,,$5ea70b0537c5170b90ece8ac,2020-07-13_10h35.47.825,fisher_task,2020.1.3,Win32,60,-0.135185163,-0.328703728,1,0,0,1.099215,scale,,,,,,0.302267034,0.244948974,0.2468,0.2,stimuli/lakes/606076_left.png,stimuli/lakes/606076_right.png,,,,0,84,84,76,1,,,,,
,,,,,,,$5ea70b0537c5170b90ece8ac,2020-07-13_10h35.47.825,fisher_task,2020.1.3,Win32,60,-0.167592515,-0.377777804,1,0,0,0.94938,scale,,,,,,0.326485712,0.264575131,0.21373507,0.173205081,stimuli/lakes/7080116_left.png,stimuli/lakes/7080116_right.png,,,,0,85,85,116,1,,,,,
,,,,,,,$5ea70b0537c5170b90ece8ac,2020-07-13_10h35.47.825,fisher_task,2020.1.3,Win32,60,-0.045370289,-0.255555578,1,0,0,1.59907,scale,,,,,,0.349027907,0.282842712,0.174513954,0.141421356,stimuli/lakes/803030_left.png,stimuli/lakes/803030_right.png,,,,0,86,86,30,1,,,,,
,,,,,,,$5ea70b0537c5170b90ece8ac,2020-07-13_10h35.47.825,fisher_task,2020.1.3,Win32,60,2.6491E-08,-0.254629709,1,0,0,1.199175,scale,,,,,,0.302267034,0.244948974,0.2468,0.2,stimuli/lakes/602017_left.png,stimuli/lakes/602017_right.png,,,,0,87,87,17,1,,,,,
,,,,,,,$5ea70b0537c5170b90ece8ac,2020-07-13_10h35.47.825,fisher_task,2020.1.3,Win32,60,-0.029629604,-0.2527778,1,0,0,1.34922,scale,,,,,,0.174513954,0.141421356,0.349027907,0.282842712,stimuli/lakes/2090120_left.png,stimuli/lakes/2090120_right.png,,,space,0,88,88,120,1,2.053935,,,,
,,,,,,,$5ea70b0537c5170b90ece8ac,2020-07-13_10h35.47.825,fisher_task,2020.1.3,Win32,60,-0.06018516,-0.260185264,1,0,0,0.90044,scale,,,,,,0.2468,0.2,0.302267034,0.244948974,stimuli/lakes/4090124_left.png,stimuli/lakes/4090124_right.png,,,,0,89,89,124,1,,,,,
,,,,,,,$5ea70b0537c5170b90ece8ac,2020-07-13_10h35.47.825,fisher_task,2020.1.3,Win32,60,-0.012036954,-0.260185264,1,0,0,1.14919,scale,,,,,,0.2468,0.2,0.302267034,0.244948974,stimuli/lakes/405064_left.png,stimuli/lakes/405064_right.png,,,,0,90,90,64,1,,,,,
,,,,,,,$5ea70b0537c5170b90ece8ac,2020-07-13_10h35.47.825,fisher_task,2020.1.3,Win32,60,-0.085185161,-0.281481505,1,0,0,1.315525,scale,,,,,,0.275930788,0.223606798,0.275930788,0.223606798,stimuli/lakes/5070102_left.png,stimuli/lakes/5070102_right.png,,,,0,91,91,102,1,,,,,
,,,,,,,$5ea70b0537c5170b90ece8ac,2020-07-13_10h35.47.825,fisher_task,2020.1.3,Win32,60,0.074074103,-0.269444467,1,0,0,1.59891,scale,,,,,,0.1234,0.1,0.3702,0.3,stimuli/lakes/105059_left.png,stimuli/lakes/105059_right.png,,,,0,92,92,59,1,,,,,
,,,,,,,$5ea70b0537c5170b90ece8ac,2020-07-13_10h35.47.825,fisher_task,2020.1.3,Win32,60,0.012037064,-0.277777801,1,0,0,1.682585,scale,,,,,,0.21373507,0.173205081,0.326485712,0.264575131,stimuli/lakes/3070100_left.png,stimuli/lakes/3070100_right.png,,,,0,93,93,100,1,,,,,
,,,,,,,$5ea70b0537c5170b90ece8ac,2020-07-13_10h35.47.825,fisher_task,2020.1.3,Win32,60,-0.049999975,-0.272222245,1,0,0,2.11543,scale,,,,,,0.21373507,0.173205081,0.326485712,0.264575131,stimuli/lakes/306082_left.png,stimuli/lakes/306082_right.png,,,,0,94,94,82,1,,,,,
,,,,,,,$5ea70b0537c5170b90ece8ac,2020-07-13_10h35.47.825,fisher_task,2020.1.3,Win32,60,0.121296326,-0.324074155,1,0,0,0.915475,scale,,,,,,0.174513954,0.141421356,0.349027907,0.282842712,stimuli/lakes/203033_left.png,stimuli/lakes/203033_right.png,,,,0,95,95,33,1,,,,,
,,,,,,,$5ea70b0537c5170b90ece8ac,2020-07-13_10h35.47.825,fisher_task,2020.1.3,Win32,60,-0.132407385,-0.327777802,1,0,0,0.75044,scale,,,,,,0.275930788,0.223606798,0.275930788,0.223606798,stimuli/lakes/506075_left.png,stimuli/lakes/506075_right.png,,,,0,96,96,75,1,,,,,
,,,,,,,$5ea70b0537c5170b90ece8ac,2020-07-13_10h35.47.825,fisher_task,2020.1.3,Win32,60,-0.178703683,-0.41759262,1,0,0,0.84946,scale,,,,,,0.326485712,0.264575131,0.21373507,0.173205081,stimuli/lakes/7090128_left.png,stimuli/lakes/7090128_right.png,,,,0,97,97,128,1,,,,,
,,,,,,,$5ea70b0537c5170b90ece8ac,2020-07-13_10h35.47.825,fisher_task,2020.1.3,Win32,60,0.05648151,-0.250000022,1,0,0,1.483365,scale,,,,,,0.3702,0.3,0.1234,0.1,stimuli/lakes/901010_left.png,stimuli/lakes/901010_right.png,,,,0,98,98,10,1,,,,,
,,,,,,,$5ea70b0537c5170b90ece8ac,2020-07-13_10h35.47.825,fisher_task,2020.1.3,Win32,60,-0.055555531,-0.26203706,1,0,0,1.71574,scale,,,,,,0.21373507,0.173205081,0.326485712,0.264575131,stimuli/lakes/3090121_left.png,stimuli/lakes/3090121_right.png,,,,0,99,99,121,1,,,,,
,,,,,,,$5ea70b0537c5170b90ece8ac,2020-07-13_10h35.47.825,fisher_task,2020.1.3,Win32,60,-0.080555531,-0.277777801,1,0,0,0.88214,scale,,,,,,0.21373507,0.173205081,0.326485712,0.264575131,stimuli/lakes/3080109_left.png,stimuli/lakes/3080109_right.png,,,,0,100,100,109,1,,,,,
,,,,,,,$5ea70b0537c5170b90ece8ac,2020-07-13_10h35.47.825,fisher_task,2020.1.3,Win32,60,-0.080555531,-0.280555579,1,0,0,2.26577,scale,,,,,,0.302267034,0.244948974,0.2468,0.2,stimuli/lakes/604055_left.png,stimuli/lakes/604055_right.png,,,,0,101,101,55,1,,,,,
,,,,,,,$5ea70b0537c5170b90ece8ac,2020-07-13_10h35.47.825,fisher_task,2020.1.3,Win32,60,0.072222251,-0.281481505,1,0,0,1.41594,scale,,,,,,0.1234,0.1,0.3702,0.3,stimuli/lakes/104050_left.png,stimuli/lakes/104050_right.png,,,,0,102,102,50,1,,,,,
,,,,,,,$5ea70b0537c5170b90ece8ac,2020-07-13_10h35.47.825,fisher_task,2020.1.3,Win32,60,-0.168518497,-0.38240749,1,0,0,0.750065,scale,,,,,,0.302267034,0.244948974,0.2468,0.2,stimuli/lakes/6080114_left.png,stimuli/lakes/6080114_right.png,,,,0,103,103,114,1,,,,,
,,,,,,,$5ea70b0537c5170b90ece8ac,2020-07-13_10h35.47.825,fisher_task,2020.1.3,Win32,60,0.160185216,-0.427777805,1,0,0,1.148965,scale,,,,,,0.174513954,0.141421356,0.349027907,0.282842712,stimuli/lakes/203024_left.png,stimuli/lakes/203024_right.png,,,,0,104,104,24,1,,,,,
,,,,,,,$5ea70b0537c5170b90ece8ac,2020-07-13_10h35.47.825,fisher_task,2020.1.3,Win32,60,0.123148178,-0.318518599,1,0,0,1.66672,scale,,,,,,0.302267034,0.244948974,0.2468,0.2,stimuli/lakes/605065_left.png,stimuli/lakes/605065_right.png,,,,0,105,105,65,1,,,,,
,,,,,,,$5ea70b0537c5170b90ece8ac,2020-07-13_10h35.47.825,fisher_task,2020.1.3,Win32,60,0.106481511,-0.295370394,1,0,0,1.315985,scale,,,,,,0.174513954,0.141421356,0.349027907,0.282842712,stimuli/lakes/206072_left.png,stimuli/lakes/206072_right.png,,,,0,106,106,72,1,,,,,
,,,,,,,$5ea70b0537c5170b90ece8ac,2020-07-13_10h35.47.825,fisher_task,2020.1.3,Win32,60,-0.126851829,-0.320370395,1,0,0,0.966885,scale,,,,,,0.275930788,0.223606798,0.275930788,0.223606798,stimuli/lakes/506084_left.png,stimuli/lakes/506084_right.png,,,,0,107,107,84,1,,,,,
,,,,,,,$5ea70b0537c5170b90ece8ac,2020-07-13_10h35.47.825,fisher_task,2020.1.3,Win32,60,0.072222251,-0.256481504,1,0,0,1.366025,scale,,,,,,0.302267034,0.244948974,0.2468,0.2,stimuli/lakes/60105_left.png,stimuli/lakes/60105_right.png,,,,0,108,108,5,1,,,,,
,,,,,,,$5ea70b0537c5170b90ece8ac,2020-07-13_10h35.47.825,fisher_task,2020.1.3,Win32,60,0.096296326,-0.314814839,1,0,0,0.81607,scale,,,,,,0.21373507,0.173205081,0.326485712,0.264575131,stimuli/lakes/304052_left.png,stimuli/lakes/304052_right.png,,,,0,109,109,52,1,,,,,
,,,,,,,$5ea70b0537c5170b90ece8ac,2020-07-13_10h35.47.825,fisher_task,2020.1.3,Win32,60,0.087962992,-0.274074154,1,0,0,1.282155,scale,,,,,,0.21373507,0.173205081,0.326485712,0.264575131,stimuli/lakes/305061_left.png,stimuli/lakes/305061_right.png,,,space,0,110,110,61,1,7.740415,,,,
,,,,,,,$5ea70b0537c5170b90ece8ac,2020-07-13_10h35.47.825,fisher_task,2020.1.3,Win32,60,0.083333362,-0.300000024,1,0,0,2.899925,scale,,,,,,0.21373507,0.173205081,0.326485712,0.264575131,stimuli/lakes/303025_left.png,stimuli/lakes/303025_right.png,,,,0,111,111,25,1,,,,,
,,,,,,,$5ea70b0537c5170b90ece8ac,2020-07-13_10h35.47.825,fisher_task,2020.1.3,Win32,60,-0.144444422,-0.324074155,1,0,0,1.03272,scale,,,,,,0.326485712,0.264575131,0.21373507,0.173205081,stimuli/lakes/706077_left.png,stimuli/lakes/706077_right.png,,,,0,112,112,77,1,,,,,
,,,,,,,$5ea70b0537c5170b90ece8ac,2020-07-13_10h35.47.825,fisher_task,2020.1.3,Win32,60,-0.137962941,-0.362037063,1,0,0,0.848545,scale,,,,,,0.302267034,0.244948974,0.2468,0.2,stimuli/lakes/6070103_left.png,stimuli/lakes/6070103_right.png,,,,0,113,113,103,1,,,,,
,,,,,,,$5ea70b0537c5170b90ece8ac,2020-07-13_10h35.47.825,fisher_task,2020.1.3,Win32,60,-0.122222199,-0.332407489,1,0,0,0.866065,scale,,,,,,0.326485712,0.264575131,0.21373507,0.173205081,stimuli/lakes/706086_left.png,stimuli/lakes/706086_right.png,,,,0,114,114,86,1,,,,,
,,,,,,,$5ea70b0537c5170b90ece8ac,2020-07-13_10h35.47.825,fisher_task,2020.1.3,Win32,60,-0.180555534,-0.370370396,1,0,0,0.93195,scale,,,,,,0.326485712,0.264575131,0.21373507,0.173205081,stimuli/lakes/707095_left.png,stimuli/lakes/707095_right.png,,,,0,115,115,95,1,,,,,
,,,,,,,$5ea70b0537c5170b90ece8ac,2020-07-13_10h35.47.825,fisher_task,2020.1.3,Win32,60,-0.099999976,-0.294444468,1,0,0,0.915995,scale,,,,,,0.326485712,0.264575131,0.21373507,0.173205081,stimuli/lakes/704047_left.png,stimuli/lakes/704047_right.png,,,,0,116,116,47,1,,,,,
,,,,,,,$5ea70b0537c5170b90ece8ac,2020-07-13_10h35.47.825,fisher_task,2020.1.3,Win32,60,0.082407436,-0.264814838,1,0,0,1.183935,scale,,,,,,0.349027907,0.282842712,0.174513954,0.141421356,stimuli/lakes/803039_left.png,stimuli/lakes/803039_right.png,,,,0,117,117,39,1,,,,,
,,,,,,,$5ea70b0537c5170b90ece8ac,2020-07-13_10h35.47.825,fisher_task,2020.1.3,Win32,60,0.122222252,-0.316666691,1,0,0,1.24952,scale,,,,,,0.2468,0.2,0.302267034,0.244948974,stimuli/lakes/404044_left.png,stimuli/lakes/404044_right.png,,,,0,118,118,44,1,,,,,
,,,,,,,$5ea70b0537c5170b90ece8ac,2020-07-13_10h35.47.825,fisher_task,2020.1.3,Win32,60,0.145370401,-0.423148176,1,0,0,1.116885,scale,,,,,,0.275930788,0.223606798,0.275930788,0.223606798,stimuli/lakes/50104_left.png,stimuli/lakes/50104_right.png,,,,0,119,119,4,1,,,,,
,,,,,,,$5ea70b0537c5170b90ece8ac,2020-07-13_10h35.47.825,fisher_task,2020.1.3,Win32,60,-0.024074048,-0.251851931,1,0,0,2.63164,scale,,,,,,0.2468,0.2,0.302267034,0.244948974,stimuli/lakes/4080111_left.png,stimuli/lakes/4080111_right.png,,,,0,120,120,111,1,,,,,
,,,,,,,$5ea70b0537c5170b90ece8ac,2020-07-13_10h35.47.825,fisher_task,2020.1.3,Win32,60,0.150000031,-0.407407491,1,0,0,1.499005,scale,,,,,,0.2468,0.2,0.302267034,0.244948974,stimuli/lakes/402014_left.png,stimuli/lakes/402014_right.png,,,,0,121,121,14,1,,,,,
,,,,,,,$5ea70b0537c5170b90ece8ac,2020-07-13_10h35.47.825,fisher_task,2020.1.3,Win32,60,-0.115740718,-0.294444468,1,0,0,1.31636,scale,,,,,,0.3702,0.3,0.1234,0.1,stimuli/lakes/906079_left.png,stimuli/lakes/906079_right.png,,,,0,122,122,79,1,,,,,
,,,,,,,$5ea70b0537c5170b90ece8ac,2020-07-13_10h35.47.825,fisher_task,2020.1.3,Win32,60,0.053703732,-0.272222245,1,0,0,1.66524,scale,,,,,,0.275930788,0.223606798,0.275930788,0.223606798,stimuli/lakes/504045_left.png,stimuli/lakes/504045_right.png,,,,0,123,123,45,1,,,,,
,,,,,,,$5ea70b0537c5170b90ece8ac,2020-07-13_10h35.47.825,fisher_task,2020.1.3,Win32,60,-0.044444419,-0.263888912,1,0,0,2.282,scale,,,,,,0.3702,0.3,0.1234,0.1,stimuli/lakes/903031_left.png,stimuli/lakes/903031_right.png,,,,0,124,124,31,1,,,,,
,,,,,,,$5ea70b0537c5170b90ece8ac,2020-07-13_10h35.47.825,fisher_task,2020.1.3,Win32,60,0.161111142,-0.413888916,1,0,0,1.04967,scale,,,,,,0.2468,0.2,0.302267034,0.244948974,stimuli/lakes/40102_left.png,stimuli/lakes/40102_right.png,,,,0,125,125,2,1,,,,,
,,,,,,,$5ea70b0537c5170b90ece8ac,2020-07-13_10h35.47.825,fisher_task,2020.1.3,Win32,60,0.028703731,-0.259259282,1,0,0,1.616865,scale,,,,,,0.326485712,0.264575131,0.21373507,0.173205081,stimuli/lakes/702020_left.png,stimuli/lakes/702020_right.png,,,,0,126,126,20,1,,,,,
,,,,,,,$5ea70b0537c5170b90ece8ac,2020-07-13_10h35.47.825,fisher_task,2020.1.3,Win32,60,-0.043518493,-0.256481504,1,0,0,2.131975,scale,,,,,,0.2468,0.2,0.302267034,0.244948974,stimuli/lakes/407092_left.png,stimuli/lakes/407092_right.png,,,,0,127,127,92,1,,,,,
,,,,,,,$5ea70b0537c5170b90ece8ac,2020-07-13_10h35.47.825,fisher_task,2020.1.3,Win32,60,0.031481509,-0.26574082,1,0,0,2.199175,scale,,,,,,0.1234,0.1,0.3702,0.3,stimuli/lakes/107089_left.png,stimuli/lakes/107089_right.png,,,,0,128,128,89,1,,,,,
,,,,,,,$5ea70b0537c5170b90ece8ac,2020-07-13_10h35.47.825,fisher_task,2020.1.3,Win32,60,-0.058333309,-0.268518598,1,0,0,1.19912,scale,,,,,,0.1234,0.1,0.3702,0.3,stimuli/lakes/1090119_left.png,stimuli/lakes/1090119_right.png,,,,0,129,129,119,1,,,,,
,,,,,,,$5ea70b0537c5170b90ece8ac,2020-07-13_10h35.47.825,fisher_task,2020.1.3,Win32,60,,,,,,,,,,,,,,,,,,,,,,,,,,,,space,6.189575,space,2.573
