keySpace.keys,keySpace.rt,instructions.thisRepN,instructions.thisTrialN,instructions.thisN,instructions.thisIndex,instructions.ran,participant,date,expName,psychopyVersion,OS,frameRate,mouse.x,mouse.y,mouse.leftButton,mouse.midButton,mouse.rightButton,mouse.time,mouse.clicked_name,training.thisRepN,training.thisTrialN,training.thisN,training.thisIndex,training.ran,widthBasketLeft,heightBasketLeft,widthBasketRight,heightBasketRight,leftLake,rightLake,space2.keys,space2.rt,space1.keys,trials.thisRepN,trials.thisTrialN,trials.thisN,trials.thisIndex,trials.ran,space1.rt,finalSpace1.keys,finalSpace1.rt,finalSpace2.keys,finalSpace2.rt
space,0.575265,0,0,0,0,1,$5ec46292be5c9d19c799f50c,2020-07-21_15h59.39.349,fisher_task,2020.1.3,Win32,60,,,,,,,,,,,,,,,,,,,,,,,,,,,,,,,
,,1,0,1,0,1,$5ec46292be5c9d19c799f50c,2020-07-21_15h59.39.349,fisher_task,2020.1.3,Win32,60,,,,,,,,,,,,,,,,,,,,,,,,,,,,,,,
,,,,,,,$5ec46292be5c9d19c799f50c,2020-07-21_15h59.39.349,fisher_task,2020.1.3,Win32,60,-0.09375,-0.307291667,1,0,0,1.41527,scale,0,0,0,0,1,0.275930788,0.223606798,0.275930788,0.223606798,stimuli/training/20_left.png,stimuli/training/20_right.png,,,,,,,,,,,,,
,,,,,,,$5ec46292be5c9d19c799f50c,2020-07-21_15h59.39.349,fisher_task,2020.1.3,Win32,60,-0.115885417,-0.311197917,1,0,0,1.18249,scale,0,1,1,1,1,0.275930788,0.223606798,0.275930788,0.223606798,stimuli/training/80_left.png,stimuli/training/80_right.png,,,,,,,,,,,,,
,,,,,,,$5ec46292be5c9d19c799f50c,2020-07-21_15h59.39.349,fisher_task,2020.1.3,Win32,60,0.07421875,-0.263020833,1,0,0,1.248485,scale,0,2,2,2,1,0.174513954,0.141421356,0.349027907,0.282842712,stimuli/training/50_left.png,stimuli/training/50_right.png,,,,,,,,,,,,,
,,,,,,,$5ec46292be5c9d19c799f50c,2020-07-21_15h59.39.349,fisher_task,2020.1.3,Win32,60,-0.084635417,-0.270833333,1,0,0,0.61587,scale,0,3,3,3,1,0.349027907,0.282842712,0.174513954,0.141421356,stimuli/training/50_left.png,stimuli/training/50_right.png,,,,,,,,,,,,,
,,,,,,,$5ec46292be5c9d19c799f50c,2020-07-21_15h59.39.349,fisher_task,2020.1.3,Win32,60,-0.109375,-0.322916667,1,0,0,1.132695,scale,0,4,4,4,1,0.275930788,0.223606798,0.275930788,0.223606798,stimuli/training/50_left.png,stimuli/training/50_right.png,,,,,,,,,,,,,
,,,,,,,$5ec46292be5c9d19c799f50c,2020-07-21_15h59.39.349,fisher_task,2020.1.3,Win32,60,0.104166667,-0.290364583,1,0,0,1.382705,scale,0,5,5,5,1,0.174513954,0.141421356,0.349027907,0.282842712,stimuli/training/20_left.png,stimuli/training/20_right.png,,,,,,,,,,,,,
,,,,,,,$5ec46292be5c9d19c799f50c,2020-07-21_15h59.39.349,fisher_task,2020.1.3,Win32,60,-0.149739583,-0.40234375,1,0,0,1.14891,scale,0,6,6,6,1,0.349027907,0.282842712,0.174513954,0.141421356,stimuli/training/80_left.png,stimuli/training/80_right.png,,,,,,,,,,,,,
,,,,,,,$5ec46292be5c9d19c799f50c,2020-07-21_15h59.39.349,fisher_task,2020.1.3,Win32,60,0.131510417,-0.38671875,1,0,0,0.399135,scale,0,7,7,7,1,0.1234,0.1,0.3702,0.3,stimuli/training/30_left.png,stimuli/training/30_right.png,,,,,,,,,,,,,
,,,,,,,$5ec46292be5c9d19c799f50c,2020-07-21_15h59.39.349,fisher_task,2020.1.3,Win32,60,-0.14453125,-0.38671875,1,0,0,0.415065,scale,0,8,8,8,1,0.3702,0.3,0.1234,0.1,stimuli/training/70_left.png,stimuli/training/70_right.png,,,,,,,,,,,,,
,,,,,,,$5ec46292be5c9d19c799f50c,2020-07-21_15h59.39.349,fisher_task,2020.1.3,Win32,60,-0.143229167,-0.358072917,1,0,0,0.432765,scale,0,9,9,9,1,0.326485712,0.264575131,0.21373507,0.173205081,stimuli/training/90_left.png,stimuli/training/90_right.png,,,,,,,,,,,,,
,,,,,,,$5ec46292be5c9d19c799f50c,2020-07-21_15h59.39.349,fisher_task,2020.1.3,Win32,60,0.154947917,-0.385416667,1,0,0,0.716085,scale,0,10,10,10,1,0.21373507,0.173205081,0.326485712,0.264575131,stimuli/training/10_left.png,stimuli/training/10_right.png,,,,,,,,,,,,,
,,,,,,,$5ec46292be5c9d19c799f50c,2020-07-21_15h59.39.349,fisher_task,2020.1.3,Win32,60,0.177083333,-0.401041667,1,0,0,1.048395,scale,,,,,,0.2468,0.2,0.302267034,0.244948974,stimuli/lakes/402014_left.png,stimuli/lakes/402014_right.png,space,5.254525,,0,0,0,14,1,,,,,
,,,,,,,$5ec46292be5c9d19c799f50c,2020-07-21_15h59.39.349,fisher_task,2020.1.3,Win32,60,-0.140625,-0.3515625,1,0,0,0.98316,scale,,,,,,0.326485712,0.264575131,0.21373507,0.173205081,stimuli/lakes/706086_left.png,stimuli/lakes/706086_right.png,,,,0,1,1,86,1,,,,,
,,,,,,,$5ec46292be5c9d19c799f50c,2020-07-21_15h59.39.349,fisher_task,2020.1.3,Win32,60,-0.002604167,-0.25390625,1,0,0,1.43275,scale,,,,,,0.1234,0.1,0.3702,0.3,stimuli/lakes/107089_left.png,stimuli/lakes/107089_right.png,,,,0,2,2,89,1,,,,,
,,,,,,,$5ec46292be5c9d19c799f50c,2020-07-21_15h59.39.349,fisher_task,2020.1.3,Win32,60,0.067708333,-0.27734375,1,0,0,1.032905,scale,,,,,,0.326485712,0.264575131,0.21373507,0.173205081,stimuli/lakes/703038_left.png,stimuli/lakes/703038_right.png,,,,0,3,3,38,1,,,,,
,,,,,,,$5ec46292be5c9d19c799f50c,2020-07-21_15h59.39.349,fisher_task,2020.1.3,Win32,60,-0.069010417,-0.294270833,1,0,0,0.41708,scale,,,,,,0.349027907,0.282842712,0.174513954,0.141421356,stimuli/lakes/803030_left.png,stimuli/lakes/803030_right.png,,,,0,4,4,30,1,,,,,
,,,,,,,$5ec46292be5c9d19c799f50c,2020-07-21_15h59.39.349,fisher_task,2020.1.3,Win32,60,-0.1015625,-0.313802083,1,0,0,0.3337,scale,,,,,,0.326485712,0.264575131,0.21373507,0.173205081,stimuli/lakes/704047_left.png,stimuli/lakes/704047_right.png,,,,0,5,5,47,1,,,,,
,,,,,,,$5ec46292be5c9d19c799f50c,2020-07-21_15h59.39.349,fisher_task,2020.1.3,Win32,60,0.122395833,-0.317708333,1,0,0,0.73255,scale,,,,,,0.2468,0.2,0.302267034,0.244948974,stimuli/lakes/402015_left.png,stimuli/lakes/402015_right.png,,,,0,6,6,15,1,,,,,
,,,,,,,$5ec46292be5c9d19c799f50c,2020-07-21_15h59.39.349,fisher_task,2020.1.3,Win32,60,0.127604167,-0.3359375,1,0,0,0.78253,scale,,,,,,0.3702,0.3,0.1234,0.1,stimuli/lakes/901010_left.png,stimuli/lakes/901010_right.png,,,,0,7,7,10,1,,,,,
,,,,,,,$5ec46292be5c9d19c799f50c,2020-07-21_15h59.39.349,fisher_task,2020.1.3,Win32,60,-0.1484375,-0.408854167,1,0,0,1.283555,scale,,,,,,0.2468,0.2,0.302267034,0.244948974,stimuli/lakes/4090123_left.png,stimuli/lakes/4090123_right.png,,,,0,8,8,123,1,,,,,
,,,,,,,$5ec46292be5c9d19c799f50c,2020-07-21_15h59.39.349,fisher_task,2020.1.3,Win32,60,-0.016927083,-0.276041667,1,0,0,1.182185,scale,,,,,,0.302267034,0.244948974,0.2468,0.2,stimuli/lakes/603028_left.png,stimuli/lakes/603028_right.png,,,,0,9,9,28,1,,,,,
,,,,,,,$5ec46292be5c9d19c799f50c,2020-07-21_15h59.39.349,fisher_task,2020.1.3,Win32,60,-0.139322917,-0.33984375,1,0,0,1.132715,scale,,,,,,0.326485712,0.264575131,0.21373507,0.173205081,stimuli/lakes/707095_left.png,stimuli/lakes/707095_right.png,,,,0,10,10,95,1,,,,,
,,,,,,,$5ec46292be5c9d19c799f50c,2020-07-21_15h59.39.349,fisher_task,2020.1.3,Win32,60,-0.21875,-0.317708333,1,0,0,0.91672,scale,,,,,,0.174513954,0.141421356,0.349027907,0.282842712,stimuli/lakes/2090120_left.png,stimuli/lakes/2090120_right.png,,,,0,11,11,120,1,,,,,
,,,,,,,$5ec46292be5c9d19c799f50c,2020-07-21_15h59.39.349,fisher_task,2020.1.3,Win32,60,0,-0.255208333,1,0,0,0.432815,scale,,,,,,0.275930788,0.223606798,0.275930788,0.223606798,stimuli/lakes/5070102_left.png,stimuli/lakes/5070102_right.png,,,,0,12,12,102,1,,,,,
,,,,,,,$5ec46292be5c9d19c799f50c,2020-07-21_15h59.39.349,fisher_task,2020.1.3,Win32,60,0.061197917,-0.28125,1,0,0,0.764885,scale,,,,,,0.349027907,0.282842712,0.174513954,0.141421356,stimuli/lakes/802021_left.png,stimuli/lakes/802021_right.png,,,,0,13,13,21,1,,,,,
,,,,,,,$5ec46292be5c9d19c799f50c,2020-07-21_15h59.39.349,fisher_task,2020.1.3,Win32,60,0.119791667,-0.317708333,1,0,0,0.498145,scale,,,,,,0.174513954,0.141421356,0.349027907,0.282842712,stimuli/lakes/206072_left.png,stimuli/lakes/206072_right.png,,,,0,14,14,72,1,,,,,
,,,,,,,$5ec46292be5c9d19c799f50c,2020-07-21_15h59.39.349,fisher_task,2020.1.3,Win32,60,0.1015625,-0.291666667,1,0,0,0.499495,scale,,,,,,0.1234,0.1,0.3702,0.3,stimuli/lakes/104041_left.png,stimuli/lakes/104041_right.png,,,,0,15,15,41,1,,,,,
,,,,,,,$5ec46292be5c9d19c799f50c,2020-07-21_15h59.39.349,fisher_task,2020.1.3,Win32,60,0.013020833,-0.263020833,1,0,0,1.116205,scale,,,,,,0.326485712,0.264575131,0.21373507,0.173205081,stimuli/lakes/704056_left.png,stimuli/lakes/704056_right.png,,,,0,16,16,56,1,,,,,
,,,,,,,$5ec46292be5c9d19c799f50c,2020-07-21_15h59.39.349,fisher_task,2020.1.3,Win32,60,0.119791667,-0.330729167,1,0,0,1.332225,scale,,,,,,0.275930788,0.223606798,0.275930788,0.223606798,stimuli/lakes/50104_left.png,stimuli/lakes/50104_right.png,,,,0,17,17,4,1,,,,,
,,,,,,,$5ec46292be5c9d19c799f50c,2020-07-21_15h59.39.349,fisher_task,2020.1.3,Win32,60,0.033854167,-0.27734375,1,0,0,1.432515,scale,,,,,,0.21373507,0.173205081,0.326485712,0.264575131,stimuli/lakes/304043_left.png,stimuli/lakes/304043_right.png,,,,0,18,18,43,1,,,,,
,,,,,,,$5ec46292be5c9d19c799f50c,2020-07-21_15h59.39.349,fisher_task,2020.1.3,Win32,60,-0.0234375,-0.272135417,1,0,0,0.66685,scale,,,,,,0.349027907,0.282842712,0.174513954,0.141421356,stimuli/lakes/806078_left.png,stimuli/lakes/806078_right.png,,,,0,19,19,78,1,,,,,
,,,,,,,$5ec46292be5c9d19c799f50c,2020-07-21_15h59.39.349,fisher_task,2020.1.3,Win32,60,-0.123697917,-0.321614583,1,0,0,1.182445,scale,,,,,,0.302267034,0.244948974,0.2468,0.2,stimuli/lakes/606076_left.png,stimuli/lakes/606076_right.png,,,,0,20,20,76,1,,,,,
,,,,,,,$5ec46292be5c9d19c799f50c,2020-07-21_15h59.39.349,fisher_task,2020.1.3,Win32,60,-0.151041667,-0.3515625,1,0,0,1.015545,scale,,,,,,0.302267034,0.244948974,0.2468,0.2,stimuli/lakes/6070103_left.png,stimuli/lakes/6070103_right.png,,,,0,21,21,103,1,,,,,
,,,,,,,$5ec46292be5c9d19c799f50c,2020-07-21_15h59.39.349,fisher_task,2020.1.3,Win32,60,0.080729167,-0.276041667,1,0,0,1.297925,scale,,,,,,0.275930788,0.223606798,0.275930788,0.223606798,stimuli/lakes/503027_left.png,stimuli/lakes/503027_right.png,,,space,0,22,22,27,1,4.202745,,,,
,,,,,,,$5ec46292be5c9d19c799f50c,2020-07-21_15h59.39.349,fisher_task,2020.1.3,Win32,60,-0.157552083,-0.384114583,1,0,0,0.978985,scale,,,,,,0.326485712,0.264575131,0.21373507,0.173205081,stimuli/lakes/7080117_left.png,stimuli/lakes/7080117_right.png,,,,0,23,23,117,1,,,,,
,,,,,,,$5ec46292be5c9d19c799f50c,2020-07-21_15h59.39.349,fisher_task,2020.1.3,Win32,60,0.095052083,-0.28125,1,0,0,1.30005,scale,,,,,,0.326485712,0.264575131,0.21373507,0.173205081,stimuli/lakes/70108_left.png,stimuli/lakes/70108_right.png,,,,0,24,24,8,1,,,,,
,,,,,,,$5ec46292be5c9d19c799f50c,2020-07-21_15h59.39.349,fisher_task,2020.1.3,Win32,60,-0.12890625,-0.333333333,1,0,0,1.398835,scale,,,,,,0.21373507,0.173205081,0.326485712,0.264575131,stimuli/lakes/306082_left.png,stimuli/lakes/306082_right.png,,,,0,25,25,82,1,,,,,
,,,,,,,$5ec46292be5c9d19c799f50c,2020-07-21_15h59.39.349,fisher_task,2020.1.3,Win32,60,-0.15234375,-0.34765625,1,0,0,1.049065,scale,,,,,,0.275930788,0.223606798,0.275930788,0.223606798,stimuli/lakes/5090125_left.png,stimuli/lakes/5090125_right.png,,,,0,26,26,125,1,,,,,
,,,,,,,$5ec46292be5c9d19c799f50c,2020-07-21_15h59.39.349,fisher_task,2020.1.3,Win32,60,0.13671875,-0.348958333,1,0,0,0.365505,scale,,,,,,0.21373507,0.173205081,0.326485712,0.264575131,stimuli/lakes/303025_left.png,stimuli/lakes/303025_right.png,,,,0,27,27,25,1,,,,,
,,,,,,,$5ec46292be5c9d19c799f50c,2020-07-21_15h59.39.349,fisher_task,2020.1.3,Win32,60,-0.0546875,-0.279947917,1,0,0,0.398855,scale,,,,,,0.302267034,0.244948974,0.2468,0.2,stimuli/lakes/606085_left.png,stimuli/lakes/606085_right.png,,,,0,28,28,85,1,,,,,
,,,,,,,$5ec46292be5c9d19c799f50c,2020-07-21_15h59.39.349,fisher_task,2020.1.3,Win32,60,0.123697917,-0.291666667,1,0,0,0.84945,scale,,,,,,0.3702,0.3,0.1234,0.1,stimuli/lakes/902022_left.png,stimuli/lakes/902022_right.png,,,,0,29,29,22,1,,,,,
,,,,,,,$5ec46292be5c9d19c799f50c,2020-07-21_15h59.39.349,fisher_task,2020.1.3,Win32,60,-0.013020833,-0.243489583,1,0,0,1.032215,scale,,,,,,0.21373507,0.173205081,0.326485712,0.264575131,stimuli/lakes/305062_left.png,stimuli/lakes/305062_right.png,,,,0,30,30,62,1,,,,,
,,,,,,,$5ec46292be5c9d19c799f50c,2020-07-21_15h59.39.349,fisher_task,2020.1.3,Win32,60,0.106770833,-0.303385417,1,0,0,0.48268,scale,,,,,,0.2468,0.2,0.302267034,0.244948974,stimuli/lakes/4070101_left.png,stimuli/lakes/4070101_right.png,,,,0,31,31,101,1,,,,,
,,,,,,,$5ec46292be5c9d19c799f50c,2020-07-21_15h59.39.349,fisher_task,2020.1.3,Win32,60,0,-0.26953125,1,0,0,1.282525,scale,,,,,,0.3702,0.3,0.1234,0.1,stimuli/lakes/904049_left.png,stimuli/lakes/904049_right.png,,,,0,32,32,49,1,,,,,
,,,,,,,$5ec46292be5c9d19c799f50c,2020-07-21_15h59.39.349,fisher_task,2020.1.3,Win32,60,-0.15625,-0.364583333,1,0,0,1.04929,scale,,,,,,0.174513954,0.141421356,0.349027907,0.282842712,stimuli/lakes/2080108_left.png,stimuli/lakes/2080108_right.png,,,,0,33,33,108,1,,,,,
,,,,,,,$5ec46292be5c9d19c799f50c,2020-07-21_15h59.39.349,fisher_task,2020.1.3,Win32,60,-0.022135417,-0.2890625,1,0,0,0.88214,scale,,,,,,0.302267034,0.244948974,0.2468,0.2,stimuli/lakes/604046_left.png,stimuli/lakes/604046_right.png,,,,0,34,34,46,1,,,,,
,,,,,,,$5ec46292be5c9d19c799f50c,2020-07-21_15h59.39.349,fisher_task,2020.1.3,Win32,60,-0.140625,-0.358072917,1,0,0,1.097575,scale,,,,,,0.326485712,0.264575131,0.21373507,0.173205081,stimuli/lakes/7090129_left.png,stimuli/lakes/7090129_right.png,,,,0,35,35,129,1,,,,,
,,,,,,,$5ec46292be5c9d19c799f50c,2020-07-21_15h59.39.349,fisher_task,2020.1.3,Win32,60,0.067708333,-0.295572917,1,0,0,1.032795,scale,,,,,,0.2468,0.2,0.302267034,0.244948974,stimuli/lakes/403026_left.png,stimuli/lakes/403026_right.png,,,,0,36,36,26,1,,,,,
,,,,,,,$5ec46292be5c9d19c799f50c,2020-07-21_15h59.39.349,fisher_task,2020.1.3,Win32,60,0.102864583,-0.305989583,1,0,0,0.89753,scale,,,,,,0.3702,0.3,0.1234,0.1,stimuli/lakes/903040_left.png,stimuli/lakes/903040_right.png,,,,0,37,37,40,1,,,,,
,,,,,,,$5ec46292be5c9d19c799f50c,2020-07-21_15h59.39.349,fisher_task,2020.1.3,Win32,60,-0.127604167,-0.34375,1,0,0,1.381865,scale,,,,,,0.326485712,0.264575131,0.21373507,0.173205081,stimuli/lakes/705067_left.png,stimuli/lakes/705067_right.png,,,,0,38,38,67,1,,,,,
,,,,,,,$5ec46292be5c9d19c799f50c,2020-07-21_15h59.39.349,fisher_task,2020.1.3,Win32,60,0.114583333,-0.32421875,1,0,0,1.18315,scale,,,,,,0.349027907,0.282842712,0.174513954,0.141421356,stimuli/lakes/803039_left.png,stimuli/lakes/803039_right.png,,,,0,39,39,39,1,,,,,
,,,,,,,$5ec46292be5c9d19c799f50c,2020-07-21_15h59.39.349,fisher_task,2020.1.3,Win32,60,0.096354167,-0.307291667,1,0,0,0.848845,scale,,,,,,0.1234,0.1,0.3702,0.3,stimuli/lakes/103023_left.png,stimuli/lakes/103023_right.png,,,,0,40,40,23,1,,,,,
,,,,,,,$5ec46292be5c9d19c799f50c,2020-07-21_15h59.39.349,fisher_task,2020.1.3,Win32,60,-0.080729167,-0.305989583,1,0,0,1.06707,scale,,,,,,0.174513954,0.141421356,0.349027907,0.282842712,stimuli/lakes/205060_left.png,stimuli/lakes/205060_right.png,,,,0,41,41,60,1,,,,,
,,,,,,,$5ec46292be5c9d19c799f50c,2020-07-21_15h59.39.349,fisher_task,2020.1.3,Win32,60,-0.11328125,-0.317708333,1,0,0,1.082215,scale,,,,,,0.2468,0.2,0.302267034,0.244948974,stimuli/lakes/4080111_left.png,stimuli/lakes/4080111_right.png,,,,0,42,42,111,1,,,,,
,,,,,,,$5ec46292be5c9d19c799f50c,2020-07-21_15h59.39.349,fisher_task,2020.1.3,Win32,60,0.127604167,-0.3203125,1,0,0,1.214845,scale,,,,,,0.174513954,0.141421356,0.349027907,0.282842712,stimuli/lakes/202011_left.png,stimuli/lakes/202011_right.png,,,,0,43,43,11,1,,,,,
,,,,,,,$5ec46292be5c9d19c799f50c,2020-07-21_15h59.39.349,fisher_task,2020.1.3,Win32,60,-0.104166667,-0.3203125,1,0,0,2.164575,scale,,,,,,0.302267034,0.244948974,0.2468,0.2,stimuli/lakes/605066_left.png,stimuli/lakes/605066_right.png,,,space,0,44,44,66,1,2.845605,,,,
,,,,,,,$5ec46292be5c9d19c799f50c,2020-07-21_15h59.39.349,fisher_task,2020.1.3,Win32,60,0.10546875,-0.274739583,1,0,0,0.69946,scale,,,,,,0.326485712,0.264575131,0.21373507,0.173205081,stimuli/lakes/70107_left.png,stimuli/lakes/70107_right.png,,,,0,45,45,7,1,,,,,
,,,,,,,$5ec46292be5c9d19c799f50c,2020-07-21_15h59.39.349,fisher_task,2020.1.3,Win32,60,-0.009114583,-0.282552083,1,0,0,0.46531,scale,,,,,,0.275930788,0.223606798,0.275930788,0.223606798,stimuli/lakes/506084_left.png,stimuli/lakes/506084_right.png,,,,0,46,46,84,1,,,,,
,,,,,,,$5ec46292be5c9d19c799f50c,2020-07-21_15h59.39.349,fisher_task,2020.1.3,Win32,60,-0.095052083,-0.3125,1,0,0,0.96689,scale,,,,,,0.174513954,0.141421356,0.349027907,0.282842712,stimuli/lakes/206081_left.png,stimuli/lakes/206081_right.png,,,,0,47,47,81,1,,,,,
,,,,,,,$5ec46292be5c9d19c799f50c,2020-07-21_15h59.39.349,fisher_task,2020.1.3,Win32,60,-0.10546875,-0.317708333,1,0,0,0.69912,scale,,,,,,0.326485712,0.264575131,0.21373507,0.173205081,stimuli/lakes/705068_left.png,stimuli/lakes/705068_right.png,,,,0,48,48,68,1,,,,,
,,,,,,,$5ec46292be5c9d19c799f50c,2020-07-21_15h59.39.349,fisher_task,2020.1.3,Win32,60,-0.135416667,-0.294270833,1,0,0,6.749725,scale,,,,,,0.174513954,0.141421356,0.349027907,0.282842712,stimuli/lakes/207099_left.png,stimuli/lakes/207099_right.png,,,,0,49,49,99,1,,,,,
,,,,,,,$5ec46292be5c9d19c799f50c,2020-07-21_15h59.39.349,fisher_task,2020.1.3,Win32,60,0.026041667,-0.272135417,1,0,0,1.31443,scale,,,,,,0.1234,0.1,0.3702,0.3,stimuli/lakes/105059_left.png,stimuli/lakes/105059_right.png,,,,0,50,50,59,1,,,,,
,,,,,,,$5ec46292be5c9d19c799f50c,2020-07-21_15h59.39.349,fisher_task,2020.1.3,Win32,60,-0.095052083,-0.321614583,1,0,0,0.79987,scale,,,,,,0.326485712,0.264575131,0.21373507,0.173205081,stimuli/lakes/7080116_left.png,stimuli/lakes/7080116_right.png,,,,0,51,51,116,1,,,,,
,,,,,,,$5ec46292be5c9d19c799f50c,2020-07-21_15h59.39.349,fisher_task,2020.1.3,Win32,60,-0.114583333,-0.303385417,1,0,0,2.23162,scale,,,,,,0.275930788,0.223606798,0.275930788,0.223606798,stimuli/lakes/5080113_left.png,stimuli/lakes/5080113_right.png,,,,0,52,52,113,1,,,,,
,,,,,,,$5ec46292be5c9d19c799f50c,2020-07-21_15h59.39.349,fisher_task,2020.1.3,Win32,60,0.055989583,-0.2578125,1,0,0,1.14747,scale,,,,,,0.349027907,0.282842712,0.174513954,0.141421356,stimuli/lakes/804048_left.png,stimuli/lakes/804048_right.png,,,,0,53,53,48,1,,,,,
,,,,,,,$5ec46292be5c9d19c799f50c,2020-07-21_15h59.39.349,fisher_task,2020.1.3,Win32,60,-0.110677083,-0.3125,1,0,0,1.13362,scale,,,,,,0.3702,0.3,0.1234,0.1,stimuli/lakes/906079_left.png,stimuli/lakes/906079_right.png,,,,0,54,54,79,1,,,,,
,,,,,,,$5ec46292be5c9d19c799f50c,2020-07-21_15h59.39.349,fisher_task,2020.1.3,Win32,60,-0.131510417,-0.34765625,1,0,0,1.03228,scale,,,,,,0.1234,0.1,0.3702,0.3,stimuli/lakes/107098_left.png,stimuli/lakes/107098_right.png,,,,0,55,55,98,1,,,,,
,,,,,,,$5ec46292be5c9d19c799f50c,2020-07-21_15h59.39.349,fisher_task,2020.1.3,Win32,60,0.046875,-0.255208333,1,0,0,3.23377,scale,,,,,,0.349027907,0.282842712,0.174513954,0.141421356,stimuli/lakes/804057_left.png,stimuli/lakes/804057_right.png,,,,0,56,56,57,1,,,,,
,,,,,,,$5ec46292be5c9d19c799f50c,2020-07-21_15h59.39.349,fisher_task,2020.1.3,Win32,60,-0.013020833,-0.276041667,1,0,0,1.34842,scale,,,,,,0.2468,0.2,0.302267034,0.244948974,stimuli/lakes/405063_left.png,stimuli/lakes/405063_right.png,,,,0,57,57,63,1,,,,,
,,,,,,,$5ec46292be5c9d19c799f50c,2020-07-21_15h59.39.349,fisher_task,2020.1.3,Win32,60,0.108072917,-0.315104167,1,0,0,1.01621,scale,,,,,,0.1234,0.1,0.3702,0.3,stimuli/lakes/103032_left.png,stimuli/lakes/103032_right.png,,,,0,58,58,32,1,,,,,
,,,,,,,$5ec46292be5c9d19c799f50c,2020-07-21_15h59.39.349,fisher_task,2020.1.3,Win32,60,-0.07421875,-0.305989583,1,0,0,1.08195,scale,,,,,,0.302267034,0.244948974,0.2468,0.2,stimuli/lakes/6080115_left.png,stimuli/lakes/6080115_right.png,,,,0,59,59,115,1,,,,,
,,,,,,,$5ec46292be5c9d19c799f50c,2020-07-21_15h59.39.349,fisher_task,2020.1.3,Win32,60,-0.11328125,-0.352864583,1,0,0,1.232805,scale,,,,,,0.349027907,0.282842712,0.174513954,0.141421356,stimuli/lakes/807096_left.png,stimuli/lakes/807096_right.png,,,,0,60,60,96,1,,,,,
,,,,,,,$5ec46292be5c9d19c799f50c,2020-07-21_15h59.39.349,fisher_task,2020.1.3,Win32,60,-0.123697917,-0.338541667,1,0,0,0.99944,scale,,,,,,0.3702,0.3,0.1234,0.1,stimuli/lakes/9070106_left.png,stimuli/lakes/9070106_right.png,,,,0,61,61,106,1,,,,,
,,,,,,,$5ec46292be5c9d19c799f50c,2020-07-21_15h59.39.349,fisher_task,2020.1.3,Win32,60,0.053385417,-0.296875,1,0,0,0.91616,scale,,,,,,0.2468,0.2,0.302267034,0.244948974,stimuli/lakes/404044_left.png,stimuli/lakes/404044_right.png,,,,0,62,62,44,1,,,,,
,,,,,,,$5ec46292be5c9d19c799f50c,2020-07-21_15h59.39.349,fisher_task,2020.1.3,Win32,60,0.084635417,-0.305989583,1,0,0,0.94957,scale,,,,,,0.275930788,0.223606798,0.275930788,0.223606798,stimuli/lakes/502016_left.png,stimuli/lakes/502016_right.png,,,,0,63,63,16,1,,,,,
,,,,,,,$5ec46292be5c9d19c799f50c,2020-07-21_15h59.39.349,fisher_task,2020.1.3,Win32,60,0.098958333,-0.30078125,1,0,0,0.931705,scale,,,,,,0.2468,0.2,0.302267034,0.244948974,stimuli/lakes/405064_left.png,stimuli/lakes/405064_right.png,,,,0,64,64,64,1,,,,,
,,,,,,,$5ec46292be5c9d19c799f50c,2020-07-21_15h59.39.349,fisher_task,2020.1.3,Win32,60,-0.072916667,-0.319010417,1,0,0,0.9494,scale,,,,,,0.1234,0.1,0.3702,0.3,stimuli/lakes/106080_left.png,stimuli/lakes/106080_right.png,,,,0,65,65,80,1,,,,,
,,,,,,,$5ec46292be5c9d19c799f50c,2020-07-21_15h59.39.349,fisher_task,2020.1.3,Win32,60,0.109375,-0.2890625,1,0,0,6.200005,scale,,,,,,0.349027907,0.282842712,0.174513954,0.141421356,stimuli/lakes/80109_left.png,stimuli/lakes/80109_right.png,,,space,0,66,66,9,1,2.29447,,,,
,,,,,,,$5ec46292be5c9d19c799f50c,2020-07-21_15h59.39.349,fisher_task,2020.1.3,Win32,60,-0.127604167,-0.369791667,1,0,0,0.967045,scale,,,,,,0.326485712,0.264575131,0.21373507,0.173205081,stimuli/lakes/7070104_left.png,stimuli/lakes/7070104_right.png,,,,0,67,67,104,1,,,,,
,,,,,,,$5ec46292be5c9d19c799f50c,2020-07-21_15h59.39.349,fisher_task,2020.1.3,Win32,60,-0.109375,-0.302083333,1,0,0,0.8327,scale,,,,,,0.2468,0.2,0.302267034,0.244948974,stimuli/lakes/4090124_left.png,stimuli/lakes/4090124_right.png,,,,0,68,68,124,1,,,,,
,,,,,,,$5ec46292be5c9d19c799f50c,2020-07-21_15h59.39.349,fisher_task,2020.1.3,Win32,60,-0.119791667,-0.326822917,1,0,0,1.08358,scale,,,,,,0.2468,0.2,0.302267034,0.244948974,stimuli/lakes/406074_left.png,stimuli/lakes/406074_right.png,,,,0,69,69,74,1,,,,,
,,,,,,,$5ec46292be5c9d19c799f50c,2020-07-21_15h59.39.349,fisher_task,2020.1.3,Win32,60,-0.130208333,-0.345052083,1,0,0,1.03118,scale,,,,,,0.302267034,0.244948974,0.2468,0.2,stimuli/lakes/6080114_left.png,stimuli/lakes/6080114_right.png,,,,0,70,70,114,1,,,,,
,,,,,,,$5ec46292be5c9d19c799f50c,2020-07-21_15h59.39.349,fisher_task,2020.1.3,Win32,60,-0.080729167,-0.317708333,1,0,0,0.64897,scale,,,,,,0.302267034,0.244948974,0.2468,0.2,stimuli/lakes/607094_left.png,stimuli/lakes/607094_right.png,,,,0,71,71,94,1,,,,,
,,,,,,,$5ec46292be5c9d19c799f50c,2020-07-21_15h59.39.349,fisher_task,2020.1.3,Win32,60,0.114583333,-0.298177083,1,0,0,0.93142,scale,,,,,,0.326485712,0.264575131,0.21373507,0.173205081,stimuli/lakes/702020_left.png,stimuli/lakes/702020_right.png,,,,0,72,72,20,1,,,,,
,,,,,,,$5ec46292be5c9d19c799f50c,2020-07-21_15h59.39.349,fisher_task,2020.1.3,Win32,60,-0.118489583,-0.328125,1,0,0,0.76498,scale,,,,,,0.326485712,0.264575131,0.21373507,0.173205081,stimuli/lakes/7090128_left.png,stimuli/lakes/7090128_right.png,,,,0,73,73,128,1,,,,,
,,,,,,,$5ec46292be5c9d19c799f50c,2020-07-21_15h59.39.349,fisher_task,2020.1.3,Win32,60,-0.13671875,-0.334635417,1,0,0,1.565975,scale,,,,,,0.1234,0.1,0.3702,0.3,stimuli/lakes/106071_left.png,stimuli/lakes/106071_right.png,,,,0,74,74,71,1,,,,,
,,,,,,,$5ec46292be5c9d19c799f50c,2020-07-21_15h59.39.349,fisher_task,2020.1.3,Win32,60,0.100260417,-0.295572917,1,0,0,0.74719,scale,,,,,,0.174513954,0.141421356,0.349027907,0.282842712,stimuli/lakes/203033_left.png,stimuli/lakes/203033_right.png,,,,0,75,75,33,1,,,,,
,,,,,,,$5ec46292be5c9d19c799f50c,2020-07-21_15h59.39.349,fisher_task,2020.1.3,Win32,60,0.110677083,-0.2734375,1,0,0,0.63373,scale,,,,,,0.21373507,0.173205081,0.326485712,0.264575131,stimuli/lakes/302013_left.png,stimuli/lakes/302013_right.png,,,,0,76,76,13,1,,,,,
,,,,,,,$5ec46292be5c9d19c799f50c,2020-07-21_15h59.39.349,fisher_task,2020.1.3,Win32,60,0.114583333,-0.31640625,1,0,0,0.94861,scale,,,,,,0.3702,0.3,0.1234,0.1,stimuli/lakes/904058_left.png,stimuli/lakes/904058_right.png,,,,0,77,77,58,1,,,,,
,,,,,,,$5ec46292be5c9d19c799f50c,2020-07-21_15h59.39.349,fisher_task,2020.1.3,Win32,60,-0.149739583,-0.37890625,1,0,0,0.94935,scale,,,,,,0.1234,0.1,0.3702,0.3,stimuli/lakes/1080107_left.png,stimuli/lakes/1080107_right.png,,,,0,78,78,107,1,,,,,
,,,,,,,$5ec46292be5c9d19c799f50c,2020-07-21_15h59.39.349,fisher_task,2020.1.3,Win32,60,0.149739583,-0.3984375,1,0,0,0.91435,scale,,,,,,0.21373507,0.173205081,0.326485712,0.264575131,stimuli/lakes/302012_left.png,stimuli/lakes/302012_right.png,,,,0,79,79,12,1,,,,,
,,,,,,,$5ec46292be5c9d19c799f50c,2020-07-21_15h59.39.349,fisher_task,2020.1.3,Win32,60,-0.104166667,-0.3125,1,0,0,1.082655,scale,,,,,,0.349027907,0.282842712,0.174513954,0.141421356,stimuli/lakes/805069_left.png,stimuli/lakes/805069_right.png,,,,0,80,80,69,1,,,,,
,,,,,,,$5ec46292be5c9d19c799f50c,2020-07-21_15h59.39.349,fisher_task,2020.1.3,Win32,60,0.02734375,-0.287760417,1,0,0,0.66438,scale,,,,,,0.21373507,0.173205081,0.326485712,0.264575131,stimuli/lakes/30100_left.png,stimuli/lakes/30100_right.png,,,,0,81,81,0,1,,,,,
,,,,,,,$5ec46292be5c9d19c799f50c,2020-07-21_15h59.39.349,fisher_task,2020.1.3,Win32,60,0.024739583,-0.255208333,1,0,0,1.36559,scale,,,,,,0.1234,0.1,0.3702,0.3,stimuli/lakes/1090119_left.png,stimuli/lakes/1090119_right.png,,,,0,82,82,119,1,,,,,
,,,,,,,$5ec46292be5c9d19c799f50c,2020-07-21_15h59.39.349,fisher_task,2020.1.3,Win32,60,-0.14453125,-0.34765625,1,0,0,0.930955,scale,,,,,,0.21373507,0.173205081,0.326485712,0.264575131,stimuli/lakes/3070100_left.png,stimuli/lakes/3070100_right.png,,,,0,83,83,100,1,,,,,
,,,,,,,$5ec46292be5c9d19c799f50c,2020-07-21_15h59.39.349,fisher_task,2020.1.3,Win32,60,-0.115885417,-0.309895833,1,0,0,0.61681,scale,,,,,,0.3702,0.3,0.1234,0.1,stimuli/lakes/905070_left.png,stimuli/lakes/905070_right.png,,,,0,84,84,70,1,,,,,
,,,,,,,$5ec46292be5c9d19c799f50c,2020-07-21_15h59.39.349,fisher_task,2020.1.3,Win32,60,0.032552083,-0.236979167,1,0,0,0.398285,scale,,,,,,0.275930788,0.223606798,0.275930788,0.223606798,stimuli/lakes/507093_left.png,stimuli/lakes/507093_right.png,,,,0,85,85,93,1,,,,,
,,,,,,,$5ec46292be5c9d19c799f50c,2020-07-21_15h59.39.349,fisher_task,2020.1.3,Win32,60,-0.053385417,-0.263020833,1,0,0,0.74773,scale,,,,,,0.2468,0.2,0.302267034,0.244948974,stimuli/lakes/4080112_left.png,stimuli/lakes/4080112_right.png,,,,0,86,86,112,1,,,,,
,,,,,,,$5ec46292be5c9d19c799f50c,2020-07-21_15h59.39.349,fisher_task,2020.1.3,Win32,60,0.171875,-0.393229167,1,0,0,1.06498,scale,,,,,,0.2468,0.2,0.302267034,0.244948974,stimuli/lakes/40103_left.png,stimuli/lakes/40103_right.png,,,,0,87,87,3,1,,,,,
,,,,,,,$5ec46292be5c9d19c799f50c,2020-07-21_15h59.39.349,fisher_task,2020.1.3,Win32,60,0.0859375,-0.248697917,1,0,0,0.61695,scale,,,,,,0.21373507,0.173205081,0.326485712,0.264575131,stimuli/lakes/30101_left.png,stimuli/lakes/30101_right.png,,,space,0,88,88,1,1,1.6649,,,,
,,,,,,,$5ec46292be5c9d19c799f50c,2020-07-21_15h59.39.349,fisher_task,2020.1.3,Win32,60,0.1640625,-0.393229167,1,0,0,0.88266,scale,,,,,,0.174513954,0.141421356,0.349027907,0.282842712,stimuli/lakes/203024_left.png,stimuli/lakes/203024_right.png,,,,0,89,89,24,1,,,,,
,,,,,,,$5ec46292be5c9d19c799f50c,2020-07-21_15h59.39.349,fisher_task,2020.1.3,Win32,60,-0.182291667,-0.393229167,1,0,0,0.9164,scale,,,,,,0.302267034,0.244948974,0.2468,0.2,stimuli/lakes/6090126_left.png,stimuli/lakes/6090126_right.png,,,,0,90,90,126,1,,,,,
,,,,,,,$5ec46292be5c9d19c799f50c,2020-07-21_15h59.39.349,fisher_task,2020.1.3,Win32,60,-0.151041667,-0.404947917,1,0,0,0.93487,scale,,,,,,0.3702,0.3,0.1234,0.1,stimuli/lakes/907097_left.png,stimuli/lakes/907097_right.png,,,,0,91,91,97,1,,,,,
,,,,,,,$5ec46292be5c9d19c799f50c,2020-07-21_15h59.39.349,fisher_task,2020.1.3,Win32,60,-0.118489583,-0.34375,1,0,0,1.4829,scale,,,,,,0.21373507,0.173205081,0.326485712,0.264575131,stimuli/lakes/307091_left.png,stimuli/lakes/307091_right.png,,,,0,92,92,91,1,,,,,
,,,,,,,$5ec46292be5c9d19c799f50c,2020-07-21_15h59.39.349,fisher_task,2020.1.3,Win32,60,0.12890625,-0.326822917,1,0,0,1.081855,scale,,,,,,0.3702,0.3,0.1234,0.1,stimuli/lakes/903031_left.png,stimuli/lakes/903031_right.png,,,,0,93,93,31,1,,,,,
,,,,,,,$5ec46292be5c9d19c799f50c,2020-07-21_15h59.39.349,fisher_task,2020.1.3,Win32,60,-0.12890625,-0.375,1,0,0,0.96611,scale,,,,,,0.21373507,0.173205081,0.326485712,0.264575131,stimuli/lakes/3090121_left.png,stimuli/lakes/3090121_right.png,,,,0,94,94,121,1,,,,,
,,,,,,,$5ec46292be5c9d19c799f50c,2020-07-21_15h59.39.349,fisher_task,2020.1.3,Win32,60,0.028645833,-0.296875,1,0,0,0.96609,scale,,,,,,0.326485712,0.264575131,0.21373507,0.173205081,stimuli/lakes/703029_left.png,stimuli/lakes/703029_right.png,,,,0,95,95,29,1,,,,,
,,,,,,,$5ec46292be5c9d19c799f50c,2020-07-21_15h59.39.349,fisher_task,2020.1.3,Win32,60,0.114583333,-0.3046875,1,0,0,1.598775,scale,,,,,,0.1234,0.1,0.3702,0.3,stimuli/lakes/104050_left.png,stimuli/lakes/104050_right.png,,,,0,96,96,50,1,,,,,
,,,,,,,$5ec46292be5c9d19c799f50c,2020-07-21_15h59.39.349,fisher_task,2020.1.3,Win32,60,0.115885417,-0.3046875,1,0,0,0.616155,scale,,,,,,0.326485712,0.264575131,0.21373507,0.173205081,stimuli/lakes/702019_left.png,stimuli/lakes/702019_right.png,,,,0,97,97,19,1,,,,,
,,,,,,,$5ec46292be5c9d19c799f50c,2020-07-21_15h59.39.349,fisher_task,2020.1.3,Win32,60,-0.024739583,-0.26171875,1,0,0,1.165855,scale,,,,,,0.302267034,0.244948974,0.2468,0.2,stimuli/lakes/602018_left.png,stimuli/lakes/602018_right.png,,,,0,98,98,18,1,,,,,
,,,,,,,$5ec46292be5c9d19c799f50c,2020-07-21_15h59.39.349,fisher_task,2020.1.3,Win32,60,0.122395833,-0.317708333,1,0,0,1.23387,scale,,,,,,0.2468,0.2,0.302267034,0.244948974,stimuli/lakes/403035_left.png,stimuli/lakes/403035_right.png,,,,0,99,99,35,1,,,,,
,,,,,,,$5ec46292be5c9d19c799f50c,2020-07-21_15h59.39.349,fisher_task,2020.1.3,Win32,60,0.05859375,-0.28515625,1,0,0,0.915375,scale,,,,,,0.21373507,0.173205081,0.326485712,0.264575131,stimuli/lakes/305061_left.png,stimuli/lakes/305061_right.png,,,,0,100,100,61,1,,,,,
,,,,,,,$5ec46292be5c9d19c799f50c,2020-07-21_15h59.39.349,fisher_task,2020.1.3,Win32,60,0.149739583,-0.294270833,1,0,0,1.01533,scale,,,,,,0.302267034,0.244948974,0.2468,0.2,stimuli/lakes/602017_left.png,stimuli/lakes/602017_right.png,,,,0,101,101,17,1,,,,,
,,,,,,,$5ec46292be5c9d19c799f50c,2020-07-21_15h59.39.349,fisher_task,2020.1.3,Win32,60,-0.08203125,-0.276041667,1,0,0,0.58261,scale,,,,,,0.349027907,0.282842712,0.174513954,0.141421356,stimuli/lakes/8070105_left.png,stimuli/lakes/8070105_right.png,,,,0,102,102,105,1,,,,,
,,,,,,,$5ec46292be5c9d19c799f50c,2020-07-21_15h59.39.349,fisher_task,2020.1.3,Win32,60,0.049479167,-0.282552083,1,0,0,0.94858,scale,,,,,,0.302267034,0.244948974,0.2468,0.2,stimuli/lakes/603037_left.png,stimuli/lakes/603037_right.png,,,,0,103,103,37,1,,,,,
,,,,,,,$5ec46292be5c9d19c799f50c,2020-07-21_15h59.39.349,fisher_task,2020.1.3,Win32,60,-0.108072917,-0.307291667,1,0,0,0.65014,scale,,,,,,0.275930788,0.223606798,0.275930788,0.223606798,stimuli/lakes/504054_left.png,stimuli/lakes/504054_right.png,,,,0,104,104,54,1,,,,,
,,,,,,,$5ec46292be5c9d19c799f50c,2020-07-21_15h59.39.349,fisher_task,2020.1.3,Win32,60,-0.100260417,-0.309895833,1,0,0,0.449625,scale,,,,,,0.275930788,0.223606798,0.275930788,0.223606798,stimuli/lakes/506075_left.png,stimuli/lakes/506075_right.png,,,,0,105,105,75,1,,,,,
,,,,,,,$5ec46292be5c9d19c799f50c,2020-07-21_15h59.39.349,fisher_task,2020.1.3,Win32,60,0.131510417,-0.326822917,1,0,0,0.932215,scale,,,,,,0.302267034,0.244948974,0.2468,0.2,stimuli/lakes/60105_left.png,stimuli/lakes/60105_right.png,,,,0,106,106,5,1,,,,,
,,,,,,,$5ec46292be5c9d19c799f50c,2020-07-21_15h59.39.349,fisher_task,2020.1.3,Win32,60,-0.0546875,-0.286458333,1,0,0,1.5813,scale,,,,,,0.21373507,0.173205081,0.326485712,0.264575131,stimuli/lakes/306073_left.png,stimuli/lakes/306073_right.png,,,,0,107,107,73,1,,,,,
,,,,,,,$5ec46292be5c9d19c799f50c,2020-07-21_15h59.39.349,fisher_task,2020.1.3,Win32,60,-0.044270833,-0.322916667,1,0,0,0.58323,scale,,,,,,0.302267034,0.244948974,0.2468,0.2,stimuli/lakes/605065_left.png,stimuli/lakes/605065_right.png,,,,0,108,108,65,1,,,,,
,,,,,,,$5ec46292be5c9d19c799f50c,2020-07-21_15h59.39.349,fisher_task,2020.1.3,Win32,60,-0.0234375,-0.326822917,1,0,0,0.680695,scale,,,,,,0.2468,0.2,0.302267034,0.244948974,stimuli/lakes/404053_left.png,stimuli/lakes/404053_right.png,,,,0,109,109,53,1,,,,,
,,,,,,,$5ec46292be5c9d19c799f50c,2020-07-21_15h59.39.349,fisher_task,2020.1.3,Win32,60,-0.09375,-0.37109375,1,0,0,0.832835,scale,,,,,,0.2468,0.2,0.302267034,0.244948974,stimuli/lakes/407092_left.png,stimuli/lakes/407092_right.png,,,space,0,110,110,92,1,1.474755,,,,
,,,,,,,$5ec46292be5c9d19c799f50c,2020-07-21_15h59.39.349,fisher_task,2020.1.3,Win32,60,0.013020833,-0.30859375,1,0,0,0.76497,scale,,,,,,0.349027907,0.282842712,0.174513954,0.141421356,stimuli/lakes/806087_left.png,stimuli/lakes/806087_right.png,,,,0,111,111,87,1,,,,,
,,,,,,,$5ec46292be5c9d19c799f50c,2020-07-21_15h59.39.349,fisher_task,2020.1.3,Win32,60,0.13671875,-0.279947917,1,0,0,0.68336,scale,,,,,,0.275930788,0.223606798,0.275930788,0.223606798,stimuli/lakes/503036_left.png,stimuli/lakes/503036_right.png,,,,0,112,112,36,1,,,,,
,,,,,,,$5ec46292be5c9d19c799f50c,2020-07-21_15h59.39.349,fisher_task,2020.1.3,Win32,60,-0.149739583,-0.352864583,1,0,0,0.84685,scale,,,,,,0.349027907,0.282842712,0.174513954,0.141421356,stimuli/lakes/8080118_left.png,stimuli/lakes/8080118_right.png,,,,0,113,113,118,1,,,,,
,,,,,,,$5ec46292be5c9d19c799f50c,2020-07-21_15h59.39.349,fisher_task,2020.1.3,Win32,60,-0.079427083,-0.342447917,1,0,0,0.64942,scale,,,,,,0.21373507,0.173205081,0.326485712,0.264575131,stimuli/lakes/3080110_left.png,stimuli/lakes/3080110_right.png,,,,0,114,114,110,1,,,,,
,,,,,,,$5ec46292be5c9d19c799f50c,2020-07-21_15h59.39.349,fisher_task,2020.1.3,Win32,60,0.096354167,-0.309895833,1,0,0,0.86726,scale,,,,,,0.302267034,0.244948974,0.2468,0.2,stimuli/lakes/60106_left.png,stimuli/lakes/60106_right.png,,,,0,115,115,6,1,,,,,
,,,,,,,$5ec46292be5c9d19c799f50c,2020-07-21_15h59.39.349,fisher_task,2020.1.3,Win32,60,0.118489583,-0.317708333,1,0,0,0.69949,scale,,,,,,0.174513954,0.141421356,0.349027907,0.282842712,stimuli/lakes/204051_left.png,stimuli/lakes/204051_right.png,,,,0,116,116,51,1,,,,,
,,,,,,,$5ec46292be5c9d19c799f50c,2020-07-21_15h59.39.349,fisher_task,2020.1.3,Win32,60,0.174479167,-0.356770833,1,0,0,0.83275,scale,,,,,,0.174513954,0.141421356,0.349027907,0.282842712,stimuli/lakes/204042_left.png,stimuli/lakes/204042_right.png,,,,0,117,117,42,1,,,,,
,,,,,,,$5ec46292be5c9d19c799f50c,2020-07-21_15h59.39.349,fisher_task,2020.1.3,Win32,60,-0.135416667,-0.354166667,1,0,0,0.99766,scale,,,,,,0.174513954,0.141421356,0.349027907,0.282842712,stimuli/lakes/207090_left.png,stimuli/lakes/207090_right.png,,,,0,118,118,90,1,,,,,
,,,,,,,$5ec46292be5c9d19c799f50c,2020-07-21_15h59.39.349,fisher_task,2020.1.3,Win32,60,-0.139322917,-0.319010417,1,0,0,7.197965,scale,,,,,,0.302267034,0.244948974,0.2468,0.2,stimuli/lakes/6090127_left.png,stimuli/lakes/6090127_right.png,,,,0,119,119,127,1,,,,,
,,,,,,,$5ec46292be5c9d19c799f50c,2020-07-21_15h59.39.349,fisher_task,2020.1.3,Win32,60,-0.08984375,-0.359375,1,0,0,0.69974,scale,,,,,,0.2468,0.2,0.302267034,0.244948974,stimuli/lakes/406083_left.png,stimuli/lakes/406083_right.png,,,,0,120,120,83,1,,,,,
,,,,,,,$5ec46292be5c9d19c799f50c,2020-07-21_15h59.39.349,fisher_task,2020.1.3,Win32,60,-0.075520833,-0.244791667,1,0,0,0.782555,scale,,,,,,0.302267034,0.244948974,0.2468,0.2,stimuli/lakes/604055_left.png,stimuli/lakes/604055_right.png,,,,0,121,121,55,1,,,,,
,,,,,,,$5ec46292be5c9d19c799f50c,2020-07-21_15h59.39.349,fisher_task,2020.1.3,Win32,60,0.014322917,-0.3046875,1,0,0,1.215895,scale,,,,,,0.326485712,0.264575131,0.21373507,0.173205081,stimuli/lakes/706077_left.png,stimuli/lakes/706077_right.png,,,,0,122,122,77,1,,,,,
,,,,,,,$5ec46292be5c9d19c799f50c,2020-07-21_15h59.39.349,fisher_task,2020.1.3,Win32,60,0.0859375,-0.276041667,1,0,0,1.01641,scale,,,,,,0.275930788,0.223606798,0.275930788,0.223606798,stimuli/lakes/504045_left.png,stimuli/lakes/504045_right.png,,,,0,123,123,45,1,,,,,
,,,,,,,$5ec46292be5c9d19c799f50c,2020-07-21_15h59.39.349,fisher_task,2020.1.3,Win32,60,-0.143229167,-0.358072917,1,0,0,1.64875,scale,,,,,,0.21373507,0.173205081,0.326485712,0.264575131,stimuli/lakes/3090122_left.png,stimuli/lakes/3090122_right.png,,,,0,124,124,122,1,,,,,
,,,,,,,$5ec46292be5c9d19c799f50c,2020-07-21_15h59.39.349,fisher_task,2020.1.3,Win32,60,0.071614583,-0.296875,1,0,0,0.781535,scale,,,,,,0.2468,0.2,0.302267034,0.244948974,stimuli/lakes/40102_left.png,stimuli/lakes/40102_right.png,,,,0,125,125,2,1,,,,,
,,,,,,,$5ec46292be5c9d19c799f50c,2020-07-21_15h59.39.349,fisher_task,2020.1.3,Win32,60,-0.138020833,-0.2890625,1,0,0,0.915645,scale,,,,,,0.21373507,0.173205081,0.326485712,0.264575131,stimuli/lakes/3080109_left.png,stimuli/lakes/3080109_right.png,,,,0,126,126,109,1,,,,,
,,,,,,,$5ec46292be5c9d19c799f50c,2020-07-21_15h59.39.349,fisher_task,2020.1.3,Win32,60,-0.03515625,-0.28515625,1,0,0,0.514975,scale,,,,,,0.3702,0.3,0.1234,0.1,stimuli/lakes/906088_left.png,stimuli/lakes/906088_right.png,,,,0,127,127,88,1,,,,,
,,,,,,,$5ec46292be5c9d19c799f50c,2020-07-21_15h59.39.349,fisher_task,2020.1.3,Win32,60,0.09375,-0.348958333,1,0,0,0.96568,scale,,,,,,0.21373507,0.173205081,0.326485712,0.264575131,stimuli/lakes/303034_left.png,stimuli/lakes/303034_right.png,,,,0,128,128,34,1,,,,,
,,,,,,,$5ec46292be5c9d19c799f50c,2020-07-21_15h59.39.349,fisher_task,2020.1.3,Win32,60,0.125,-0.3203125,1,0,0,0.599715,scale,,,,,,0.21373507,0.173205081,0.326485712,0.264575131,stimuli/lakes/304052_left.png,stimuli/lakes/304052_right.png,,,,0,129,129,52,1,,,,,
,,,,,,,$5ec46292be5c9d19c799f50c,2020-07-21_15h59.39.349,fisher_task,2020.1.3,Win32,60,,,,,,,,,,,,,,,,,,,,,,,,,,,,space,8.902915,space,3.68477
