keySpace.keys,instructions.thisRepN,instructions.thisTrialN,instructions.thisN,instructions.thisIndex,instructions.ran,participant,date,expName,psychopyVersion,OS,frameRate,mouse.x,mouse.y,mouse.leftButton,mouse.midButton,mouse.rightButton,mouse.time,mouse.clicked_name,training.thisRepN,training.thisTrialN,training.thisN,training.thisIndex,training.ran,widthBasketLeft,heightBasketLeft,widthBasketRight,heightBasketRight,leftLake,rightLake,space2.keys,space2.rt,space1.keys,trials.thisRepN,trials.thisTrialN,trials.thisN,trials.thisIndex,trials.ran,space1.rt,finalSpace1.keys,finalSpace1.rt,finalSpace2.keys,finalSpace2.rt
,0,0,0,0,1,$5e07cafddeea2b1375930556,2020-07-21_17h10.34.805,fisher_task,2020.1.3,MacIntel,60,,,,,,,,,,,,,,,,,,,,,,,,,,,,,,,
,,,,,,$5e07cafddeea2b1375930556,2020-07-21_17h10.34.805,fisher_task,2020.1.3,MacIntel,60,0.147052951,-0.339800347,1,0,0,4.98371,scale,0,0,0,0,1,0.275930788,0.223606798,0.275930788,0.223606798,stimuli/training/20_left.png,stimuli/training/20_right.png,,,,,,,,,,,,,
,,,,,,$5e07cafddeea2b1375930556,2020-07-21_17h10.34.805,fisher_task,2020.1.3,MacIntel,60,-0.156805556,-0.384188368,1,0,0,2.101865,scale,0,1,1,1,1,0.275930788,0.223606798,0.275930788,0.223606798,stimuli/training/80_left.png,stimuli/training/80_right.png,,,,,,,,,,,,,
,,,,,,$5e07cafddeea2b1375930556,2020-07-21_17h10.34.805,fisher_task,2020.1.3,MacIntel,60,0.149613715,-0.374505208,1,0,0,1.54865,scale,0,2,2,2,1,0.174513954,0.141421356,0.349027907,0.282842712,stimuli/training/50_left.png,stimuli/training/50_right.png,,,,,,,,,,,,,
,,,,,,$5e07cafddeea2b1375930556,2020-07-21_17h10.34.805,fisher_task,2020.1.3,MacIntel,60,-0.128480903,-0.328315972,1,0,0,1.916965,scale,0,3,3,3,1,0.349027907,0.282842712,0.174513954,0.141421356,stimuli/training/50_left.png,stimuli/training/50_right.png,,,,,,,,,,,,,
,,,,,,$5e07cafddeea2b1375930556,2020-07-21_17h10.34.805,fisher_task,2020.1.3,MacIntel,60,-0.003289931,-0.250403646,1,0,0,1.38245,scale,0,4,4,4,1,0.275930788,0.223606798,0.275930788,0.223606798,stimuli/training/50_left.png,stimuli/training/50_right.png,,,,,,,,,,,,,
,,,,,,$5e07cafddeea2b1375930556,2020-07-21_17h10.34.805,fisher_task,2020.1.3,MacIntel,60,0.168719618,-0.413138021,1,0,0,1.397855,scale,0,5,5,5,1,0.174513954,0.141421356,0.349027907,0.282842712,stimuli/training/20_left.png,stimuli/training/20_right.png,,,,,,,,,,,,,
,,,,,,$5e07cafddeea2b1375930556,2020-07-21_17h10.34.805,fisher_task,2020.1.3,MacIntel,60,-0.166679688,-0.415685764,1,0,0,1.53342,scale,0,6,6,6,1,0.349027907,0.282842712,0.174513954,0.141421356,stimuli/training/80_left.png,stimuli/training/80_right.png,,,,,,,,,,,,,
,,,,,,$5e07cafddeea2b1375930556,2020-07-21_17h10.34.805,fisher_task,2020.1.3,MacIntel,60,0.159887153,-0.396015625,1,0,0,1.99814,scale,0,7,7,7,1,0.1234,0.1,0.3702,0.3,stimuli/training/30_left.png,stimuli/training/30_right.png,,,,,,,,,,,,,
,,,,,,$5e07cafddeea2b1375930556,2020-07-21_17h10.34.805,fisher_task,2020.1.3,MacIntel,60,-0.179960938,-0.385837674,1,0,0,2.097025,scale,0,8,8,8,1,0.3702,0.3,0.1234,0.1,stimuli/training/70_left.png,stimuli/training/70_right.png,,,,,,,,,,,,,
,,,,,,$5e07cafddeea2b1375930556,2020-07-21_17h10.34.805,fisher_task,2020.1.3,MacIntel,60,-0.173875868,-0.431375868,1,0,0,1.28242,scale,0,9,9,9,1,0.326485712,0.264575131,0.21373507,0.173205081,stimuli/training/90_left.png,stimuli/training/90_right.png,,,,,,,,,,,,,
,,,,,,$5e07cafddeea2b1375930556,2020-07-21_17h10.34.805,fisher_task,2020.1.3,MacIntel,60,0.157877604,-0.433407118,1,0,0,1.449305,scale,0,10,10,10,1,0.21373507,0.173205081,0.326485712,0.264575131,stimuli/training/10_left.png,stimuli/training/10_right.png,,,,,,,,,,,,,
,,,,,,$5e07cafddeea2b1375930556,2020-07-21_17h10.34.805,fisher_task,2020.1.3,MacIntel,60,0.051532118,-0.259509549,1,0,0,3.88305,scale,,,,,,0.302267034,0.244948974,0.2468,0.2,stimuli/lakes/60106_left.png,stimuli/lakes/60106_right.png,space,5.712415,,0,0,0,6,1,,,,,
,,,,,,$5e07cafddeea2b1375930556,2020-07-21_17h10.34.805,fisher_task,2020.1.3,MacIntel,60,0.051532118,-0.259509549,1,0,0,1.2676,scale,,,,,,0.302267034,0.244948974,0.2468,0.2,stimuli/lakes/603028_left.png,stimuli/lakes/603028_right.png,,,,0,1,1,28,1,,,,,
,,,,,,$5e07cafddeea2b1375930556,2020-07-21_17h10.34.805,fisher_task,2020.1.3,MacIntel,60,0.104431424,-0.309661458,1,0,0,1.29956,scale,,,,,,0.174513954,0.141421356,0.349027907,0.282842712,stimuli/lakes/205060_left.png,stimuli/lakes/205060_right.png,,,,0,2,2,60,1,,,,,
,,,,,,$5e07cafddeea2b1375930556,2020-07-21_17h10.34.805,fisher_task,2020.1.3,MacIntel,60,0.067565104,-0.274926215,1,0,0,2.235435,scale,,,,,,0.2468,0.2,0.302267034,0.244948974,stimuli/lakes/405064_left.png,stimuli/lakes/405064_right.png,,,,0,3,3,64,1,,,,,
,,,,,,$5e07cafddeea2b1375930556,2020-07-21_17h10.34.805,fisher_task,2020.1.3,MacIntel,60,-0.088085938,-0.27937066,1,0,0,1.59742,scale,,,,,,0.326485712,0.264575131,0.21373507,0.173205081,stimuli/lakes/703038_left.png,stimuli/lakes/703038_right.png,,,,0,4,4,38,1,,,,,
,,,,,,$5e07cafddeea2b1375930556,2020-07-21_17h10.34.805,fisher_task,2020.1.3,MacIntel,60,0.006258681,-0.251844618,1,0,0,2.600085,scale,,,,,,0.2468,0.2,0.302267034,0.244948974,stimuli/lakes/4090123_left.png,stimuli/lakes/4090123_right.png,,,,0,5,5,123,1,,,,,
,,,,,,$5e07cafddeea2b1375930556,2020-07-21_17h10.34.805,fisher_task,2020.1.3,MacIntel,60,0.006258681,-0.251844618,1,0,0,2.29896,scale,,,,,,0.3702,0.3,0.1234,0.1,stimuli/lakes/904049_left.png,stimuli/lakes/904049_right.png,,,,0,6,6,49,1,,,,,
,,,,,,$5e07cafddeea2b1375930556,2020-07-21_17h10.34.805,fisher_task,2020.1.3,MacIntel,60,0.005386285,-0.251844618,1,0,0,2.99984,scale,,,,,,0.302267034,0.244948974,0.2468,0.2,stimuli/lakes/604055_left.png,stimuli/lakes/604055_right.png,,,,0,7,7,55,1,,,,,
,,,,,,$5e07cafddeea2b1375930556,2020-07-21_17h10.34.805,fisher_task,2020.1.3,MacIntel,60,0.135095486,-0.3715625,1,0,0,1.24957,scale,,,,,,0.21373507,0.173205081,0.326485712,0.264575131,stimuli/lakes/302012_left.png,stimuli/lakes/302012_right.png,,,,0,8,8,12,1,,,,,
,,,,,,$5e07cafddeea2b1375930556,2020-07-21_17h10.34.805,fisher_task,2020.1.3,MacIntel,60,-0.138355035,-0.315989583,1,0,0,1.733135,scale,,,,,,0.275930788,0.223606798,0.275930788,0.223606798,stimuli/lakes/5070102_left.png,stimuli/lakes/5070102_right.png,,,,0,9,9,102,1,,,,,
,,,,,,$5e07cafddeea2b1375930556,2020-07-21_17h10.34.805,fisher_task,2020.1.3,MacIntel,60,0.150525174,-0.386697049,1,0,0,1.73198,scale,,,,,,0.174513954,0.141421356,0.349027907,0.282842712,stimuli/lakes/204042_left.png,stimuli/lakes/204042_right.png,,,,0,10,10,42,1,,,,,
,,,,,,$5e07cafddeea2b1375930556,2020-07-21_17h10.34.805,fisher_task,2020.1.3,MacIntel,60,0.023546007,-0.259813368,1,0,0,1.48598,scale,,,,,,0.1234,0.1,0.3702,0.3,stimuli/lakes/107098_left.png,stimuli/lakes/107098_right.png,,,,0,11,11,98,1,,,,,
,,,,,,$5e07cafddeea2b1375930556,2020-07-21_17h10.34.805,fisher_task,2020.1.3,MacIntel,60,-0.077921007,-0.267638889,1,0,0,1.533155,scale,,,,,,0.326485712,0.264575131,0.21373507,0.173205081,stimuli/lakes/706077_left.png,stimuli/lakes/706077_right.png,,,,0,12,12,77,1,,,,,
,,,,,,$5e07cafddeea2b1375930556,2020-07-21_17h10.34.805,fisher_task,2020.1.3,MacIntel,60,-0.169201389,-0.403138021,1,0,0,1.298335,scale,,,,,,0.326485712,0.264575131,0.21373507,0.173205081,stimuli/lakes/7080116_left.png,stimuli/lakes/7080116_right.png,,,,0,13,13,116,1,,,,,
,,,,,,$5e07cafddeea2b1375930556,2020-07-21_17h10.34.805,fisher_task,2020.1.3,MacIntel,60,-0.015282118,-0.259461806,1,0,0,1.5848,scale,,,,,,0.3702,0.3,0.1234,0.1,stimuli/lakes/903031_left.png,stimuli/lakes/903031_right.png,,,,0,14,14,31,1,,,,,
,,,,,,$5e07cafddeea2b1375930556,2020-07-21_17h10.34.805,fisher_task,2020.1.3,MacIntel,60,0.023628472,-0.262434896,1,0,0,1.55103,scale,,,,,,0.2468,0.2,0.302267034,0.244948974,stimuli/lakes/405063_left.png,stimuli/lakes/405063_right.png,,,,0,15,15,63,1,,,,,
,,,,,,$5e07cafddeea2b1375930556,2020-07-21_17h10.34.805,fisher_task,2020.1.3,MacIntel,60,0.160360243,-0.421866319,1,0,0,1.581845,scale,,,,,,0.1234,0.1,0.3702,0.3,stimuli/lakes/103032_left.png,stimuli/lakes/103032_right.png,,,,0,16,16,32,1,,,,,
,,,,,,$5e07cafddeea2b1375930556,2020-07-21_17h10.34.805,fisher_task,2020.1.3,MacIntel,60,-0.022057292,-0.265273437,1,0,0,1.48325,scale,,,,,,0.1234,0.1,0.3702,0.3,stimuli/lakes/1080107_left.png,stimuli/lakes/1080107_right.png,,,,0,17,17,107,1,,,,,
,,,,,,$5e07cafddeea2b1375930556,2020-07-21_17h10.34.805,fisher_task,2020.1.3,MacIntel,60,-0.171210937,-0.425416667,1,0,0,1.78394,scale,,,,,,0.3702,0.3,0.1234,0.1,stimuli/lakes/9070106_left.png,stimuli/lakes/9070106_right.png,,,,0,18,18,106,1,,,,,
,,,,,,$5e07cafddeea2b1375930556,2020-07-21_17h10.34.805,fisher_task,2020.1.3,MacIntel,60,0.086362847,-0.290594618,1,0,0,1.36747,scale,,,,,,0.275930788,0.223606798,0.275930788,0.223606798,stimuli/lakes/503036_left.png,stimuli/lakes/503036_right.png,,,,0,19,19,36,1,,,,,
,,,,,,$5e07cafddeea2b1375930556,2020-07-21_17h10.34.805,fisher_task,2020.1.3,MacIntel,60,-0.076822917,-0.273467882,1,0,0,1.76591,scale,,,,,,0.302267034,0.244948974,0.2468,0.2,stimuli/lakes/606085_left.png,stimuli/lakes/606085_right.png,,,,0,20,20,85,1,,,,,
,,,,,,$5e07cafddeea2b1375930556,2020-07-21_17h10.34.805,fisher_task,2020.1.3,MacIntel,60,-0.154392361,-0.364722222,1,0,0,1.549765,scale,,,,,,0.349027907,0.282842712,0.174513954,0.141421356,stimuli/lakes/8070105_left.png,stimuli/lakes/8070105_right.png,,,,0,21,21,105,1,,,,,
,,,,,,$5e07cafddeea2b1375930556,2020-07-21_17h10.34.805,fisher_task,2020.1.3,MacIntel,60,0.115564236,-0.311792535,1,0,0,5.551255,scale,,,,,,0.326485712,0.264575131,0.21373507,0.173205081,stimuli/lakes/702019_left.png,stimuli/lakes/702019_right.png,,,space,0,22,22,19,1,2.983645,,,,
,,,,,,$5e07cafddeea2b1375930556,2020-07-21_17h10.34.805,fisher_task,2020.1.3,MacIntel,60,-0.105733507,-0.284097222,1,0,0,2.983505,scale,,,,,,0.326485712,0.264575131,0.21373507,0.173205081,stimuli/lakes/707095_left.png,stimuli/lakes/707095_right.png,,,,0,23,23,95,1,,,,,
,,,,,,$5e07cafddeea2b1375930556,2020-07-21_17h10.34.805,fisher_task,2020.1.3,MacIntel,60,-0.16405816,-0.39640625,1,0,0,1.14943,scale,,,,,,0.349027907,0.282842712,0.174513954,0.141421356,stimuli/lakes/8080118_left.png,stimuli/lakes/8080118_right.png,,,,0,24,24,118,1,,,,,
,,,,,,$5e07cafddeea2b1375930556,2020-07-21_17h10.34.805,fisher_task,2020.1.3,MacIntel,60,0.108524306,-0.308289931,1,0,0,1.517215,scale,,,,,,0.21373507,0.173205081,0.326485712,0.264575131,stimuli/lakes/305062_left.png,stimuli/lakes/305062_right.png,,,,0,25,25,62,1,,,,,
,,,,,,$5e07cafddeea2b1375930556,2020-07-21_17h10.34.805,fisher_task,2020.1.3,MacIntel,60,-0.157829861,-0.369162326,1,0,0,1.21858,scale,,,,,,0.302267034,0.244948974,0.2468,0.2,stimuli/lakes/607094_left.png,stimuli/lakes/607094_right.png,,,,0,26,26,94,1,,,,,
,,,,,,$5e07cafddeea2b1375930556,2020-07-21_17h10.34.805,fisher_task,2020.1.3,MacIntel,60,-0.157829861,-0.369162326,1,0,0,1.599685,scale,,,,,,0.349027907,0.282842712,0.174513954,0.141421356,stimuli/lakes/806078_left.png,stimuli/lakes/806078_right.png,,,,0,27,27,78,1,,,,,
,,,,,,$5e07cafddeea2b1375930556,2020-07-21_17h10.34.805,fisher_task,2020.1.3,MacIntel,60,-0.169348958,-0.414331597,1,0,0,1.36552,scale,,,,,,0.275930788,0.223606798,0.275930788,0.223606798,stimuli/lakes/5090125_left.png,stimuli/lakes/5090125_right.png,,,,0,28,28,125,1,,,,,
,,,,,,$5e07cafddeea2b1375930556,2020-07-21_17h10.34.805,fisher_task,2020.1.3,MacIntel,60,-0.00703125,-0.260052083,1,0,0,2.315745,scale,,,,,,0.21373507,0.173205081,0.326485712,0.264575131,stimuli/lakes/306073_left.png,stimuli/lakes/306073_right.png,,,,0,29,29,73,1,,,,,
,,,,,,$5e07cafddeea2b1375930556,2020-07-21_17h10.34.805,fisher_task,2020.1.3,MacIntel,60,-0.085177951,-0.28390191,1,0,0,1.617175,scale,,,,,,0.302267034,0.244948974,0.2468,0.2,stimuli/lakes/606076_left.png,stimuli/lakes/606076_right.png,,,,0,30,30,76,1,,,,,
,,,,,,$5e07cafddeea2b1375930556,2020-07-21_17h10.34.805,fisher_task,2020.1.3,MacIntel,60,-0.085177951,-0.28390191,1,0,0,1.33303,scale,,,,,,0.275930788,0.223606798,0.275930788,0.223606798,stimuli/lakes/506075_left.png,stimuli/lakes/506075_right.png,,,,0,31,31,75,1,,,,,
,,,,,,$5e07cafddeea2b1375930556,2020-07-21_17h10.34.805,fisher_task,2020.1.3,MacIntel,60,-0.055290799,-0.254926215,1,0,0,3.66663,scale,,,,,,0.21373507,0.173205081,0.326485712,0.264575131,stimuli/lakes/3080110_left.png,stimuli/lakes/3080110_right.png,,,,0,32,32,110,1,,,,,
,,,,,,$5e07cafddeea2b1375930556,2020-07-21_17h10.34.805,fisher_task,2020.1.3,MacIntel,60,-0.011618924,-0.238103299,1,0,0,1.466875,scale,,,,,,0.21373507,0.173205081,0.326485712,0.264575131,stimuli/lakes/3090122_left.png,stimuli/lakes/3090122_right.png,,,,0,33,33,122,1,,,,,
,,,,,,$5e07cafddeea2b1375930556,2020-07-21_17h10.34.805,fisher_task,2020.1.3,MacIntel,60,-0.011618924,-0.238103299,1,0,0,0.98378,scale,,,,,,0.21373507,0.173205081,0.326485712,0.264575131,stimuli/lakes/3090121_left.png,stimuli/lakes/3090121_right.png,,,,0,34,34,121,1,,,,,
,,,,,,$5e07cafddeea2b1375930556,2020-07-21_17h10.34.805,fisher_task,2020.1.3,MacIntel,60,-0.168151042,-0.377526042,1,0,0,2.16826,scale,,,,,,0.275930788,0.223606798,0.275930788,0.223606798,stimuli/lakes/5080113_left.png,stimuli/lakes/5080113_right.png,,,,0,35,35,113,1,,,,,
,,,,,,$5e07cafddeea2b1375930556,2020-07-21_17h10.34.805,fisher_task,2020.1.3,MacIntel,60,0.151601563,-0.40109809,1,0,0,1.265425,scale,,,,,,0.21373507,0.173205081,0.326485712,0.264575131,stimuli/lakes/30100_left.png,stimuli/lakes/30100_right.png,,,,0,36,36,0,1,,,,,
,,,,,,$5e07cafddeea2b1375930556,2020-07-21_17h10.34.805,fisher_task,2020.1.3,MacIntel,60,0.15953559,-0.394878472,1,0,0,2.65018,scale,,,,,,0.275930788,0.223606798,0.275930788,0.223606798,stimuli/lakes/502016_left.png,stimuli/lakes/502016_right.png,,,,0,37,37,16,1,,,,,
,,,,,,$5e07cafddeea2b1375930556,2020-07-21_17h10.34.805,fisher_task,2020.1.3,MacIntel,60,0.080750868,-0.296345486,1,0,0,1.64874,scale,,,,,,0.1234,0.1,0.3702,0.3,stimuli/lakes/105059_left.png,stimuli/lakes/105059_right.png,,,,0,38,38,59,1,,,,,
,,,,,,$5e07cafddeea2b1375930556,2020-07-21_17h10.34.805,fisher_task,2020.1.3,MacIntel,60,-0.036992188,-0.265403646,1,0,0,1.48063,scale,,,,,,0.326485712,0.264575131,0.21373507,0.173205081,stimuli/lakes/705067_left.png,stimuli/lakes/705067_right.png,,,,0,39,39,67,1,,,,,
,,,,,,$5e07cafddeea2b1375930556,2020-07-21_17h10.34.805,fisher_task,2020.1.3,MacIntel,60,-0.009131944,-0.264661458,1,0,0,1.648855,scale,,,,,,0.174513954,0.141421356,0.349027907,0.282842712,stimuli/lakes/207099_left.png,stimuli/lakes/207099_right.png,,,,0,40,40,99,1,,,,,
,,,,,,$5e07cafddeea2b1375930556,2020-07-21_17h10.34.805,fisher_task,2020.1.3,MacIntel,60,0.152938368,-0.369496528,1,0,0,1.06585,scale,,,,,,0.174513954,0.141421356,0.349027907,0.282842712,stimuli/lakes/203024_left.png,stimuli/lakes/203024_right.png,,,,0,41,41,24,1,,,,,
,,,,,,$5e07cafddeea2b1375930556,2020-07-21_17h10.34.805,fisher_task,2020.1.3,MacIntel,60,-0.171371528,-0.404331597,1,0,0,1.4326,scale,,,,,,0.326485712,0.264575131,0.21373507,0.173205081,stimuli/lakes/7080117_left.png,stimuli/lakes/7080117_right.png,,,,0,42,42,117,1,,,,,
,,,,,,$5e07cafddeea2b1375930556,2020-07-21_17h10.34.805,fisher_task,2020.1.3,MacIntel,60,0.159752604,-0.397838542,1,0,0,1.199055,scale,,,,,,0.174513954,0.141421356,0.349027907,0.282842712,stimuli/lakes/203033_left.png,stimuli/lakes/203033_right.png,,,,0,43,43,33,1,,,,,
,,,,,,$5e07cafddeea2b1375930556,2020-07-21_17h10.34.805,fisher_task,2020.1.3,MacIntel,60,-0.156041667,-0.390842014,1,0,0,1.035315,scale,,,,,,0.302267034,0.244948974,0.2468,0.2,stimuli/lakes/6080114_left.png,stimuli/lakes/6080114_right.png,,,space,0,44,44,114,1,2.452715,,,,
,,,,,,$5e07cafddeea2b1375930556,2020-07-21_17h10.34.805,fisher_task,2020.1.3,MacIntel,60,0.055273438,-0.254318576,1,0,0,1.56715,scale,,,,,,0.302267034,0.244948974,0.2468,0.2,stimuli/lakes/60105_left.png,stimuli/lakes/60105_right.png,,,,0,45,45,5,1,,,,,
,,,,,,$5e07cafddeea2b1375930556,2020-07-21_17h10.34.805,fisher_task,2020.1.3,MacIntel,60,0.147886285,-0.329561632,1,0,0,1.330845,scale,,,,,,0.2468,0.2,0.302267034,0.244948974,stimuli/lakes/40102_left.png,stimuli/lakes/40102_right.png,,,,0,46,46,2,1,,,,,
,,,,,,$5e07cafddeea2b1375930556,2020-07-21_17h10.34.805,fisher_task,2020.1.3,MacIntel,60,-0.041631944,-0.243368056,1,0,0,1.34835,scale,,,,,,0.326485712,0.264575131,0.21373507,0.173205081,stimuli/lakes/702020_left.png,stimuli/lakes/702020_right.png,,,,0,47,47,20,1,,,,,
,,,,,,$5e07cafddeea2b1375930556,2020-07-21_17h10.34.805,fisher_task,2020.1.3,MacIntel,60,-0.107782118,-0.295034722,1,0,0,1.215145,scale,,,,,,0.275930788,0.223606798,0.275930788,0.223606798,stimuli/lakes/506084_left.png,stimuli/lakes/506084_right.png,,,,0,48,48,84,1,,,,,
,,,,,,$5e07cafddeea2b1375930556,2020-07-21_17h10.34.805,fisher_task,2020.1.3,MacIntel,60,0.154874132,-0.346106771,1,0,0,1.181985,scale,,,,,,0.21373507,0.173205081,0.326485712,0.264575131,stimuli/lakes/303034_left.png,stimuli/lakes/303034_right.png,,,,0,49,49,34,1,,,,,
,,,,,,$5e07cafddeea2b1375930556,2020-07-21_17h10.34.805,fisher_task,2020.1.3,MacIntel,60,0.145980903,-0.391618924,1,0,0,1.351105,scale,,,,,,0.21373507,0.173205081,0.326485712,0.264575131,stimuli/lakes/302013_left.png,stimuli/lakes/302013_right.png,,,,0,50,50,13,1,,,,,
,,,,,,$5e07cafddeea2b1375930556,2020-07-21_17h10.34.805,fisher_task,2020.1.3,MacIntel,60,0.11078125,-0.318797743,1,0,0,1.38215,scale,,,,,,0.2468,0.2,0.302267034,0.244948974,stimuli/lakes/404053_left.png,stimuli/lakes/404053_right.png,,,,0,51,51,53,1,,,,,
,,,,,,$5e07cafddeea2b1375930556,2020-07-21_17h10.34.805,fisher_task,2020.1.3,MacIntel,60,-0.167530382,-0.404917535,1,0,0,1.236255,scale,,,,,,0.302267034,0.244948974,0.2468,0.2,stimuli/lakes/6090127_left.png,stimuli/lakes/6090127_right.png,,,,0,52,52,127,1,,,,,
,,,,,,$5e07cafddeea2b1375930556,2020-07-21_17h10.34.805,fisher_task,2020.1.3,MacIntel,60,-0.074144965,-0.275920139,1,0,0,2.03347,scale,,,,,,0.275930788,0.223606798,0.275930788,0.223606798,stimuli/lakes/504045_left.png,stimuli/lakes/504045_right.png,,,,0,53,53,45,1,,,,,
,,,,,,$5e07cafddeea2b1375930556,2020-07-21_17h10.34.805,fisher_task,2020.1.3,MacIntel,60,0.011076389,-0.259817708,1,0,0,1.415615,scale,,,,,,0.3702,0.3,0.1234,0.1,stimuli/lakes/904058_left.png,stimuli/lakes/904058_right.png,,,,0,54,54,58,1,,,,,
,,,,,,$5e07cafddeea2b1375930556,2020-07-21_17h10.34.805,fisher_task,2020.1.3,MacIntel,60,0.000598958,-0.270030382,1,0,0,1.567425,scale,,,,,,0.2468,0.2,0.302267034,0.244948974,stimuli/lakes/4080111_left.png,stimuli/lakes/4080111_right.png,,,,0,55,55,111,1,,,,,
,,,,,,$5e07cafddeea2b1375930556,2020-07-21_17h10.34.805,fisher_task,2020.1.3,MacIntel,60,0.000598958,-0.270030382,1,0,0,0.89672,scale,,,,,,0.326485712,0.264575131,0.21373507,0.173205081,stimuli/lakes/703029_left.png,stimuli/lakes/703029_right.png,,,,0,56,56,29,1,,,,,
,,,,,,$5e07cafddeea2b1375930556,2020-07-21_17h10.34.805,fisher_task,2020.1.3,MacIntel,60,0.000598958,-0.270030382,1,0,0,0.849905,scale,,,,,,0.326485712,0.264575131,0.21373507,0.173205081,stimuli/lakes/70107_left.png,stimuli/lakes/70107_right.png,,,,0,57,57,7,1,,,,,
,,,,,,$5e07cafddeea2b1375930556,2020-07-21_17h10.34.805,fisher_task,2020.1.3,MacIntel,60,-0.024900174,-0.240525174,1,0,0,1.8829,scale,,,,,,0.349027907,0.282842712,0.174513954,0.141421356,stimuli/lakes/802021_left.png,stimuli/lakes/802021_right.png,,,,0,58,58,21,1,,,,,
,,,,,,$5e07cafddeea2b1375930556,2020-07-21_17h10.34.805,fisher_task,2020.1.3,MacIntel,60,-0.040256076,-0.250416667,1,0,0,1.164625,scale,,,,,,0.3702,0.3,0.1234,0.1,stimuli/lakes/902022_left.png,stimuli/lakes/902022_right.png,,,,0,59,59,22,1,,,,,
,,,,,,$5e07cafddeea2b1375930556,2020-07-21_17h10.34.805,fisher_task,2020.1.3,MacIntel,60,0.032747396,-0.272868924,1,0,0,1.3998,scale,,,,,,0.1234,0.1,0.3702,0.3,stimuli/lakes/107089_left.png,stimuli/lakes/107089_right.png,,,,0,60,60,89,1,,,,,
,,,,,,$5e07cafddeea2b1375930556,2020-07-21_17h10.34.805,fisher_task,2020.1.3,MacIntel,60,0.077803819,-0.268489583,1,0,0,1.481485,scale,,,,,,0.3702,0.3,0.1234,0.1,stimuli/lakes/901010_left.png,stimuli/lakes/901010_right.png,,,,0,61,61,10,1,,,,,
,,,,,,$5e07cafddeea2b1375930556,2020-07-21_17h10.34.805,fisher_task,2020.1.3,MacIntel,60,0.1621875,-0.407721354,1,0,0,1.215145,scale,,,,,,0.21373507,0.173205081,0.326485712,0.264575131,stimuli/lakes/303025_left.png,stimuli/lakes/303025_right.png,,,,0,62,62,25,1,,,,,
,,,,,,$5e07cafddeea2b1375930556,2020-07-21_17h10.34.805,fisher_task,2020.1.3,MacIntel,60,-0.056236979,-0.272248264,1,0,0,1.518085,scale,,,,,,0.302267034,0.244948974,0.2468,0.2,stimuli/lakes/604046_left.png,stimuli/lakes/604046_right.png,,,,0,63,63,46,1,,,,,
,,,,,,$5e07cafddeea2b1375930556,2020-07-21_17h10.34.805,fisher_task,2020.1.3,MacIntel,60,0.16031684,-0.369791667,1,0,0,1.500655,scale,,,,,,0.21373507,0.173205081,0.326485712,0.264575131,stimuli/lakes/304052_left.png,stimuli/lakes/304052_right.png,,,,0,64,64,52,1,,,,,
,,,,,,$5e07cafddeea2b1375930556,2020-07-21_17h10.34.805,fisher_task,2020.1.3,MacIntel,60,0.006744792,-0.24655816,1,0,0,1.566685,scale,,,,,,0.326485712,0.264575131,0.21373507,0.173205081,stimuli/lakes/70108_left.png,stimuli/lakes/70108_right.png,,,,0,65,65,8,1,,,,,
,,,,,,$5e07cafddeea2b1375930556,2020-07-21_17h10.34.805,fisher_task,2020.1.3,MacIntel,60,0.158368056,-0.368880208,1,0,0,1.78416,scale,,,,,,0.21373507,0.173205081,0.326485712,0.264575131,stimuli/lakes/30101_left.png,stimuli/lakes/30101_right.png,,,space,0,66,66,1,1,1.784865,,,,
,,,,,,$5e07cafddeea2b1375930556,2020-07-21_17h10.34.805,fisher_task,2020.1.3,MacIntel,60,0.106974826,-0.333138021,1,0,0,1.40034,scale,,,,,,0.21373507,0.173205081,0.326485712,0.264575131,stimuli/lakes/304043_left.png,stimuli/lakes/304043_right.png,,,,0,67,67,43,1,,,,,
,,,,,,$5e07cafddeea2b1375930556,2020-07-21_17h10.34.805,fisher_task,2020.1.3,MacIntel,60,-0.06452691,-0.253515625,1,0,0,1.366155,scale,,,,,,0.302267034,0.244948974,0.2468,0.2,stimuli/lakes/605066_left.png,stimuli/lakes/605066_right.png,,,,0,68,68,66,1,,,,,
,,,,,,$5e07cafddeea2b1375930556,2020-07-21_17h10.34.805,fisher_task,2020.1.3,MacIntel,60,0.0075,-0.262517361,1,0,0,1.11585,scale,,,,,,0.349027907,0.282842712,0.174513954,0.141421356,stimuli/lakes/804048_left.png,stimuli/lakes/804048_right.png,,,,0,69,69,48,1,,,,,
,,,,,,$5e07cafddeea2b1375930556,2020-07-21_17h10.34.805,fisher_task,2020.1.3,MacIntel,60,-0.035273437,-0.263025174,1,0,0,1.59869,scale,,,,,,0.275930788,0.223606798,0.275930788,0.223606798,stimuli/lakes/507093_left.png,stimuli/lakes/507093_right.png,,,,0,70,70,93,1,,,,,
,,,,,,$5e07cafddeea2b1375930556,2020-07-21_17h10.34.805,fisher_task,2020.1.3,MacIntel,60,0.007634549,-0.266141493,1,0,0,1.23323,scale,,,,,,0.349027907,0.282842712,0.174513954,0.141421356,stimuli/lakes/804057_left.png,stimuli/lakes/804057_right.png,,,,0,71,71,57,1,,,,,
,,,,,,$5e07cafddeea2b1375930556,2020-07-21_17h10.34.805,fisher_task,2020.1.3,MacIntel,60,0.167838542,-0.394231771,1,0,0,1.416845,scale,,,,,,0.1234,0.1,0.3702,0.3,stimuli/lakes/103023_left.png,stimuli/lakes/103023_right.png,,,,0,72,72,23,1,,,,,
,,,,,,$5e07cafddeea2b1375930556,2020-07-21_17h10.34.805,fisher_task,2020.1.3,MacIntel,60,-0.15797309,-0.381519097,1,0,0,2.199705,scale,,,,,,0.326485712,0.264575131,0.21373507,0.173205081,stimuli/lakes/706086_left.png,stimuli/lakes/706086_right.png,,,,0,73,73,86,1,,,,,
,,,,,,$5e07cafddeea2b1375930556,2020-07-21_17h10.34.805,fisher_task,2020.1.3,MacIntel,60,0.149917535,-0.377829861,1,0,0,1.132795,scale,,,,,,0.2468,0.2,0.302267034,0.244948974,stimuli/lakes/403026_left.png,stimuli/lakes/403026_right.png,,,,0,74,74,26,1,,,,,
,,,,,,$5e07cafddeea2b1375930556,2020-07-21_17h10.34.805,fisher_task,2020.1.3,MacIntel,60,0.146875,-0.351957465,1,0,0,1.28382,scale,,,,,,0.2468,0.2,0.302267034,0.244948974,stimuli/lakes/404044_left.png,stimuli/lakes/404044_right.png,,,,0,75,75,44,1,,,,,
,,,,,,$5e07cafddeea2b1375930556,2020-07-21_17h10.34.805,fisher_task,2020.1.3,MacIntel,60,0.012052951,-0.256848958,1,0,0,1.18139,scale,,,,,,0.3702,0.3,0.1234,0.1,stimuli/lakes/903040_left.png,stimuli/lakes/903040_right.png,,,,0,76,76,40,1,,,,,
,,,,,,$5e07cafddeea2b1375930556,2020-07-21_17h10.34.805,fisher_task,2020.1.3,MacIntel,60,-0.167699653,-0.420811632,1,0,0,1.49811,scale,,,,,,0.3702,0.3,0.1234,0.1,stimuli/lakes/907097_left.png,stimuli/lakes/907097_right.png,,,,0,77,77,97,1,,,,,
,,,,,,$5e07cafddeea2b1375930556,2020-07-21_17h10.34.805,fisher_task,2020.1.3,MacIntel,60,-0.038854167,-0.269422743,1,0,0,1.433145,scale,,,,,,0.2468,0.2,0.302267034,0.244948974,stimuli/lakes/407092_left.png,stimuli/lakes/407092_right.png,,,,0,78,78,92,1,,,,,
,,,,,,$5e07cafddeea2b1375930556,2020-07-21_17h10.34.805,fisher_task,2020.1.3,MacIntel,60,0.005134549,-0.249943576,1,0,0,1.366965,scale,,,,,,0.174513954,0.141421356,0.349027907,0.282842712,stimuli/lakes/2080108_left.png,stimuli/lakes/2080108_right.png,,,,0,79,79,108,1,,,,,
,,,,,,$5e07cafddeea2b1375930556,2020-07-21_17h10.34.805,fisher_task,2020.1.3,MacIntel,60,-0.004769965,-0.246853299,1,0,0,1.048495,scale,,,,,,0.1234,0.1,0.3702,0.3,stimuli/lakes/1090119_left.png,stimuli/lakes/1090119_right.png,,,,0,80,80,119,1,,,,,
,,,,,,$5e07cafddeea2b1375930556,2020-07-21_17h10.34.805,fisher_task,2020.1.3,MacIntel,60,0.10375434,-0.272382813,1,0,0,3.798755,scale,,,,,,0.1234,0.1,0.3702,0.3,stimuli/lakes/106071_left.png,stimuli/lakes/106071_right.png,,,,0,81,81,71,1,,,,,
,,,,,,$5e07cafddeea2b1375930556,2020-07-21_17h10.34.805,fisher_task,2020.1.3,MacIntel,60,0.055950521,-0.274097222,1,0,0,1.331785,scale,,,,,,0.174513954,0.141421356,0.349027907,0.282842712,stimuli/lakes/206081_left.png,stimuli/lakes/206081_right.png,,,,0,82,82,81,1,,,,,
,,,,,,$5e07cafddeea2b1375930556,2020-07-21_17h10.34.805,fisher_task,2020.1.3,MacIntel,60,-0.158255208,-0.423845486,1,0,0,1.16544,scale,,,,,,0.326485712,0.264575131,0.21373507,0.173205081,stimuli/lakes/7090129_left.png,stimuli/lakes/7090129_right.png,,,,0,83,83,129,1,,,,,
,,,,,,$5e07cafddeea2b1375930556,2020-07-21_17h10.34.805,fisher_task,2020.1.3,MacIntel,60,-0.131180556,-0.332391493,1,0,0,2.31849,scale,,,,,,0.349027907,0.282842712,0.174513954,0.141421356,stimuli/lakes/805069_left.png,stimuli/lakes/805069_right.png,,,,0,84,84,69,1,,,,,
,,,,,,$5e07cafddeea2b1375930556,2020-07-21_17h10.34.805,fisher_task,2020.1.3,MacIntel,60,-0.079869792,-0.284700521,1,0,0,1.917525,scale,,,,,,0.2468,0.2,0.302267034,0.244948974,stimuli/lakes/4070101_left.png,stimuli/lakes/4070101_right.png,,,,0,85,85,101,1,,,,,
,,,,,,$5e07cafddeea2b1375930556,2020-07-21_17h10.34.805,fisher_task,2020.1.3,MacIntel,60,0.163190104,-0.395928819,1,0,0,1.48332,scale,,,,,,0.2468,0.2,0.302267034,0.244948974,stimuli/lakes/402015_left.png,stimuli/lakes/402015_right.png,,,,0,86,86,15,1,,,,,
,,,,,,$5e07cafddeea2b1375930556,2020-07-21_17h10.34.805,fisher_task,2020.1.3,MacIntel,60,-0.11905816,-0.320594618,1,0,0,1.398205,scale,,,,,,0.326485712,0.264575131,0.21373507,0.173205081,stimuli/lakes/705068_left.png,stimuli/lakes/705068_right.png,,,,0,87,87,68,1,,,,,
,,,,,,$5e07cafddeea2b1375930556,2020-07-21_17h10.34.805,fisher_task,2020.1.3,MacIntel,60,0.009127604,-0.268949653,1,0,0,2.033095,scale,,,,,,0.21373507,0.173205081,0.326485712,0.264575131,stimuli/lakes/3080109_left.png,stimuli/lakes/3080109_right.png,,,space,0,88,88,109,1,2.217875,,,,
,,,,,,$5e07cafddeea2b1375930556,2020-07-21_17h10.34.805,fisher_task,2020.1.3,MacIntel,60,-0.164973958,-0.404036458,1,0,0,1.366995,scale,,,,,,0.302267034,0.244948974,0.2468,0.2,stimuli/lakes/6090126_left.png,stimuli/lakes/6090126_right.png,,,,0,89,89,126,1,,,,,
,,,,,,$5e07cafddeea2b1375930556,2020-07-21_17h10.34.805,fisher_task,2020.1.3,MacIntel,60,0.159544271,-0.364175347,1,0,0,1.233615,scale,,,,,,0.1234,0.1,0.3702,0.3,stimuli/lakes/104041_left.png,stimuli/lakes/104041_right.png,,,,0,90,90,41,1,,,,,
,,,,,,$5e07cafddeea2b1375930556,2020-07-21_17h10.34.805,fisher_task,2020.1.3,MacIntel,60,-0.001046007,-0.256675347,1,0,0,1.181495,scale,,,,,,0.21373507,0.173205081,0.326485712,0.264575131,stimuli/lakes/3070100_left.png,stimuli/lakes/3070100_right.png,,,,0,91,91,100,1,,,,,
,,,,,,$5e07cafddeea2b1375930556,2020-07-21_17h10.34.805,fisher_task,2020.1.3,MacIntel,60,0.118810764,-0.288333333,1,0,0,1.06526,scale,,,,,,0.21373507,0.173205081,0.326485712,0.264575131,stimuli/lakes/305061_left.png,stimuli/lakes/305061_right.png,,,,0,92,92,61,1,,,,,
,,,,,,$5e07cafddeea2b1375930556,2020-07-21_17h10.34.805,fisher_task,2020.1.3,MacIntel,60,-0.07,-0.275946181,1,0,0,1.184665,scale,,,,,,0.349027907,0.282842712,0.174513954,0.141421356,stimuli/lakes/803039_left.png,stimuli/lakes/803039_right.png,,,,0,93,93,39,1,,,,,
,,,,,,$5e07cafddeea2b1375930556,2020-07-21_17h10.34.805,fisher_task,2020.1.3,MacIntel,60,0.007612847,-0.272578125,1,0,0,1.183015,scale,,,,,,0.349027907,0.282842712,0.174513954,0.141421356,stimuli/lakes/80109_left.png,stimuli/lakes/80109_right.png,,,,0,94,94,9,1,,,,,
,,,,,,$5e07cafddeea2b1375930556,2020-07-21_17h10.34.805,fisher_task,2020.1.3,MacIntel,60,-0.137291667,-0.333072917,1,0,0,1.433725,scale,,,,,,0.3702,0.3,0.1234,0.1,stimuli/lakes/906088_left.png,stimuli/lakes/906088_right.png,,,,0,95,95,88,1,,,,,
,,,,,,$5e07cafddeea2b1375930556,2020-07-21_17h10.34.805,fisher_task,2020.1.3,MacIntel,60,0.002912326,-0.267378472,1,0,0,1.315755,scale,,,,,,0.2468,0.2,0.302267034,0.244948974,stimuli/lakes/4080112_left.png,stimuli/lakes/4080112_right.png,,,,0,96,96,112,1,,,,,
,,,,,,$5e07cafddeea2b1375930556,2020-07-21_17h10.34.805,fisher_task,2020.1.3,MacIntel,60,-0.111701389,-0.301150174,1,0,0,1.59672,scale,,,,,,0.302267034,0.244948974,0.2468,0.2,stimuli/lakes/605065_left.png,stimuli/lakes/605065_right.png,,,,0,97,97,65,1,,,,,
,,,,,,$5e07cafddeea2b1375930556,2020-07-21_17h10.34.805,fisher_task,2020.1.3,MacIntel,60,0.089388021,-0.272695313,1,0,0,1.500365,scale,,,,,,0.275930788,0.223606798,0.275930788,0.223606798,stimuli/lakes/503027_left.png,stimuli/lakes/503027_right.png,,,,0,98,98,27,1,,,,,
,,,,,,$5e07cafddeea2b1375930556,2020-07-21_17h10.34.805,fisher_task,2020.1.3,MacIntel,60,-0.158519965,-0.38359375,1,0,0,1.281335,scale,,,,,,0.326485712,0.264575131,0.21373507,0.173205081,stimuli/lakes/7070104_left.png,stimuli/lakes/7070104_right.png,,,,0,99,99,104,1,,,,,
,,,,,,$5e07cafddeea2b1375930556,2020-07-21_17h10.34.805,fisher_task,2020.1.3,MacIntel,60,-0.097708333,-0.300052083,1,0,0,1.214075,scale,,,,,,0.3702,0.3,0.1234,0.1,stimuli/lakes/905070_left.png,stimuli/lakes/905070_right.png,,,,0,100,100,70,1,,,,,
,,,,,,$5e07cafddeea2b1375930556,2020-07-21_17h10.34.805,fisher_task,2020.1.3,MacIntel,60,0.087048611,-0.265082465,1,0,0,1.2667,scale,,,,,,0.1234,0.1,0.3702,0.3,stimuli/lakes/106080_left.png,stimuli/lakes/106080_right.png,,,,0,101,101,80,1,,,,,
,,,,,,$5e07cafddeea2b1375930556,2020-07-21_17h10.34.805,fisher_task,2020.1.3,MacIntel,60,0.02906684,-0.253628472,1,0,0,1.08179,scale,,,,,,0.21373507,0.173205081,0.326485712,0.264575131,stimuli/lakes/306082_left.png,stimuli/lakes/306082_right.png,,,,0,102,102,82,1,,,,,
,,,,,,$5e07cafddeea2b1375930556,2020-07-21_17h10.34.805,fisher_task,2020.1.3,MacIntel,60,-0.072278646,-0.268997396,1,0,0,1.266445,scale,,,,,,0.326485712,0.264575131,0.21373507,0.173205081,stimuli/lakes/704056_left.png,stimuli/lakes/704056_right.png,,,,0,103,103,56,1,,,,,
,,,,,,$5e07cafddeea2b1375930556,2020-07-21_17h10.34.805,fisher_task,2020.1.3,MacIntel,60,0.011640625,-0.261024306,1,0,0,1.350235,scale,,,,,,0.302267034,0.244948974,0.2468,0.2,stimuli/lakes/602018_left.png,stimuli/lakes/602018_right.png,,,,0,104,104,18,1,,,,,
,,,,,,$5e07cafddeea2b1375930556,2020-07-21_17h10.34.805,fisher_task,2020.1.3,MacIntel,60,0.161909722,-0.421037326,1,0,0,1.233075,scale,,,,,,0.2468,0.2,0.302267034,0.244948974,stimuli/lakes/40103_left.png,stimuli/lakes/40103_right.png,,,,0,105,105,3,1,,,,,
,,,,,,$5e07cafddeea2b1375930556,2020-07-21_17h10.34.805,fisher_task,2020.1.3,MacIntel,60,0.074600694,-0.286966146,1,0,0,1.447665,scale,,,,,,0.174513954,0.141421356,0.349027907,0.282842712,stimuli/lakes/206072_left.png,stimuli/lakes/206072_right.png,,,,0,106,106,72,1,,,,,
,,,,,,$5e07cafddeea2b1375930556,2020-07-21_17h10.34.805,fisher_task,2020.1.3,MacIntel,60,-0.002764757,-0.265898437,1,0,0,2.11599,scale,,,,,,0.349027907,0.282842712,0.174513954,0.141421356,stimuli/lakes/803030_left.png,stimuli/lakes/803030_right.png,,,,0,107,107,30,1,,,,,
,,,,,,$5e07cafddeea2b1375930556,2020-07-21_17h10.34.805,fisher_task,2020.1.3,MacIntel,60,-0.090737847,-0.277478299,1,0,0,1.765965,scale,,,,,,0.326485712,0.264575131,0.21373507,0.173205081,stimuli/lakes/704047_left.png,stimuli/lakes/704047_right.png,,,,0,108,108,47,1,,,,,
,,,,,,$5e07cafddeea2b1375930556,2020-07-21_17h10.34.805,fisher_task,2020.1.3,MacIntel,60,0.111106771,-0.299440104,1,0,0,1.46524,scale,,,,,,0.174513954,0.141421356,0.349027907,0.282842712,stimuli/lakes/204051_left.png,stimuli/lakes/204051_right.png,,,,0,109,109,51,1,,,,,
,,,,,,$5e07cafddeea2b1375930556,2020-07-21_17h10.34.805,fisher_task,2020.1.3,MacIntel,60,0.085711806,-0.262421875,1,0,0,1.601595,scale,,,,,,0.275930788,0.223606798,0.275930788,0.223606798,stimuli/lakes/504054_left.png,stimuli/lakes/504054_right.png,,,space,0,110,110,54,1,1.816865,,,,
,,,,,,$5e07cafddeea2b1375930556,2020-07-21_17h10.34.805,fisher_task,2020.1.3,MacIntel,60,-0.154197049,-0.373116319,1,0,0,1.06744,scale,,,,,,0.302267034,0.244948974,0.2468,0.2,stimuli/lakes/6080115_left.png,stimuli/lakes/6080115_right.png,,,,0,111,111,115,1,,,,,
,,,,,,$5e07cafddeea2b1375930556,2020-07-21_17h10.34.805,fisher_task,2020.1.3,MacIntel,60,0.038168403,-0.26641059,1,0,0,1.202745,scale,,,,,,0.2468,0.2,0.302267034,0.244948974,stimuli/lakes/406074_left.png,stimuli/lakes/406074_right.png,,,,0,112,112,74,1,,,,,
,,,,,,$5e07cafddeea2b1375930556,2020-07-21_17h10.34.805,fisher_task,2020.1.3,MacIntel,60,0.022929688,-0.277387153,1,0,0,1.300145,scale,,,,,,0.302267034,0.244948974,0.2468,0.2,stimuli/lakes/603037_left.png,stimuli/lakes/603037_right.png,,,,0,113,113,37,1,,,,,
,,,,,,$5e07cafddeea2b1375930556,2020-07-21_17h10.34.805,fisher_task,2020.1.3,MacIntel,60,-0.010842014,-0.25281684,1,0,0,1.631135,scale,,,,,,0.21373507,0.173205081,0.326485712,0.264575131,stimuli/lakes/307091_left.png,stimuli/lakes/307091_right.png,,,,0,114,114,91,1,,,,,
,,,,,,$5e07cafddeea2b1375930556,2020-07-21_17h10.34.805,fisher_task,2020.1.3,MacIntel,60,-0.026493056,-0.249930556,1,0,0,1.151255,scale,,,,,,0.174513954,0.141421356,0.349027907,0.282842712,stimuli/lakes/2090120_left.png,stimuli/lakes/2090120_right.png,,,,0,115,115,120,1,,,,,
,,,,,,$5e07cafddeea2b1375930556,2020-07-21_17h10.34.805,fisher_task,2020.1.3,MacIntel,60,0.068498264,-0.288880208,1,0,0,1.384775,scale,,,,,,0.2468,0.2,0.302267034,0.244948974,stimuli/lakes/403035_left.png,stimuli/lakes/403035_right.png,,,,0,116,116,35,1,,,,,
,,,,,,$5e07cafddeea2b1375930556,2020-07-21_17h10.34.805,fisher_task,2020.1.3,MacIntel,60,-0.008871528,-0.273550347,1,0,0,1.19999,scale,,,,,,0.174513954,0.141421356,0.349027907,0.282842712,stimuli/lakes/207090_left.png,stimuli/lakes/207090_right.png,,,,0,117,117,90,1,,,,,
,,,,,,$5e07cafddeea2b1375930556,2020-07-21_17h10.34.805,fisher_task,2020.1.3,MacIntel,60,0.167118056,-0.407144097,1,0,0,1.19913,scale,,,,,,0.275930788,0.223606798,0.275930788,0.223606798,stimuli/lakes/50104_left.png,stimuli/lakes/50104_right.png,,,,0,118,118,4,1,,,,,
,,,,,,$5e07cafddeea2b1375930556,2020-07-21_17h10.34.805,fisher_task,2020.1.3,MacIntel,60,-0.123090278,-0.325486111,1,0,0,1.250245,scale,,,,,,0.349027907,0.282842712,0.174513954,0.141421356,stimuli/lakes/806087_left.png,stimuli/lakes/806087_right.png,,,,0,119,119,87,1,,,,,
,,,,,,$5e07cafddeea2b1375930556,2020-07-21_17h10.34.805,fisher_task,2020.1.3,MacIntel,60,0.001653646,-0.278845486,1,0,0,1.565525,scale,,,,,,0.302267034,0.244948974,0.2468,0.2,stimuli/lakes/602017_left.png,stimuli/lakes/602017_right.png,,,,0,120,120,17,1,,,,,
,,,,,,$5e07cafddeea2b1375930556,2020-07-21_17h10.34.805,fisher_task,2020.1.3,MacIntel,60,-0.191974826,-0.403476563,1,0,0,1.215375,scale,,,,,,0.302267034,0.244948974,0.2468,0.2,stimuli/lakes/6070103_left.png,stimuli/lakes/6070103_right.png,,,,0,121,121,103,1,,,,,
,,,,,,$5e07cafddeea2b1375930556,2020-07-21_17h10.34.805,fisher_task,2020.1.3,MacIntel,60,-0.152039931,-0.39780816,1,0,0,1.06776,scale,,,,,,0.3702,0.3,0.1234,0.1,stimuli/lakes/906079_left.png,stimuli/lakes/906079_right.png,,,,0,122,122,79,1,,,,,
,,,,,,$5e07cafddeea2b1375930556,2020-07-21_17h10.34.805,fisher_task,2020.1.3,MacIntel,60,-0.151315104,-0.429891493,1,0,0,1.084015,scale,,,,,,0.326485712,0.264575131,0.21373507,0.173205081,stimuli/lakes/7090128_left.png,stimuli/lakes/7090128_right.png,,,,0,123,123,128,1,,,,,
,,,,,,$5e07cafddeea2b1375930556,2020-07-21_17h10.34.805,fisher_task,2020.1.3,MacIntel,60,0.160190972,-0.435885417,1,0,0,1.21537,scale,,,,,,0.2468,0.2,0.302267034,0.244948974,stimuli/lakes/402014_left.png,stimuli/lakes/402014_right.png,,,,0,124,124,14,1,,,,,
,,,,,,$5e07cafddeea2b1375930556,2020-07-21_17h10.34.805,fisher_task,2020.1.3,MacIntel,60,-0.147126736,-0.394318576,1,0,0,1.24837,scale,,,,,,0.349027907,0.282842712,0.174513954,0.141421356,stimuli/lakes/807096_left.png,stimuli/lakes/807096_right.png,,,,0,125,125,96,1,,,,,
,,,,,,$5e07cafddeea2b1375930556,2020-07-21_17h10.34.805,fisher_task,2020.1.3,MacIntel,60,0.158849826,-0.424244792,1,0,0,1.13365,scale,,,,,,0.174513954,0.141421356,0.349027907,0.282842712,stimuli/lakes/202011_left.png,stimuli/lakes/202011_right.png,,,,0,126,126,11,1,,,,,
,,,,,,$5e07cafddeea2b1375930556,2020-07-21_17h10.34.805,fisher_task,2020.1.3,MacIntel,60,0.065546875,-0.274027778,1,0,0,1.2177,scale,,,,,,0.2468,0.2,0.302267034,0.244948974,stimuli/lakes/406083_left.png,stimuli/lakes/406083_right.png,,,,0,127,127,83,1,,,,,
,,,,,,$5e07cafddeea2b1375930556,2020-07-21_17h10.34.805,fisher_task,2020.1.3,MacIntel,60,0.086393229,-0.288650174,1,0,0,1.114145,scale,,,,,,0.1234,0.1,0.3702,0.3,stimuli/lakes/104050_left.png,stimuli/lakes/104050_right.png,,,,0,128,128,50,1,,,,,
,,,,,,$5e07cafddeea2b1375930556,2020-07-21_17h10.34.805,fisher_task,2020.1.3,MacIntel,60,-0.116388889,-0.30828559,1,0,0,1.683035,scale,,,,,,0.2468,0.2,0.302267034,0.244948974,stimuli/lakes/4090124_left.png,stimuli/lakes/4090124_right.png,,,,0,129,129,124,1,,,,,
,,,,,,$5e07cafddeea2b1375930556,2020-07-21_17h10.34.805,fisher_task,2020.1.3,MacIntel,60,,,,,,,,,,,,,,,,,,,,,,,,,,,,space,4.970965,space,45.449735
