keySpace.keys,keySpace.rt,instructions.thisRepN,instructions.thisTrialN,instructions.thisN,instructions.thisIndex,instructions.ran,participant,date,expName,psychopyVersion,OS,frameRate,mouse.x,mouse.y,mouse.leftButton,mouse.midButton,mouse.rightButton,mouse.time,mouse.clicked_name,training.thisRepN,training.thisTrialN,training.thisN,training.thisIndex,training.ran,widthBasketLeft,heightBasketLeft,widthBasketRight,heightBasketRight,leftLake,rightLake,space2.keys,space2.rt,space1.keys,trials.thisRepN,trials.thisTrialN,trials.thisN,trials.thisIndex,trials.ran,space1.rt,finalSpace1.keys,finalSpace1.rt,finalSpace2.keys,finalSpace2.rt
space,3.199075,0,0,0,0,1,$5eec938151049a02f5206d64,2020-07-21_16h11.16.060,fisher_task,2020.1.3,MacIntel,60,,,,,,,,,,,,,,,,,,,,,,,,,,,,,,,
,,1,0,1,0,1,$5eec938151049a02f5206d64,2020-07-21_16h11.16.060,fisher_task,2020.1.3,MacIntel,60,,,,,,,,,,,,,,,,,,,,,,,,,,,,,,,
,,,,,,,$5eec938151049a02f5206d64,2020-07-21_16h11.16.060,fisher_task,2020.1.3,MacIntel,60,0.13953125,-0.328537326,1,0,0,2.4666,scale,0,0,0,0,1,0.275930788,0.223606798,0.275930788,0.223606798,stimuli/training/20_left.png,stimuli/training/20_right.png,,,,,,,,,,,,,
,,,,,,,$5eec938151049a02f5206d64,2020-07-21_16h11.16.060,fisher_task,2020.1.3,MacIntel,60,-0.097881944,-0.335967882,1,0,0,2.632205,scale,0,1,1,1,1,0.275930788,0.223606798,0.275930788,0.223606798,stimuli/training/80_left.png,stimuli/training/80_right.png,,,,,,,,,,,,,
,,,,,,,$5eec938151049a02f5206d64,2020-07-21_16h11.16.060,fisher_task,2020.1.3,MacIntel,60,0.151692708,-0.372560764,1,0,0,2.281285,scale,0,2,2,2,1,0.174513954,0.141421356,0.349027907,0.282842712,stimuli/training/50_left.png,stimuli/training/50_right.png,,,,,,,,,,,,,
,,,,,,,$5eec938151049a02f5206d64,2020-07-21_16h11.16.060,fisher_task,2020.1.3,MacIntel,60,0.094240451,-0.304357639,1,0,0,3.88259,scale,0,3,3,3,1,0.349027907,0.282842712,0.174513954,0.141421356,stimuli/training/50_left.png,stimuli/training/50_right.png,,,,,,,,,,,,,
,,,,,,,$5eec938151049a02f5206d64,2020-07-21_16h11.16.060,fisher_task,2020.1.3,MacIntel,60,0.138424479,-0.343606771,1,0,0,3.250175,scale,0,4,4,4,1,0.275930788,0.223606798,0.275930788,0.223606798,stimuli/training/50_left.png,stimuli/training/50_right.png,,,,,,,,,,,,,
,,,,,,,$5eec938151049a02f5206d64,2020-07-21_16h11.16.060,fisher_task,2020.1.3,MacIntel,60,0.166432292,-0.419079861,1,0,0,1.61579,scale,0,5,5,5,1,0.174513954,0.141421356,0.349027907,0.282842712,stimuli/training/20_left.png,stimuli/training/20_right.png,,,,,,,,,,,,,
,,,,,,,$5eec938151049a02f5206d64,2020-07-21_16h11.16.060,fisher_task,2020.1.3,MacIntel,60,-0.146119792,-0.388550347,1,0,0,1.69919,scale,0,6,6,6,1,0.349027907,0.282842712,0.174513954,0.141421356,stimuli/training/80_left.png,stimuli/training/80_right.png,,,,,,,,,,,,,
,,,,,,,$5eec938151049a02f5206d64,2020-07-21_16h11.16.060,fisher_task,2020.1.3,MacIntel,60,0.149822049,-0.418016493,1,0,0,1.965235,scale,0,7,7,7,1,0.1234,0.1,0.3702,0.3,stimuli/training/30_left.png,stimuli/training/30_right.png,,,,,,,,,,,,,
,,,,,,,$5eec938151049a02f5206d64,2020-07-21_16h11.16.060,fisher_task,2020.1.3,MacIntel,60,-0.145789931,-0.395286458,1,0,0,1.481735,scale,0,8,8,8,1,0.3702,0.3,0.1234,0.1,stimuli/training/70_left.png,stimuli/training/70_right.png,,,,,,,,,,,,,
,,,,,,,$5eec938151049a02f5206d64,2020-07-21_16h11.16.060,fisher_task,2020.1.3,MacIntel,60,-0.14749566,-0.372313368,1,0,0,1.68375,scale,0,9,9,9,1,0.326485712,0.264575131,0.21373507,0.173205081,stimuli/training/90_left.png,stimuli/training/90_right.png,,,,,,,,,,,,,
,,,,,,,$5eec938151049a02f5206d64,2020-07-21_16h11.16.060,fisher_task,2020.1.3,MacIntel,60,0.150868056,-0.415924479,1,0,0,1.632925,scale,0,10,10,10,1,0.21373507,0.173205081,0.326485712,0.264575131,stimuli/training/10_left.png,stimuli/training/10_right.png,,,,,,,,,,,,,
,,,,,,,$5eec938151049a02f5206d64,2020-07-21_16h11.16.060,fisher_task,2020.1.3,MacIntel,60,0.050798611,-0.258385417,1,0,0,3.484295,scale,,,,,,0.302267034,0.244948974,0.2468,0.2,stimuli/lakes/604046_left.png,stimuli/lakes/604046_right.png,space,4.5781,,0,0,0,46,1,,,,,
,,,,,,,$5eec938151049a02f5206d64,2020-07-21_16h11.16.060,fisher_task,2020.1.3,MacIntel,60,-0.0146875,-0.266692708,1,0,0,4.31526,scale,,,,,,0.2468,0.2,0.302267034,0.244948974,stimuli/lakes/406074_left.png,stimuli/lakes/406074_right.png,,,,0,1,1,74,1,,,,,
,,,,,,,$5eec938151049a02f5206d64,2020-07-21_16h11.16.060,fisher_task,2020.1.3,MacIntel,60,0.135590278,-0.329769965,1,0,0,1.73237,scale,,,,,,0.302267034,0.244948974,0.2468,0.2,stimuli/lakes/602018_left.png,stimuli/lakes/602018_right.png,,,,0,2,2,18,1,,,,,
,,,,,,,$5eec938151049a02f5206d64,2020-07-21_16h11.16.060,fisher_task,2020.1.3,MacIntel,60,-0.115225694,-0.331184896,1,0,0,2.13168,scale,,,,,,0.21373507,0.173205081,0.326485712,0.264575131,stimuli/lakes/3080110_left.png,stimuli/lakes/3080110_right.png,,,,0,3,3,110,1,,,,,
,,,,,,,$5eec938151049a02f5206d64,2020-07-21_16h11.16.060,fisher_task,2020.1.3,MacIntel,60,0.145221354,-0.330394965,1,0,0,3.06767,scale,,,,,,0.326485712,0.264575131,0.21373507,0.173205081,stimuli/lakes/702019_left.png,stimuli/lakes/702019_right.png,,,,0,4,4,19,1,,,,,
,,,,,,,$5eec938151049a02f5206d64,2020-07-21_16h11.16.060,fisher_task,2020.1.3,MacIntel,60,0.122786458,-0.315095486,1,0,0,2.614805,scale,,,,,,0.349027907,0.282842712,0.174513954,0.141421356,stimuli/lakes/80109_left.png,stimuli/lakes/80109_right.png,,,,0,5,5,9,1,,,,,
,,,,,,,$5eec938151049a02f5206d64,2020-07-21_16h11.16.060,fisher_task,2020.1.3,MacIntel,60,0.081779514,-0.288229167,1,0,0,3.199485,scale,,,,,,0.21373507,0.173205081,0.326485712,0.264575131,stimuli/lakes/305061_left.png,stimuli/lakes/305061_right.png,,,,0,6,6,61,1,,,,,
,,,,,,,$5eec938151049a02f5206d64,2020-07-21_16h11.16.060,fisher_task,2020.1.3,MacIntel,60,0.125859375,-0.324804688,1,0,0,1.649195,scale,,,,,,0.21373507,0.173205081,0.326485712,0.264575131,stimuli/lakes/305062_left.png,stimuli/lakes/305062_right.png,,,,0,7,7,62,1,,,,,
,,,,,,,$5eec938151049a02f5206d64,2020-07-21_16h11.16.060,fisher_task,2020.1.3,MacIntel,60,0.135195312,-0.361553819,1,0,0,2.582315,scale,,,,,,0.302267034,0.244948974,0.2468,0.2,stimuli/lakes/60106_left.png,stimuli/lakes/60106_right.png,,,,0,8,8,6,1,,,,,
,,,,,,,$5eec938151049a02f5206d64,2020-07-21_16h11.16.060,fisher_task,2020.1.3,MacIntel,60,-0.107777778,-0.316015625,1,0,0,1.650715,scale,,,,,,0.2468,0.2,0.302267034,0.244948974,stimuli/lakes/4090123_left.png,stimuli/lakes/4090123_right.png,,,,0,9,9,123,1,,,,,
,,,,,,,$5eec938151049a02f5206d64,2020-07-21_16h11.16.060,fisher_task,2020.1.3,MacIntel,60,-0.107777778,-0.316015625,1,0,0,2.716205,scale,,,,,,0.302267034,0.244948974,0.2468,0.2,stimuli/lakes/605065_left.png,stimuli/lakes/605065_right.png,,,,0,10,10,65,1,,,,,
,,,,,,,$5eec938151049a02f5206d64,2020-07-21_16h11.16.060,fisher_task,2020.1.3,MacIntel,60,0.152877604,-0.40858941,1,0,0,1.6666,scale,,,,,,0.21373507,0.173205081,0.326485712,0.264575131,stimuli/lakes/30101_left.png,stimuli/lakes/30101_right.png,,,,0,11,11,1,1,,,,,
,,,,,,,$5eec938151049a02f5206d64,2020-07-21_16h11.16.060,fisher_task,2020.1.3,MacIntel,60,0.1509375,-0.391384549,1,0,0,2.21794,scale,,,,,,0.174513954,0.141421356,0.349027907,0.282842712,stimuli/lakes/203033_left.png,stimuli/lakes/203033_right.png,,,,0,12,12,33,1,,,,,
,,,,,,,$5eec938151049a02f5206d64,2020-07-21_16h11.16.060,fisher_task,2020.1.3,MacIntel,60,-0.123806424,-0.349023437,1,0,0,1.58218,scale,,,,,,0.302267034,0.244948974,0.2468,0.2,stimuli/lakes/6070103_left.png,stimuli/lakes/6070103_right.png,,,,0,13,13,103,1,,,,,
,,,,,,,$5eec938151049a02f5206d64,2020-07-21_16h11.16.060,fisher_task,2020.1.3,MacIntel,60,0.151349826,-0.410060764,1,0,0,1.316145,scale,,,,,,0.174513954,0.141421356,0.349027907,0.282842712,stimuli/lakes/202011_left.png,stimuli/lakes/202011_right.png,,,,0,14,14,11,1,,,,,
,,,,,,,$5eec938151049a02f5206d64,2020-07-21_16h11.16.060,fisher_task,2020.1.3,MacIntel,60,0.114704861,-0.295455729,1,0,0,2.448755,scale,,,,,,0.275930788,0.223606798,0.275930788,0.223606798,stimuli/lakes/502016_left.png,stimuli/lakes/502016_right.png,,,,0,15,15,16,1,,,,,
,,,,,,,$5eec938151049a02f5206d64,2020-07-21_16h11.16.060,fisher_task,2020.1.3,MacIntel,60,0.130794271,-0.324882813,1,0,0,1.43129,scale,,,,,,0.275930788,0.223606798,0.275930788,0.223606798,stimuli/lakes/50104_left.png,stimuli/lakes/50104_right.png,,,,0,16,16,4,1,,,,,
,,,,,,,$5eec938151049a02f5206d64,2020-07-21_16h11.16.060,fisher_task,2020.1.3,MacIntel,60,-0.133975694,-0.348797743,1,0,0,2.08141,scale,,,,,,0.326485712,0.264575131,0.21373507,0.173205081,stimuli/lakes/706077_left.png,stimuli/lakes/706077_right.png,,,,0,17,17,77,1,,,,,
,,,,,,,$5eec938151049a02f5206d64,2020-07-21_16h11.16.060,fisher_task,2020.1.3,MacIntel,60,0.00266059,-0.265677083,1,0,0,3.082645,scale,,,,,,0.2468,0.2,0.302267034,0.244948974,stimuli/lakes/405063_left.png,stimuli/lakes/405063_right.png,,,,0,18,18,63,1,,,,,
,,,,,,,$5eec938151049a02f5206d64,2020-07-21_16h11.16.060,fisher_task,2020.1.3,MacIntel,60,-0.137508681,-0.361940104,1,0,0,1.531665,scale,,,,,,0.326485712,0.264575131,0.21373507,0.173205081,stimuli/lakes/7070104_left.png,stimuli/lakes/7070104_right.png,,,,0,19,19,104,1,,,,,
,,,,,,,$5eec938151049a02f5206d64,2020-07-21_16h11.16.060,fisher_task,2020.1.3,MacIntel,60,-0.152682292,-0.398875868,1,0,0,1.14934,scale,,,,,,0.302267034,0.244948974,0.2468,0.2,stimuli/lakes/6090127_left.png,stimuli/lakes/6090127_right.png,,,,0,20,20,127,1,,,,,
,,,,,,,$5eec938151049a02f5206d64,2020-07-21_16h11.16.060,fisher_task,2020.1.3,MacIntel,60,-0.138880208,-0.34375,1,0,0,2.549605,scale,,,,,,0.2468,0.2,0.302267034,0.244948974,stimuli/lakes/4090124_left.png,stimuli/lakes/4090124_right.png,,,,0,21,21,124,1,,,,,
,,,,,,,$5eec938151049a02f5206d64,2020-07-21_16h11.16.060,fisher_task,2020.1.3,MacIntel,60,0.08281684,-0.305082465,1,0,0,2.33221,scale,,,,,,0.1234,0.1,0.3702,0.3,stimuli/lakes/105059_left.png,stimuli/lakes/105059_right.png,,,space,0,22,22,59,1,2.64174,,,,
,,,,,,,$5eec938151049a02f5206d64,2020-07-21_16h11.16.060,fisher_task,2020.1.3,MacIntel,60,-0.110594618,-0.288237847,1,0,0,2.648075,scale,,,,,,0.1234,0.1,0.3702,0.3,stimuli/lakes/107098_left.png,stimuli/lakes/107098_right.png,,,,0,23,23,98,1,,,,,
,,,,,,,$5eec938151049a02f5206d64,2020-07-21_16h11.16.060,fisher_task,2020.1.3,MacIntel,60,-0.122018229,-0.312938368,1,0,0,1.38175,scale,,,,,,0.2468,0.2,0.302267034,0.244948974,stimuli/lakes/407092_left.png,stimuli/lakes/407092_right.png,,,,0,24,24,92,1,,,,,
,,,,,,,$5eec938151049a02f5206d64,2020-07-21_16h11.16.060,fisher_task,2020.1.3,MacIntel,60,0.145976562,-0.356345486,1,0,0,1.46471,scale,,,,,,0.302267034,0.244948974,0.2468,0.2,stimuli/lakes/603037_left.png,stimuli/lakes/603037_right.png,,,,0,25,25,37,1,,,,,
,,,,,,,$5eec938151049a02f5206d64,2020-07-21_16h11.16.060,fisher_task,2020.1.3,MacIntel,60,-0.073381076,-0.271102431,1,0,0,2.098155,scale,,,,,,0.174513954,0.141421356,0.349027907,0.282842712,stimuli/lakes/206081_left.png,stimuli/lakes/206081_right.png,,,,0,26,26,81,1,,,,,
,,,,,,,$5eec938151049a02f5206d64,2020-07-21_16h11.16.060,fisher_task,2020.1.3,MacIntel,60,0.141072049,-0.336592882,1,0,0,1.733015,scale,,,,,,0.2468,0.2,0.302267034,0.244948974,stimuli/lakes/403035_left.png,stimuli/lakes/403035_right.png,,,,0,27,27,35,1,,,,,
,,,,,,,$5eec938151049a02f5206d64,2020-07-21_16h11.16.060,fisher_task,2020.1.3,MacIntel,60,-0.149131944,-0.36687066,1,0,0,1.431805,scale,,,,,,0.21373507,0.173205081,0.326485712,0.264575131,stimuli/lakes/3090122_left.png,stimuli/lakes/3090122_right.png,,,,0,28,28,122,1,,,,,
,,,,,,,$5eec938151049a02f5206d64,2020-07-21_16h11.16.060,fisher_task,2020.1.3,MacIntel,60,0.146354167,-0.386545139,1,0,0,1.514965,scale,,,,,,0.21373507,0.173205081,0.326485712,0.264575131,stimuli/lakes/30100_left.png,stimuli/lakes/30100_right.png,,,,0,29,29,0,1,,,,,
,,,,,,,$5eec938151049a02f5206d64,2020-07-21_16h11.16.060,fisher_task,2020.1.3,MacIntel,60,-0.139045139,-0.377456597,1,0,0,1.69973,scale,,,,,,0.302267034,0.244948974,0.2468,0.2,stimuli/lakes/6080115_left.png,stimuli/lakes/6080115_right.png,,,,0,30,30,115,1,,,,,
,,,,,,,$5eec938151049a02f5206d64,2020-07-21_16h11.16.060,fisher_task,2020.1.3,MacIntel,60,0.081315104,-0.266380208,1,0,0,2.682505,scale,,,,,,0.326485712,0.264575131,0.21373507,0.173205081,stimuli/lakes/704056_left.png,stimuli/lakes/704056_right.png,,,,0,31,31,56,1,,,,,
,,,,,,,$5eec938151049a02f5206d64,2020-07-21_16h11.16.060,fisher_task,2020.1.3,MacIntel,60,-0.107573785,-0.293767361,1,0,0,1.83213,scale,,,,,,0.326485712,0.264575131,0.21373507,0.173205081,stimuli/lakes/705067_left.png,stimuli/lakes/705067_right.png,,,,0,32,32,67,1,,,,,
,,,,,,,$5eec938151049a02f5206d64,2020-07-21_16h11.16.060,fisher_task,2020.1.3,MacIntel,60,0.140260417,-0.354947917,1,0,0,2.09839,scale,,,,,,0.21373507,0.173205081,0.326485712,0.264575131,stimuli/lakes/303034_left.png,stimuli/lakes/303034_right.png,,,,0,33,33,34,1,,,,,
,,,,,,,$5eec938151049a02f5206d64,2020-07-21_16h11.16.060,fisher_task,2020.1.3,MacIntel,60,0.112625868,-0.313111979,1,0,0,1.98114,scale,,,,,,0.302267034,0.244948974,0.2468,0.2,stimuli/lakes/603028_left.png,stimuli/lakes/603028_right.png,,,,0,34,34,28,1,,,,,
,,,,,,,$5eec938151049a02f5206d64,2020-07-21_16h11.16.060,fisher_task,2020.1.3,MacIntel,60,0.07734809,-0.272782118,1,0,0,4.64812,scale,,,,,,0.21373507,0.173205081,0.326485712,0.264575131,stimuli/lakes/306073_left.png,stimuli/lakes/306073_right.png,,,,0,35,35,73,1,,,,,
,,,,,,,$5eec938151049a02f5206d64,2020-07-21_16h11.16.060,fisher_task,2020.1.3,MacIntel,60,-0.052296007,-0.273033854,1,0,0,1.66487,scale,,,,,,0.2468,0.2,0.302267034,0.244948974,stimuli/lakes/406083_left.png,stimuli/lakes/406083_right.png,,,,0,36,36,83,1,,,,,
,,,,,,,$5eec938151049a02f5206d64,2020-07-21_16h11.16.060,fisher_task,2020.1.3,MacIntel,60,-0.12608941,-0.334422743,1,0,0,1.73287,scale,,,,,,0.21373507,0.173205081,0.326485712,0.264575131,stimuli/lakes/3090121_left.png,stimuli/lakes/3090121_right.png,,,,0,37,37,121,1,,,,,
,,,,,,,$5eec938151049a02f5206d64,2020-07-21_16h11.16.060,fisher_task,2020.1.3,MacIntel,60,-0.144726562,-0.353428819,1,0,0,1.265825,scale,,,,,,0.275930788,0.223606798,0.275930788,0.223606798,stimuli/lakes/506084_left.png,stimuli/lakes/506084_right.png,,,,0,38,38,84,1,,,,,
,,,,,,,$5eec938151049a02f5206d64,2020-07-21_16h11.16.060,fisher_task,2020.1.3,MacIntel,60,0.065060764,-0.276150174,1,0,0,1.8323,scale,,,,,,0.349027907,0.282842712,0.174513954,0.141421356,stimuli/lakes/802021_left.png,stimuli/lakes/802021_right.png,,,,0,39,39,21,1,,,,,
,,,,,,,$5eec938151049a02f5206d64,2020-07-21_16h11.16.060,fisher_task,2020.1.3,MacIntel,60,-0.064861111,-0.294539931,1,0,0,2.765325,scale,,,,,,0.174513954,0.141421356,0.349027907,0.282842712,stimuli/lakes/207090_left.png,stimuli/lakes/207090_right.png,,,,0,40,40,90,1,,,,,
,,,,,,,$5eec938151049a02f5206d64,2020-07-21_16h11.16.060,fisher_task,2020.1.3,MacIntel,60,-0.106419271,-0.311840278,1,0,0,1.565735,scale,,,,,,0.302267034,0.244948974,0.2468,0.2,stimuli/lakes/606085_left.png,stimuli/lakes/606085_right.png,,,,0,41,41,85,1,,,,,
,,,,,,,$5eec938151049a02f5206d64,2020-07-21_16h11.16.060,fisher_task,2020.1.3,MacIntel,60,-0.053289931,-0.265095486,1,0,0,2.95023,scale,,,,,,0.174513954,0.141421356,0.349027907,0.282842712,stimuli/lakes/2080108_left.png,stimuli/lakes/2080108_right.png,,,,0,42,42,108,1,,,,,
,,,,,,,$5eec938151049a02f5206d64,2020-07-21_16h11.16.060,fisher_task,2020.1.3,MacIntel,60,0.084318576,-0.298198785,1,0,0,1.164455,scale,,,,,,0.2468,0.2,0.302267034,0.244948974,stimuli/lakes/403026_left.png,stimuli/lakes/403026_right.png,,,,0,43,43,26,1,,,,,
,,,,,,,$5eec938151049a02f5206d64,2020-07-21_16h11.16.060,fisher_task,2020.1.3,MacIntel,60,-0.110568576,-0.319552951,1,0,0,2.048605,scale,,,,,,0.326485712,0.264575131,0.21373507,0.173205081,stimuli/lakes/703038_left.png,stimuli/lakes/703038_right.png,,,space,0,44,44,38,1,1.131535,,,,
,,,,,,,$5eec938151049a02f5206d64,2020-07-21_16h11.16.060,fisher_task,2020.1.3,MacIntel,60,0.152452257,-0.394965278,1,0,0,1.565455,scale,,,,,,0.1234,0.1,0.3702,0.3,stimuli/lakes/103032_left.png,stimuli/lakes/103032_right.png,,,,0,45,45,32,1,,,,,
,,,,,,,$5eec938151049a02f5206d64,2020-07-21_16h11.16.060,fisher_task,2020.1.3,MacIntel,60,-0.051605903,-0.288224826,1,0,0,1.515305,scale,,,,,,0.349027907,0.282842712,0.174513954,0.141421356,stimuli/lakes/803039_left.png,stimuli/lakes/803039_right.png,,,,0,46,46,39,1,,,,,
,,,,,,,$5eec938151049a02f5206d64,2020-07-21_16h11.16.060,fisher_task,2020.1.3,MacIntel,60,0.061848958,-0.301753472,1,0,0,3.015105,scale,,,,,,0.3702,0.3,0.1234,0.1,stimuli/lakes/905070_left.png,stimuli/lakes/905070_right.png,,,,0,47,47,70,1,,,,,
,,,,,,,$5eec938151049a02f5206d64,2020-07-21_16h11.16.060,fisher_task,2020.1.3,MacIntel,60,0.094552951,-0.305733507,1,0,0,1.93349,scale,,,,,,0.349027907,0.282842712,0.174513954,0.141421356,stimuli/lakes/804048_left.png,stimuli/lakes/804048_right.png,,,,0,48,48,48,1,,,,,
,,,,,,,$5eec938151049a02f5206d64,2020-07-21_16h11.16.060,fisher_task,2020.1.3,MacIntel,60,0.044852431,-0.288355035,1,0,0,2.34952,scale,,,,,,0.349027907,0.282842712,0.174513954,0.141421356,stimuli/lakes/803030_left.png,stimuli/lakes/803030_right.png,,,,0,49,49,30,1,,,,,
,,,,,,,$5eec938151049a02f5206d64,2020-07-21_16h11.16.060,fisher_task,2020.1.3,MacIntel,60,-0.140217014,-0.343389757,1,0,0,1.34905,scale,,,,,,0.3702,0.3,0.1234,0.1,stimuli/lakes/907097_left.png,stimuli/lakes/907097_right.png,,,,0,50,50,97,1,,,,,
,,,,,,,$5eec938151049a02f5206d64,2020-07-21_16h11.16.060,fisher_task,2020.1.3,MacIntel,60,-0.141180556,-0.362326389,1,0,0,1.23241,scale,,,,,,0.3702,0.3,0.1234,0.1,stimuli/lakes/9070106_left.png,stimuli/lakes/9070106_right.png,,,,0,51,51,106,1,,,,,
,,,,,,,$5eec938151049a02f5206d64,2020-07-21_16h11.16.060,fisher_task,2020.1.3,MacIntel,60,0.120494792,-0.323563368,1,0,0,1.332245,scale,,,,,,0.275930788,0.223606798,0.275930788,0.223606798,stimuli/lakes/503027_left.png,stimuli/lakes/503027_right.png,,,,0,52,52,27,1,,,,,
,,,,,,,$5eec938151049a02f5206d64,2020-07-21_16h11.16.060,fisher_task,2020.1.3,MacIntel,60,-0.111935764,-0.32844184,1,0,0,1.582785,scale,,,,,,0.275930788,0.223606798,0.275930788,0.223606798,stimuli/lakes/507093_left.png,stimuli/lakes/507093_right.png,,,,0,53,53,93,1,,,,,
,,,,,,,$5eec938151049a02f5206d64,2020-07-21_16h11.16.060,fisher_task,2020.1.3,MacIntel,60,0.143867187,-0.354618056,1,0,0,1.36519,scale,,,,,,0.302267034,0.244948974,0.2468,0.2,stimuli/lakes/602017_left.png,stimuli/lakes/602017_right.png,,,,0,54,54,17,1,,,,,
,,,,,,,$5eec938151049a02f5206d64,2020-07-21_16h11.16.060,fisher_task,2020.1.3,MacIntel,60,-0.151488715,-0.370568576,1,0,0,1.51781,scale,,,,,,0.326485712,0.264575131,0.21373507,0.173205081,stimuli/lakes/7090129_left.png,stimuli/lakes/7090129_right.png,,,,0,55,55,129,1,,,,,
,,,,,,,$5eec938151049a02f5206d64,2020-07-21_16h11.16.060,fisher_task,2020.1.3,MacIntel,60,-0.15655816,-0.393185764,1,0,0,1.11689,scale,,,,,,0.302267034,0.244948974,0.2468,0.2,stimuli/lakes/6090126_left.png,stimuli/lakes/6090126_right.png,,,,0,56,56,126,1,,,,,
,,,,,,,$5eec938151049a02f5206d64,2020-07-21_16h11.16.060,fisher_task,2020.1.3,MacIntel,60,-0.135668403,-0.356896701,1,0,0,1.382645,scale,,,,,,0.302267034,0.244948974,0.2468,0.2,stimuli/lakes/607094_left.png,stimuli/lakes/607094_right.png,,,,0,57,57,94,1,,,,,
,,,,,,,$5eec938151049a02f5206d64,2020-07-21_16h11.16.060,fisher_task,2020.1.3,MacIntel,60,0.150807292,-0.353953993,1,0,0,1.38211,scale,,,,,,0.2468,0.2,0.302267034,0.244948974,stimuli/lakes/404044_left.png,stimuli/lakes/404044_right.png,,,,0,58,58,44,1,,,,,
,,,,,,,$5eec938151049a02f5206d64,2020-07-21_16h11.16.060,fisher_task,2020.1.3,MacIntel,60,-0.131666667,-0.344422743,1,0,0,2.08219,scale,,,,,,0.2468,0.2,0.302267034,0.244948974,stimuli/lakes/4080112_left.png,stimuli/lakes/4080112_right.png,,,,0,59,59,112,1,,,,,
,,,,,,,$5eec938151049a02f5206d64,2020-07-21_16h11.16.060,fisher_task,2020.1.3,MacIntel,60,0.086805556,-0.287070312,1,0,0,1.665845,scale,,,,,,0.275930788,0.223606798,0.275930788,0.223606798,stimuli/lakes/504045_left.png,stimuli/lakes/504045_right.png,,,,0,60,60,45,1,,,,,
,,,,,,,$5eec938151049a02f5206d64,2020-07-21_16h11.16.060,fisher_task,2020.1.3,MacIntel,60,-0.049739583,-0.270698785,1,0,0,2.23386,scale,,,,,,0.1234,0.1,0.3702,0.3,stimuli/lakes/106071_left.png,stimuli/lakes/106071_right.png,,,,0,61,61,71,1,,,,,
,,,,,,,$5eec938151049a02f5206d64,2020-07-21_16h11.16.060,fisher_task,2020.1.3,MacIntel,60,-0.10859809,-0.312087674,1,0,0,1.649625,scale,,,,,,0.21373507,0.173205081,0.326485712,0.264575131,stimuli/lakes/3080109_left.png,stimuli/lakes/3080109_right.png,,,,0,62,62,109,1,,,,,
,,,,,,,$5eec938151049a02f5206d64,2020-07-21_16h11.16.060,fisher_task,2020.1.3,MacIntel,60,0.117938368,-0.308255208,1,0,0,2.549505,scale,,,,,,0.326485712,0.264575131,0.21373507,0.173205081,stimuli/lakes/702020_left.png,stimuli/lakes/702020_right.png,,,,0,63,63,20,1,,,,,
,,,,,,,$5eec938151049a02f5206d64,2020-07-21_16h11.16.060,fisher_task,2020.1.3,MacIntel,60,0.146610243,-0.344904514,1,0,0,1.932995,scale,,,,,,0.1234,0.1,0.3702,0.3,stimuli/lakes/104050_left.png,stimuli/lakes/104050_right.png,,,,0,64,64,50,1,,,,,
,,,,,,,$5eec938151049a02f5206d64,2020-07-21_16h11.16.060,fisher_task,2020.1.3,MacIntel,60,0.147456597,-0.370993924,1,0,0,1.281705,scale,,,,,,0.2468,0.2,0.302267034,0.244948974,stimuli/lakes/402014_left.png,stimuli/lakes/402014_right.png,,,,0,65,65,14,1,,,,,
,,,,,,,$5eec938151049a02f5206d64,2020-07-21_16h11.16.060,fisher_task,2020.1.3,MacIntel,60,-0.139023438,-0.377100694,1,0,0,1.41821,scale,,,,,,0.349027907,0.282842712,0.174513954,0.141421356,stimuli/lakes/807096_left.png,stimuli/lakes/807096_right.png,,,space,0,66,66,96,1,3.00219,,,,
,,,,,,,$5eec938151049a02f5206d64,2020-07-21_16h11.16.060,fisher_task,2020.1.3,MacIntel,60,0.102061632,-0.300859375,1,0,0,1.631745,scale,,,,,,0.3702,0.3,0.1234,0.1,stimuli/lakes/903040_left.png,stimuli/lakes/903040_right.png,,,,0,67,67,40,1,,,,,
,,,,,,,$5eec938151049a02f5206d64,2020-07-21_16h11.16.060,fisher_task,2020.1.3,MacIntel,60,-0.145203993,-0.403333333,1,0,0,1.78137,scale,,,,,,0.275930788,0.223606798,0.275930788,0.223606798,stimuli/lakes/5090125_left.png,stimuli/lakes/5090125_right.png,,,,0,68,68,125,1,,,,,
,,,,,,,$5eec938151049a02f5206d64,2020-07-21_16h11.16.060,fisher_task,2020.1.3,MacIntel,60,0.133858507,-0.332634549,1,0,0,1.44785,scale,,,,,,0.21373507,0.173205081,0.326485712,0.264575131,stimuli/lakes/304043_left.png,stimuli/lakes/304043_right.png,,,,0,69,69,43,1,,,,,
,,,,,,,$5eec938151049a02f5206d64,2020-07-21_16h11.16.060,fisher_task,2020.1.3,MacIntel,60,-0.159461806,-0.409201389,1,0,0,1.31692,scale,,,,,,0.326485712,0.264575131,0.21373507,0.173205081,stimuli/lakes/7090128_left.png,stimuli/lakes/7090128_right.png,,,,0,70,70,128,1,,,,,
,,,,,,,$5eec938151049a02f5206d64,2020-07-21_16h11.16.060,fisher_task,2020.1.3,MacIntel,60,-0.088632813,-0.281588542,1,0,0,1.664935,scale,,,,,,0.3702,0.3,0.1234,0.1,stimuli/lakes/904058_left.png,stimuli/lakes/904058_right.png,,,,0,71,71,58,1,,,,,
,,,,,,,$5eec938151049a02f5206d64,2020-07-21_16h11.16.060,fisher_task,2020.1.3,MacIntel,60,-0.049210069,-0.259470486,1,0,0,1.46539,scale,,,,,,0.174513954,0.141421356,0.349027907,0.282842712,stimuli/lakes/206072_left.png,stimuli/lakes/206072_right.png,,,,0,72,72,72,1,,,,,
,,,,,,,$5eec938151049a02f5206d64,2020-07-21_16h11.16.060,fisher_task,2020.1.3,MacIntel,60,0.068841146,-0.27187934,1,0,0,2.31649,scale,,,,,,0.3702,0.3,0.1234,0.1,stimuli/lakes/901010_left.png,stimuli/lakes/901010_right.png,,,,0,73,73,10,1,,,,,
,,,,,,,$5eec938151049a02f5206d64,2020-07-21_16h11.16.060,fisher_task,2020.1.3,MacIntel,60,0.093519965,-0.29375,1,0,0,2.017575,scale,,,,,,0.302267034,0.244948974,0.2468,0.2,stimuli/lakes/605066_left.png,stimuli/lakes/605066_right.png,,,,0,74,74,66,1,,,,,
,,,,,,,$5eec938151049a02f5206d64,2020-07-21_16h11.16.060,fisher_task,2020.1.3,MacIntel,60,0.130108507,-0.328250868,1,0,0,2.04886,scale,,,,,,0.1234,0.1,0.3702,0.3,stimuli/lakes/104041_left.png,stimuli/lakes/104041_right.png,,,,0,75,75,41,1,,,,,
,,,,,,,$5eec938151049a02f5206d64,2020-07-21_16h11.16.060,fisher_task,2020.1.3,MacIntel,60,-0.070690104,-0.293085938,1,0,0,3.19813,scale,,,,,,0.302267034,0.244948974,0.2468,0.2,stimuli/lakes/606076_left.png,stimuli/lakes/606076_right.png,,,,0,76,76,76,1,,,,,
,,,,,,,$5eec938151049a02f5206d64,2020-07-21_16h11.16.060,fisher_task,2020.1.3,MacIntel,60,0.12984375,-0.320815972,1,0,0,1.599315,scale,,,,,,0.2468,0.2,0.302267034,0.244948974,stimuli/lakes/404053_left.png,stimuli/lakes/404053_right.png,,,,0,77,77,53,1,,,,,
,,,,,,,$5eec938151049a02f5206d64,2020-07-21_16h11.16.060,fisher_task,2020.1.3,MacIntel,60,-0.073962674,-0.284765625,1,0,0,1.931,scale,,,,,,0.3702,0.3,0.1234,0.1,stimuli/lakes/904049_left.png,stimuli/lakes/904049_right.png,,,,0,78,78,49,1,,,,,
,,,,,,,$5eec938151049a02f5206d64,2020-07-21_16h11.16.060,fisher_task,2020.1.3,MacIntel,60,0.092847222,-0.301918403,1,0,0,1.91576,scale,,,,,,0.174513954,0.141421356,0.349027907,0.282842712,stimuli/lakes/203024_left.png,stimuli/lakes/203024_right.png,,,,0,79,79,24,1,,,,,
,,,,,,,$5eec938151049a02f5206d64,2020-07-21_16h11.16.060,fisher_task,2020.1.3,MacIntel,60,0.144822049,-0.330855035,1,0,0,1.215845,scale,,,,,,0.2468,0.2,0.302267034,0.244948974,stimuli/lakes/402015_left.png,stimuli/lakes/402015_right.png,,,,0,80,80,15,1,,,,,
,,,,,,,$5eec938151049a02f5206d64,2020-07-21_16h11.16.060,fisher_task,2020.1.3,MacIntel,60,-0.141657986,-0.390269097,1,0,0,1.34906,scale,,,,,,0.326485712,0.264575131,0.21373507,0.173205081,stimuli/lakes/7080117_left.png,stimuli/lakes/7080117_right.png,,,,0,81,81,117,1,,,,,
,,,,,,,$5eec938151049a02f5206d64,2020-07-21_16h11.16.060,fisher_task,2020.1.3,MacIntel,60,-0.102491319,-0.319114583,1,0,0,2.31493,scale,,,,,,0.326485712,0.264575131,0.21373507,0.173205081,stimuli/lakes/705068_left.png,stimuli/lakes/705068_right.png,,,,0,82,82,68,1,,,,,
,,,,,,,$5eec938151049a02f5206d64,2020-07-21_16h11.16.060,fisher_task,2020.1.3,MacIntel,60,0.118715278,-0.303980035,1,0,0,2.049115,scale,,,,,,0.174513954,0.141421356,0.349027907,0.282842712,stimuli/lakes/204042_left.png,stimuli/lakes/204042_right.png,,,,0,83,83,42,1,,,,,
,,,,,,,$5eec938151049a02f5206d64,2020-07-21_16h11.16.060,fisher_task,2020.1.3,MacIntel,60,0.13969184,-0.348919271,1,0,0,1.199605,scale,,,,,,0.21373507,0.173205081,0.326485712,0.264575131,stimuli/lakes/302012_left.png,stimuli/lakes/302012_right.png,,,,0,84,84,12,1,,,,,
,,,,,,,$5eec938151049a02f5206d64,2020-07-21_16h11.16.060,fisher_task,2020.1.3,MacIntel,60,0.047009549,-0.273046875,1,0,0,2.26505,scale,,,,,,0.302267034,0.244948974,0.2468,0.2,stimuli/lakes/604055_left.png,stimuli/lakes/604055_right.png,,,,0,85,85,55,1,,,,,
,,,,,,,$5eec938151049a02f5206d64,2020-07-21_16h11.16.060,fisher_task,2020.1.3,MacIntel,60,0.070746528,-0.280533854,1,0,0,2.19878,scale,,,,,,0.326485712,0.264575131,0.21373507,0.173205081,stimuli/lakes/704047_left.png,stimuli/lakes/704047_right.png,,,,0,86,86,47,1,,,,,
,,,,,,,$5eec938151049a02f5206d64,2020-07-21_16h11.16.060,fisher_task,2020.1.3,MacIntel,60,-0.127912326,-0.344157986,1,0,0,1.482905,scale,,,,,,0.2468,0.2,0.302267034,0.244948974,stimuli/lakes/4070101_left.png,stimuli/lakes/4070101_right.png,,,,0,87,87,101,1,,,,,
,,,,,,,$5eec938151049a02f5206d64,2020-07-21_16h11.16.060,fisher_task,2020.1.3,MacIntel,60,0.082139757,-0.291549479,1,0,0,1.7325,scale,,,,,,0.349027907,0.282842712,0.174513954,0.141421356,stimuli/lakes/804057_left.png,stimuli/lakes/804057_right.png,,,space,0,88,88,57,1,2.384105,,,,
,,,,,,,$5eec938151049a02f5206d64,2020-07-21_16h11.16.060,fisher_task,2020.1.3,MacIntel,60,0.142235243,-0.361046007,1,0,0,1.29942,scale,,,,,,0.2468,0.2,0.302267034,0.244948974,stimuli/lakes/40102_left.png,stimuli/lakes/40102_right.png,,,,0,89,89,2,1,,,,,
,,,,,,,$5eec938151049a02f5206d64,2020-07-21_16h11.16.060,fisher_task,2020.1.3,MacIntel,60,0.131848958,-0.33765191,1,0,0,1.565695,scale,,,,,,0.21373507,0.173205081,0.326485712,0.264575131,stimuli/lakes/304052_left.png,stimuli/lakes/304052_right.png,,,,0,90,90,52,1,,,,,
,,,,,,,$5eec938151049a02f5206d64,2020-07-21_16h11.16.060,fisher_task,2020.1.3,MacIntel,60,0.08328559,-0.293810764,1,0,0,1.916875,scale,,,,,,0.326485712,0.264575131,0.21373507,0.173205081,stimuli/lakes/70107_left.png,stimuli/lakes/70107_right.png,,,,0,91,91,7,1,,,,,
,,,,,,,$5eec938151049a02f5206d64,2020-07-21_16h11.16.060,fisher_task,2020.1.3,MacIntel,60,-0.115217014,-0.314257813,1,0,0,1.417485,scale,,,,,,0.21373507,0.173205081,0.326485712,0.264575131,stimuli/lakes/306082_left.png,stimuli/lakes/306082_right.png,,,,0,92,92,82,1,,,,,
,,,,,,,$5eec938151049a02f5206d64,2020-07-21_16h11.16.060,fisher_task,2020.1.3,MacIntel,60,-0.05375,-0.264648438,1,0,0,1.73267,scale,,,,,,0.275930788,0.223606798,0.275930788,0.223606798,stimuli/lakes/506075_left.png,stimuli/lakes/506075_right.png,,,,0,93,93,75,1,,,,,
,,,,,,,$5eec938151049a02f5206d64,2020-07-21_16h11.16.060,fisher_task,2020.1.3,MacIntel,60,-0.002834201,-0.253854167,1,0,0,2.331765,scale,,,,,,0.349027907,0.282842712,0.174513954,0.141421356,stimuli/lakes/805069_left.png,stimuli/lakes/805069_right.png,,,,0,94,94,69,1,,,,,
,,,,,,,$5eec938151049a02f5206d64,2020-07-21_16h11.16.060,fisher_task,2020.1.3,MacIntel,60,-0.151006944,-0.368767361,1,0,0,1.465485,scale,,,,,,0.275930788,0.223606798,0.275930788,0.223606798,stimuli/lakes/5080113_left.png,stimuli/lakes/5080113_right.png,,,,0,95,95,113,1,,,,,
,,,,,,,$5eec938151049a02f5206d64,2020-07-21_16h11.16.060,fisher_task,2020.1.3,MacIntel,60,0.141536458,-0.320260417,1,0,0,2.381805,scale,,,,,,0.275930788,0.223606798,0.275930788,0.223606798,stimuli/lakes/503036_left.png,stimuli/lakes/503036_right.png,,,,0,96,96,36,1,,,,,
,,,,,,,$5eec938151049a02f5206d64,2020-07-21_16h11.16.060,fisher_task,2020.1.3,MacIntel,60,0.090685764,-0.294548611,1,0,0,1.665855,scale,,,,,,0.326485712,0.264575131,0.21373507,0.173205081,stimuli/lakes/70108_left.png,stimuli/lakes/70108_right.png,,,,0,97,97,8,1,,,,,
,,,,,,,$5eec938151049a02f5206d64,2020-07-21_16h11.16.060,fisher_task,2020.1.3,MacIntel,60,0.111835937,-0.310234375,1,0,0,1.318405,scale,,,,,,0.275930788,0.223606798,0.275930788,0.223606798,stimuli/lakes/504054_left.png,stimuli/lakes/504054_right.png,,,,0,98,98,54,1,,,,,
,,,,,,,$5eec938151049a02f5206d64,2020-07-21_16h11.16.060,fisher_task,2020.1.3,MacIntel,60,0.068645833,-0.274157986,1,0,0,1.51559,scale,,,,,,0.3702,0.3,0.1234,0.1,stimuli/lakes/902022_left.png,stimuli/lakes/902022_right.png,,,,0,99,99,22,1,,,,,
,,,,,,,$5eec938151049a02f5206d64,2020-07-21_16h11.16.060,fisher_task,2020.1.3,MacIntel,60,-0.149639757,-0.377677951,1,0,0,2.164535,scale,,,,,,0.1234,0.1,0.3702,0.3,stimuli/lakes/1080107_left.png,stimuli/lakes/1080107_right.png,,,,0,100,100,107,1,,,,,
,,,,,,,$5eec938151049a02f5206d64,2020-07-21_16h11.16.060,fisher_task,2020.1.3,MacIntel,60,-0.129201389,-0.339596354,1,0,0,2.116645,scale,,,,,,0.326485712,0.264575131,0.21373507,0.173205081,stimuli/lakes/706086_left.png,stimuli/lakes/706086_right.png,,,,0,101,101,86,1,,,,,
,,,,,,,$5eec938151049a02f5206d64,2020-07-21_16h11.16.060,fisher_task,2020.1.3,MacIntel,60,0.150672743,-0.394539931,1,0,0,1.714845,scale,,,,,,0.1234,0.1,0.3702,0.3,stimuli/lakes/103023_left.png,stimuli/lakes/103023_right.png,,,,0,102,102,23,1,,,,,
,,,,,,,$5eec938151049a02f5206d64,2020-07-21_16h11.16.060,fisher_task,2020.1.3,MacIntel,60,0.095221354,-0.29234809,1,0,0,2.11703,scale,,,,,,0.3702,0.3,0.1234,0.1,stimuli/lakes/903031_left.png,stimuli/lakes/903031_right.png,,,,0,103,103,31,1,,,,,
,,,,,,,$5eec938151049a02f5206d64,2020-07-21_16h11.16.060,fisher_task,2020.1.3,MacIntel,60,-0.151276042,-0.383498264,1,0,0,1.33123,scale,,,,,,0.2468,0.2,0.302267034,0.244948974,stimuli/lakes/4080111_left.png,stimuli/lakes/4080111_right.png,,,,0,104,104,111,1,,,,,
,,,,,,,$5eec938151049a02f5206d64,2020-07-21_16h11.16.060,fisher_task,2020.1.3,MacIntel,60,-0.113576389,-0.312486979,1,0,0,1.74818,scale,,,,,,0.1234,0.1,0.3702,0.3,stimuli/lakes/106080_left.png,stimuli/lakes/106080_right.png,,,,0,105,105,80,1,,,,,
,,,,,,,$5eec938151049a02f5206d64,2020-07-21_16h11.16.060,fisher_task,2020.1.3,MacIntel,60,0.150590278,-0.389830729,1,0,0,1.398805,scale,,,,,,0.21373507,0.173205081,0.326485712,0.264575131,stimuli/lakes/303025_left.png,stimuli/lakes/303025_right.png,,,,0,106,106,25,1,,,,,
,,,,,,,$5eec938151049a02f5206d64,2020-07-21_16h11.16.060,fisher_task,2020.1.3,MacIntel,60,0.159418403,-0.41797309,1,0,0,1.498575,scale,,,,,,0.2468,0.2,0.302267034,0.244948974,stimuli/lakes/40103_left.png,stimuli/lakes/40103_right.png,,,,0,107,107,3,1,,,,,
,,,,,,,$5eec938151049a02f5206d64,2020-07-21_16h11.16.060,fisher_task,2020.1.3,MacIntel,60,-0.153155382,-0.427851563,1,0,0,1.46542,scale,,,,,,0.349027907,0.282842712,0.174513954,0.141421356,stimuli/lakes/8080118_left.png,stimuli/lakes/8080118_right.png,,,,0,108,108,118,1,,,,,
,,,,,,,$5eec938151049a02f5206d64,2020-07-21_16h11.16.060,fisher_task,2020.1.3,MacIntel,60,-0.050967882,-0.263719618,1,0,0,2.281745,scale,,,,,,0.21373507,0.173205081,0.326485712,0.264575131,stimuli/lakes/3070100_left.png,stimuli/lakes/3070100_right.png,,,,0,109,109,100,1,,,,,
,,,,,,,$5eec938151049a02f5206d64,2020-07-21_16h11.16.060,fisher_task,2020.1.3,MacIntel,60,-0.126284722,-0.305577257,1,0,0,1.26568,scale,,,,,,0.21373507,0.173205081,0.326485712,0.264575131,stimuli/lakes/307091_left.png,stimuli/lakes/307091_right.png,,,space,0,110,110,91,1,1.551735,,,,
,,,,,,,$5eec938151049a02f5206d64,2020-07-21_16h11.16.060,fisher_task,2020.1.3,MacIntel,60,0.130976563,-0.331193576,1,0,0,1.76516,scale,,,,,,0.174513954,0.141421356,0.349027907,0.282842712,stimuli/lakes/204051_left.png,stimuli/lakes/204051_right.png,,,,0,111,111,51,1,,,,,
,,,,,,,$5eec938151049a02f5206d64,2020-07-21_16h11.16.060,fisher_task,2020.1.3,MacIntel,60,0.058428819,-0.27547309,1,0,0,1.56507,scale,,,,,,0.326485712,0.264575131,0.21373507,0.173205081,stimuli/lakes/703029_left.png,stimuli/lakes/703029_right.png,,,,0,112,112,29,1,,,,,
,,,,,,,$5eec938151049a02f5206d64,2020-07-21_16h11.16.060,fisher_task,2020.1.3,MacIntel,60,-0.152248264,-0.388420139,1,0,0,1.448155,scale,,,,,,0.326485712,0.264575131,0.21373507,0.173205081,stimuli/lakes/707095_left.png,stimuli/lakes/707095_right.png,,,,0,113,113,95,1,,,,,
,,,,,,,$5eec938151049a02f5206d64,2020-07-21_16h11.16.060,fisher_task,2020.1.3,MacIntel,60,-0.137552083,-0.345577257,1,0,0,1.866905,scale,,,,,,0.3702,0.3,0.1234,0.1,stimuli/lakes/906079_left.png,stimuli/lakes/906079_right.png,,,,0,114,114,79,1,,,,,
,,,,,,,$5eec938151049a02f5206d64,2020-07-21_16h11.16.060,fisher_task,2020.1.3,MacIntel,60,-0.092777778,-0.275499132,1,0,0,1.4148,scale,,,,,,0.349027907,0.282842712,0.174513954,0.141421356,stimuli/lakes/806087_left.png,stimuli/lakes/806087_right.png,,,,0,115,115,87,1,,,,,
,,,,,,,$5eec938151049a02f5206d64,2020-07-21_16h11.16.060,fisher_task,2020.1.3,MacIntel,60,-0.110668403,-0.312569444,1,0,0,2.18125,scale,,,,,,0.1234,0.1,0.3702,0.3,stimuli/lakes/1090119_left.png,stimuli/lakes/1090119_right.png,,,,0,116,116,119,1,,,,,
,,,,,,,$5eec938151049a02f5206d64,2020-07-21_16h11.16.060,fisher_task,2020.1.3,MacIntel,60,0.116983507,-0.319422743,1,0,0,1.498655,scale,,,,,,0.2468,0.2,0.302267034,0.244948974,stimuli/lakes/405064_left.png,stimuli/lakes/405064_right.png,,,,0,117,117,64,1,,,,,
,,,,,,,$5eec938151049a02f5206d64,2020-07-21_16h11.16.060,fisher_task,2020.1.3,MacIntel,60,-0.115607639,-0.339314236,1,0,0,1.333025,scale,,,,,,0.174513954,0.141421356,0.349027907,0.282842712,stimuli/lakes/207099_left.png,stimuli/lakes/207099_right.png,,,,0,118,118,99,1,,,,,
,,,,,,,$5eec938151049a02f5206d64,2020-07-21_16h11.16.060,fisher_task,2020.1.3,MacIntel,60,0.145598958,-0.381106771,1,0,0,1.69899,scale,,,,,,0.302267034,0.244948974,0.2468,0.2,stimuli/lakes/60105_left.png,stimuli/lakes/60105_right.png,,,,0,119,119,5,1,,,,,
,,,,,,,$5eec938151049a02f5206d64,2020-07-21_16h11.16.060,fisher_task,2020.1.3,MacIntel,60,-0.148706597,-0.379939236,1,0,0,1.264835,scale,,,,,,0.275930788,0.223606798,0.275930788,0.223606798,stimuli/lakes/5070102_left.png,stimuli/lakes/5070102_right.png,,,,0,120,120,102,1,,,,,
,,,,,,,$5eec938151049a02f5206d64,2020-07-21_16h11.16.060,fisher_task,2020.1.3,MacIntel,60,-0.130199653,-0.340820313,1,0,0,1.11619,scale,,,,,,0.302267034,0.244948974,0.2468,0.2,stimuli/lakes/6080114_left.png,stimuli/lakes/6080114_right.png,,,,0,121,121,114,1,,,,,
,,,,,,,$5eec938151049a02f5206d64,2020-07-21_16h11.16.060,fisher_task,2020.1.3,MacIntel,60,-0.141987847,-0.372100694,1,0,0,1.133605,scale,,,,,,0.326485712,0.264575131,0.21373507,0.173205081,stimuli/lakes/7080116_left.png,stimuli/lakes/7080116_right.png,,,,0,122,122,116,1,,,,,
,,,,,,,$5eec938151049a02f5206d64,2020-07-21_16h11.16.060,fisher_task,2020.1.3,MacIntel,60,0.147955729,-0.415533854,1,0,0,1.89807,scale,,,,,,0.21373507,0.173205081,0.326485712,0.264575131,stimuli/lakes/302013_left.png,stimuli/lakes/302013_right.png,,,,0,123,123,13,1,,,,,
,,,,,,,$5eec938151049a02f5206d64,2020-07-21_16h11.16.060,fisher_task,2020.1.3,MacIntel,60,-0.13812934,-0.36953559,1,0,0,1.64774,scale,,,,,,0.3702,0.3,0.1234,0.1,stimuli/lakes/906088_left.png,stimuli/lakes/906088_right.png,,,,0,124,124,88,1,,,,,
,,,,,,,$5eec938151049a02f5206d64,2020-07-21_16h11.16.060,fisher_task,2020.1.3,MacIntel,60,0.161853299,-0.335190972,1,0,0,1.5843,scale,,,,,,0.174513954,0.141421356,0.349027907,0.282842712,stimuli/lakes/205060_left.png,stimuli/lakes/205060_right.png,,,,0,125,125,60,1,,,,,
,,,,,,,$5eec938151049a02f5206d64,2020-07-21_16h11.16.060,fisher_task,2020.1.3,MacIntel,60,-0.077695313,-0.279023438,1,0,0,1.434,scale,,,,,,0.1234,0.1,0.3702,0.3,stimuli/lakes/107089_left.png,stimuli/lakes/107089_right.png,,,,0,126,126,89,1,,,,,
,,,,,,,$5eec938151049a02f5206d64,2020-07-21_16h11.16.060,fisher_task,2020.1.3,MacIntel,60,-0.128090278,-0.33733941,1,0,0,1.297935,scale,,,,,,0.349027907,0.282842712,0.174513954,0.141421356,stimuli/lakes/806078_left.png,stimuli/lakes/806078_right.png,,,,0,127,127,78,1,,,,,
,,,,,,,$5eec938151049a02f5206d64,2020-07-21_16h11.16.060,fisher_task,2020.1.3,MacIntel,60,-0.144045139,-0.37390625,1,0,0,1.18181,scale,,,,,,0.174513954,0.141421356,0.349027907,0.282842712,stimuli/lakes/2090120_left.png,stimuli/lakes/2090120_right.png,,,,0,128,128,120,1,,,,,
,,,,,,,$5eec938151049a02f5206d64,2020-07-21_16h11.16.060,fisher_task,2020.1.3,MacIntel,60,-0.126388889,-0.322534722,1,0,0,1.483615,scale,,,,,,0.349027907,0.282842712,0.174513954,0.141421356,stimuli/lakes/8070105_left.png,stimuli/lakes/8070105_right.png,,,,0,129,129,105,1,,,,,
,,,,,,,$5eec938151049a02f5206d64,2020-07-21_16h11.16.060,fisher_task,2020.1.3,MacIntel,60,,,,,,,,,,,,,,,,,,,,,,,,,,,,space,5.37316,space,6.994155
