keySpace.keys,instructions.thisRepN,instructions.thisTrialN,instructions.thisN,instructions.thisIndex,instructions.ran,participant,date,expName,psychopyVersion,OS,frameRate,mouse.x,mouse.y,mouse.leftButton,mouse.midButton,mouse.rightButton,mouse.time,mouse.clicked_name,training.thisRepN,training.thisTrialN,training.thisN,training.thisIndex,training.ran,widthBasketLeft,heightBasketLeft,widthBasketRight,heightBasketRight,leftLake,rightLake,space2.keys,space2.rt,space1.keys,trials.thisRepN,trials.thisTrialN,trials.thisN,trials.thisIndex,trials.ran,space1.rt,finalSpace1.keys,finalSpace1.rt,finalSpace2.keys,finalSpace2.rt
,0,0,0,0,1,$5ec259bf5450f10288c82f75,2020-07-21_16h13.06.887,fisher_task,2020.1.3,MacIntel,60,,,,,,,,,,,,,,,,,,,,,,,,,,,,,,,
,,,,,,$5ec259bf5450f10288c82f75,2020-07-21_16h13.06.887,fisher_task,2020.1.3,MacIntel,60,0.153917411,-0.361220238,1,0,0,8.84662,scale,0,0,0,0,1,0.275930788,0.223606798,0.275930788,0.223606798,stimuli/training/20_left.png,stimuli/training/20_right.png,,,,,,,,,,,,,
,,,,,,$5ec259bf5450f10288c82f75,2020-07-21_16h13.06.887,fisher_task,2020.1.3,MacIntel,60,-0.158154762,-0.383005952,1,0,0,5.14156,scale,0,1,1,1,1,0.275930788,0.223606798,0.275930788,0.223606798,stimuli/training/80_left.png,stimuli/training/80_right.png,,,,,,,,,,,,,
,,,,,,$5ec259bf5450f10288c82f75,2020-07-21_16h13.06.887,fisher_task,2020.1.3,MacIntel,60,0.153649554,-0.388675595,1,0,0,2.58008,scale,0,2,2,2,1,0.174513954,0.141421356,0.349027907,0.282842712,stimuli/training/50_left.png,stimuli/training/50_right.png,,,,,,,,,,,,,
,,,,,,$5ec259bf5450f10288c82f75,2020-07-21_16h13.06.887,fisher_task,2020.1.3,MacIntel,60,-0.122756696,-0.301971726,1,0,0,3.215105,scale,0,3,3,3,1,0.349027907,0.282842712,0.174513954,0.141421356,stimuli/training/50_left.png,stimuli/training/50_right.png,,,,,,,,,,,,,
,,,,,,$5ec259bf5450f10288c82f75,2020-07-21_16h13.06.887,fisher_task,2020.1.3,MacIntel,60,0.039196429,-0.271387649,1,0,0,6.946555,scale,0,4,4,4,1,0.275930788,0.223606798,0.275930788,0.223606798,stimuli/training/50_left.png,stimuli/training/50_right.png,,,,,,,,,,,,,
,,,,,,$5ec259bf5450f10288c82f75,2020-07-21_16h13.06.887,fisher_task,2020.1.3,MacIntel,60,0.13155878,-0.426227679,1,0,0,2.076555,scale,0,5,5,5,1,0.174513954,0.141421356,0.349027907,0.282842712,stimuli/training/20_left.png,stimuli/training/20_right.png,,,,,,,,,,,,,
,,,,,,$5ec259bf5450f10288c82f75,2020-07-21_16h13.06.887,fisher_task,2020.1.3,MacIntel,60,-0.149043899,-0.416138393,1,0,0,1.562905,scale,0,6,6,6,1,0.349027907,0.282842712,0.174513954,0.141421356,stimuli/training/80_left.png,stimuli/training/80_right.png,,,,,,,,,,,,,
,,,,,,$5ec259bf5450f10288c82f75,2020-07-21_16h13.06.887,fisher_task,2020.1.3,MacIntel,60,0.158292411,-0.430029762,1,0,0,2.653665,scale,0,7,7,7,1,0.1234,0.1,0.3702,0.3,stimuli/training/30_left.png,stimuli/training/30_right.png,,,,,,,,,,,,,
,,,,,,$5ec259bf5450f10288c82f75,2020-07-21_16h13.06.887,fisher_task,2020.1.3,MacIntel,60,-0.155130208,-0.386595982,1,0,0,4.144,scale,0,8,8,8,1,0.3702,0.3,0.1234,0.1,stimuli/training/70_left.png,stimuli/training/70_right.png,,,,,,,,,,,,,
,,,,,,$5ec259bf5450f10288c82f75,2020-07-21_16h13.06.887,fisher_task,2020.1.3,MacIntel,60,-0.164482887,-0.422161458,1,0,0,1.41859,scale,0,9,9,9,1,0.326485712,0.264575131,0.21373507,0.173205081,stimuli/training/90_left.png,stimuli/training/90_right.png,,,,,,,,,,,,,
,,,,,,$5ec259bf5450f10288c82f75,2020-07-21_16h13.06.887,fisher_task,2020.1.3,MacIntel,60,0.158783482,-0.43188244,1,0,0,1.191575,scale,0,10,10,10,1,0.21373507,0.173205081,0.326485712,0.264575131,stimuli/training/10_left.png,stimuli/training/10_right.png,,,,,,,,,,,,,
,,,,,,$5ec259bf5450f10288c82f75,2020-07-21_16h13.06.887,fisher_task,2020.1.3,MacIntel,60,-0.160915179,-0.402987351,1,0,0,1.765855,scale,,,,,,0.349027907,0.282842712,0.174513954,0.141421356,stimuli/lakes/8080118_left.png,stimuli/lakes/8080118_right.png,space,4.1481,,0,0,0,118,1,,,,,
,,,,,,$5ec259bf5450f10288c82f75,2020-07-21_16h13.06.887,fisher_task,2020.1.3,MacIntel,60,-0.140502232,-0.331856399,1,0,0,10.09369,scale,,,,,,0.174513954,0.141421356,0.349027907,0.282842712,stimuli/lakes/2080108_left.png,stimuli/lakes/2080108_right.png,,,,0,1,1,108,1,,,,,
,,,,,,$5ec259bf5450f10288c82f75,2020-07-21_16h13.06.887,fisher_task,2020.1.3,MacIntel,60,0.090018601,-0.293247768,1,0,0,5.45111,scale,,,,,,0.326485712,0.264575131,0.21373507,0.173205081,stimuli/lakes/70107_left.png,stimuli/lakes/70107_right.png,,,,0,2,2,7,1,,,,,
,,,,,,$5ec259bf5450f10288c82f75,2020-07-21_16h13.06.887,fisher_task,2020.1.3,MacIntel,60,0.095126488,-0.302566964,1,0,0,4.96696,scale,,,,,,0.326485712,0.264575131,0.21373507,0.173205081,stimuli/lakes/704047_left.png,stimuli/lakes/704047_right.png,,,,0,3,3,47,1,,,,,
,,,,,,$5ec259bf5450f10288c82f75,2020-07-21_16h13.06.887,fisher_task,2020.1.3,MacIntel,60,-0.154345238,-0.379025298,1,0,0,1.87154,scale,,,,,,0.275930788,0.223606798,0.275930788,0.223606798,stimuli/lakes/5080113_left.png,stimuli/lakes/5080113_right.png,,,,0,4,4,113,1,,,,,
,,,,,,$5ec259bf5450f10288c82f75,2020-07-21_16h13.06.887,fisher_task,2020.1.3,MacIntel,60,-0.163779762,-0.425438988,1,0,0,1.46893,scale,,,,,,0.326485712,0.264575131,0.21373507,0.173205081,stimuli/lakes/7090129_left.png,stimuli/lakes/7090129_right.png,,,,0,5,5,129,1,,,,,
,,,,,,$5ec259bf5450f10288c82f75,2020-07-21_16h13.06.887,fisher_task,2020.1.3,MacIntel,60,-0.042247024,-0.245078125,1,0,0,2.478235,scale,,,,,,0.174513954,0.141421356,0.349027907,0.282842712,stimuli/lakes/207090_left.png,stimuli/lakes/207090_right.png,,,,0,6,6,90,1,,,,,
,,,,,,$5ec259bf5450f10288c82f75,2020-07-21_16h13.06.887,fisher_task,2020.1.3,MacIntel,60,-0.152641369,-0.35000744,1,0,0,3.987485,scale,,,,,,0.2468,0.2,0.302267034,0.244948974,stimuli/lakes/4090123_left.png,stimuli/lakes/4090123_right.png,,,,0,7,7,123,1,,,,,
,,,,,,$5ec259bf5450f10288c82f75,2020-07-21_16h13.06.887,fisher_task,2020.1.3,MacIntel,60,-0.109944196,-0.300587798,1,0,0,3.13554,scale,,,,,,0.21373507,0.173205081,0.326485712,0.264575131,stimuli/lakes/3080109_left.png,stimuli/lakes/3080109_right.png,,,,0,8,8,109,1,,,,,
,,,,,,$5ec259bf5450f10288c82f75,2020-07-21_16h13.06.887,fisher_task,2020.1.3,MacIntel,60,-0.064103423,-0.267697173,1,0,0,3.49575,scale,,,,,,0.302267034,0.244948974,0.2468,0.2,stimuli/lakes/605065_left.png,stimuli/lakes/605065_right.png,,,,0,9,9,65,1,,,,,
,,,,,,$5ec259bf5450f10288c82f75,2020-07-21_16h13.06.887,fisher_task,2020.1.3,MacIntel,60,-0.141901042,-0.354959077,1,0,0,4.34897,scale,,,,,,0.302267034,0.244948974,0.2468,0.2,stimuli/lakes/6080115_left.png,stimuli/lakes/6080115_right.png,,,,0,10,10,115,1,,,,,
,,,,,,$5ec259bf5450f10288c82f75,2020-07-21_16h13.06.887,fisher_task,2020.1.3,MacIntel,60,-0.153571429,-0.378355655,1,0,0,1.803555,scale,,,,,,0.275930788,0.223606798,0.275930788,0.223606798,stimuli/lakes/5070102_left.png,stimuli/lakes/5070102_right.png,,,,0,11,11,102,1,,,,,
,,,,,,$5ec259bf5450f10288c82f75,2020-07-21_16h13.06.887,fisher_task,2020.1.3,MacIntel,60,-0.034151786,-0.251930804,1,0,0,2.384295,scale,,,,,,0.3702,0.3,0.1234,0.1,stimuli/lakes/903040_left.png,stimuli/lakes/903040_right.png,,,,0,12,12,40,1,,,,,
,,,,,,$5ec259bf5450f10288c82f75,2020-07-21_16h13.06.887,fisher_task,2020.1.3,MacIntel,60,-0.13594494,-0.329880952,1,0,0,1.58078,scale,,,,,,0.302267034,0.244948974,0.2468,0.2,stimuli/lakes/6070103_left.png,stimuli/lakes/6070103_right.png,,,,0,13,13,103,1,,,,,
,,,,,,$5ec259bf5450f10288c82f75,2020-07-21_16h13.06.887,fisher_task,2020.1.3,MacIntel,60,0.019185268,-0.248761161,1,0,0,5.56223,scale,,,,,,0.326485712,0.264575131,0.21373507,0.173205081,stimuli/lakes/703029_left.png,stimuli/lakes/703029_right.png,,,,0,14,14,29,1,,,,,
,,,,,,$5ec259bf5450f10288c82f75,2020-07-21_16h13.06.887,fisher_task,2020.1.3,MacIntel,60,-0.085431548,-0.258690476,1,0,0,2.087895,scale,,,,,,0.2468,0.2,0.302267034,0.244948974,stimuli/lakes/4080111_left.png,stimuli/lakes/4080111_right.png,,,,0,15,15,111,1,,,,,
,,,,,,$5ec259bf5450f10288c82f75,2020-07-21_16h13.06.887,fisher_task,2020.1.3,MacIntel,60,-0.047299107,-0.245360863,1,0,0,2.05207,scale,,,,,,0.1234,0.1,0.3702,0.3,stimuli/lakes/106080_left.png,stimuli/lakes/106080_right.png,,,,0,16,16,80,1,,,,,
,,,,,,$5ec259bf5450f10288c82f75,2020-07-21_16h13.06.887,fisher_task,2020.1.3,MacIntel,60,-0.023106399,-0.245792411,1,0,0,2.696695,scale,,,,,,0.174513954,0.141421356,0.349027907,0.282842712,stimuli/lakes/206072_left.png,stimuli/lakes/206072_right.png,,,,0,17,17,72,1,,,,,
,,,,,,$5ec259bf5450f10288c82f75,2020-07-21_16h13.06.887,fisher_task,2020.1.3,MacIntel,60,-0.123690476,-0.288779762,1,0,0,3.76403,scale,,,,,,0.275930788,0.223606798,0.275930788,0.223606798,stimuli/lakes/507093_left.png,stimuli/lakes/507093_right.png,,,,0,18,18,93,1,,,,,
,,,,,,$5ec259bf5450f10288c82f75,2020-07-21_16h13.06.887,fisher_task,2020.1.3,MacIntel,60,0.148954613,-0.376127232,1,0,0,1.467945,scale,,,,,,0.174513954,0.141421356,0.349027907,0.282842712,stimuli/lakes/203033_left.png,stimuli/lakes/203033_right.png,,,,0,19,19,33,1,,,,,
,,,,,,$5ec259bf5450f10288c82f75,2020-07-21_16h13.06.887,fisher_task,2020.1.3,MacIntel,60,-0.048452381,-0.255059524,1,0,0,7.20631,scale,,,,,,0.3702,0.3,0.1234,0.1,stimuli/lakes/901010_left.png,stimuli/lakes/901010_right.png,,,,0,20,20,10,1,,,,,
,,,,,,$5ec259bf5450f10288c82f75,2020-07-21_16h13.06.887,fisher_task,2020.1.3,MacIntel,60,0.073091518,-0.275613839,1,0,0,3.06965,scale,,,,,,0.302267034,0.244948974,0.2468,0.2,stimuli/lakes/602017_left.png,stimuli/lakes/602017_right.png,,,,0,21,21,17,1,,,,,
,,,,,,$5ec259bf5450f10288c82f75,2020-07-21_16h13.06.887,fisher_task,2020.1.3,MacIntel,60,0.096852679,-0.301741071,1,0,0,2.36897,scale,,,,,,0.174513954,0.141421356,0.349027907,0.282842712,stimuli/lakes/203024_left.png,stimuli/lakes/203024_right.png,,,space,0,22,22,24,1,3.39736,,,,
,,,,,,$5ec259bf5450f10288c82f75,2020-07-21_16h13.06.887,fisher_task,2020.1.3,MacIntel,60,-0.165186012,-0.407875744,1,0,0,1.736545,scale,,,,,,0.326485712,0.264575131,0.21373507,0.173205081,stimuli/lakes/7080117_left.png,stimuli/lakes/7080117_right.png,,,,0,23,23,117,1,,,,,
,,,,,,$5ec259bf5450f10288c82f75,2020-07-21_16h13.06.887,fisher_task,2020.1.3,MacIntel,60,0.162150298,-0.41890997,1,0,0,1.22482,scale,,,,,,0.21373507,0.173205081,0.326485712,0.264575131,stimuli/lakes/302012_left.png,stimuli/lakes/302012_right.png,,,,0,24,24,12,1,,,,,
,,,,,,$5ec259bf5450f10288c82f75,2020-07-21_16h13.06.887,fisher_task,2020.1.3,MacIntel,60,-0.148318452,-0.328627232,1,0,0,1.47279,scale,,,,,,0.21373507,0.173205081,0.326485712,0.264575131,stimuli/lakes/307091_left.png,stimuli/lakes/307091_right.png,,,,0,25,25,91,1,,,,,
,,,,,,$5ec259bf5450f10288c82f75,2020-07-21_16h13.06.887,fisher_task,2020.1.3,MacIntel,60,-0.078325893,-0.269356399,1,0,0,1.675205,scale,,,,,,0.21373507,0.173205081,0.326485712,0.264575131,stimuli/lakes/306082_left.png,stimuli/lakes/306082_right.png,,,,0,26,26,82,1,,,,,
,,,,,,$5ec259bf5450f10288c82f75,2020-07-21_16h13.06.887,fisher_task,2020.1.3,MacIntel,60,0.143322173,-0.398098958,1,0,0,1.61344,scale,,,,,,0.2468,0.2,0.302267034,0.244948974,stimuli/lakes/402014_left.png,stimuli/lakes/402014_right.png,,,,0,27,27,14,1,,,,,
,,,,,,$5ec259bf5450f10288c82f75,2020-07-21_16h13.06.887,fisher_task,2020.1.3,MacIntel,60,0.156011905,-0.398690476,1,0,0,2.062645,scale,,,,,,0.1234,0.1,0.3702,0.3,stimuli/lakes/104041_left.png,stimuli/lakes/104041_right.png,,,,0,28,28,41,1,,,,,
,,,,,,$5ec259bf5450f10288c82f75,2020-07-21_16h13.06.887,fisher_task,2020.1.3,MacIntel,60,0.093709077,-0.287012649,1,0,0,1.345055,scale,,,,,,0.2468,0.2,0.302267034,0.244948974,stimuli/lakes/403026_left.png,stimuli/lakes/403026_right.png,,,,0,29,29,26,1,,,,,
,,,,,,$5ec259bf5450f10288c82f75,2020-07-21_16h13.06.887,fisher_task,2020.1.3,MacIntel,60,-0.144866071,-0.346573661,1,0,0,2.02916,scale,,,,,,0.3702,0.3,0.1234,0.1,stimuli/lakes/904058_left.png,stimuli/lakes/904058_right.png,,,,0,30,30,58,1,,,,,
,,,,,,$5ec259bf5450f10288c82f75,2020-07-21_16h13.06.887,fisher_task,2020.1.3,MacIntel,60,0.109962798,-0.314092262,1,0,0,1.77394,scale,,,,,,0.2468,0.2,0.302267034,0.244948974,stimuli/lakes/404044_left.png,stimuli/lakes/404044_right.png,,,,0,31,31,44,1,,,,,
,,,,,,$5ec259bf5450f10288c82f75,2020-07-21_16h13.06.887,fisher_task,2020.1.3,MacIntel,60,0.138705357,-0.356930804,1,0,0,1.37701,scale,,,,,,0.1234,0.1,0.3702,0.3,stimuli/lakes/106071_left.png,stimuli/lakes/106071_right.png,,,,0,32,32,71,1,,,,,
,,,,,,$5ec259bf5450f10288c82f75,2020-07-21_16h13.06.887,fisher_task,2020.1.3,MacIntel,60,0.160680804,-0.418928571,1,0,0,1.275295,scale,,,,,,0.21373507,0.173205081,0.326485712,0.264575131,stimuli/lakes/30100_left.png,stimuli/lakes/30100_right.png,,,,0,33,33,0,1,,,,,
,,,,,,$5ec259bf5450f10288c82f75,2020-07-21_16h13.06.887,fisher_task,2020.1.3,MacIntel,60,0.153180804,-0.420018601,1,0,0,2.944355,scale,,,,,,0.275930788,0.223606798,0.275930788,0.223606798,stimuli/lakes/50104_left.png,stimuli/lakes/50104_right.png,,,,0,34,34,4,1,,,,,
,,,,,,$5ec259bf5450f10288c82f75,2020-07-21_16h13.06.887,fisher_task,2020.1.3,MacIntel,60,-0.133463542,-0.32640997,1,0,0,2.60815,scale,,,,,,0.302267034,0.244948974,0.2468,0.2,stimuli/lakes/6080114_left.png,stimuli/lakes/6080114_right.png,,,,0,35,35,114,1,,,,,
,,,,,,$5ec259bf5450f10288c82f75,2020-07-21_16h13.06.887,fisher_task,2020.1.3,MacIntel,60,0.115993304,-0.317797619,1,0,0,4.861515,scale,,,,,,0.174513954,0.141421356,0.349027907,0.282842712,stimuli/lakes/204042_left.png,stimuli/lakes/204042_right.png,,,,0,36,36,42,1,,,,,
,,,,,,$5ec259bf5450f10288c82f75,2020-07-21_16h13.06.887,fisher_task,2020.1.3,MacIntel,60,-0.16171503,-0.41937872,1,0,0,1.39673,scale,,,,,,0.302267034,0.244948974,0.2468,0.2,stimuli/lakes/6090126_left.png,stimuli/lakes/6090126_right.png,,,,0,37,37,126,1,,,,,
,,,,,,$5ec259bf5450f10288c82f75,2020-07-21_16h13.06.887,fisher_task,2020.1.3,MacIntel,60,0.060892857,-0.264903274,1,0,0,3.818335,scale,,,,,,0.1234,0.1,0.3702,0.3,stimuli/lakes/1090119_left.png,stimuli/lakes/1090119_right.png,,,,0,38,38,119,1,,,,,
,,,,,,$5ec259bf5450f10288c82f75,2020-07-21_16h13.06.887,fisher_task,2020.1.3,MacIntel,60,-0.151443452,-0.356432292,1,0,0,1.424265,scale,,,,,,0.3702,0.3,0.1234,0.1,stimuli/lakes/9070106_left.png,stimuli/lakes/9070106_right.png,,,,0,39,39,106,1,,,,,
,,,,,,$5ec259bf5450f10288c82f75,2020-07-21_16h13.06.887,fisher_task,2020.1.3,MacIntel,60,0.038355655,-0.253720238,1,0,0,2.987855,scale,,,,,,0.174513954,0.141421356,0.349027907,0.282842712,stimuli/lakes/2090120_left.png,stimuli/lakes/2090120_right.png,,,,0,40,40,120,1,,,,,
,,,,,,$5ec259bf5450f10288c82f75,2020-07-21_16h13.06.887,fisher_task,2020.1.3,MacIntel,60,-0.109966518,-0.28921875,1,0,0,1.621125,scale,,,,,,0.326485712,0.264575131,0.21373507,0.173205081,stimuli/lakes/706086_left.png,stimuli/lakes/706086_right.png,,,,0,41,41,86,1,,,,,
,,,,,,$5ec259bf5450f10288c82f75,2020-07-21_16h13.06.887,fisher_task,2020.1.3,MacIntel,60,0.046618304,-0.265014881,1,0,0,2.81487,scale,,,,,,0.2468,0.2,0.302267034,0.244948974,stimuli/lakes/406074_left.png,stimuli/lakes/406074_right.png,,,,0,42,42,74,1,,,,,
,,,,,,$5ec259bf5450f10288c82f75,2020-07-21_16h13.06.887,fisher_task,2020.1.3,MacIntel,60,0.139341518,-0.372366071,1,0,0,1.402165,scale,,,,,,0.2468,0.2,0.302267034,0.244948974,stimuli/lakes/402015_left.png,stimuli/lakes/402015_right.png,,,,0,43,43,15,1,,,,,
,,,,,,$5ec259bf5450f10288c82f75,2020-07-21_16h13.06.887,fisher_task,2020.1.3,MacIntel,60,0.038850446,-0.260014881,1,0,0,1.54227,scale,,,,,,0.21373507,0.173205081,0.326485712,0.264575131,stimuli/lakes/305062_left.png,stimuli/lakes/305062_right.png,,,space,0,44,44,62,1,5.086465,,,,
,,,,,,$5ec259bf5450f10288c82f75,2020-07-21_16h13.06.887,fisher_task,2020.1.3,MacIntel,60,0.07484375,-0.27233631,1,0,0,2.526065,scale,,,,,,0.349027907,0.282842712,0.174513954,0.141421356,stimuli/lakes/802021_left.png,stimuli/lakes/802021_right.png,,,,0,45,45,21,1,,,,,
,,,,,,$5ec259bf5450f10288c82f75,2020-07-21_16h13.06.887,fisher_task,2020.1.3,MacIntel,60,-0.061841518,-0.261488095,1,0,0,2.292085,scale,,,,,,0.3702,0.3,0.1234,0.1,stimuli/lakes/902022_left.png,stimuli/lakes/902022_right.png,,,,0,46,46,22,1,,,,,
,,,,,,$5ec259bf5450f10288c82f75,2020-07-21_16h13.06.887,fisher_task,2020.1.3,MacIntel,60,0.045744048,-0.276421131,1,0,0,4.667955,scale,,,,,,0.349027907,0.282842712,0.174513954,0.141421356,stimuli/lakes/804048_left.png,stimuli/lakes/804048_right.png,,,,0,47,47,48,1,,,,,
,,,,,,$5ec259bf5450f10288c82f75,2020-07-21_16h13.06.887,fisher_task,2020.1.3,MacIntel,60,-0.130985863,-0.323325893,1,0,0,1.61254,scale,,,,,,0.3702,0.3,0.1234,0.1,stimuli/lakes/906088_left.png,stimuli/lakes/906088_right.png,,,,0,48,48,88,1,,,,,
,,,,,,$5ec259bf5450f10288c82f75,2020-07-21_16h13.06.887,fisher_task,2020.1.3,MacIntel,60,0.054575893,-0.264598214,1,0,0,1.69633,scale,,,,,,0.174513954,0.141421356,0.349027907,0.282842712,stimuli/lakes/206081_left.png,stimuli/lakes/206081_right.png,,,,0,49,49,81,1,,,,,
,,,,,,$5ec259bf5450f10288c82f75,2020-07-21_16h13.06.887,fisher_task,2020.1.3,MacIntel,60,0.117101935,-0.337321429,1,0,0,1.409695,scale,,,,,,0.275930788,0.223606798,0.275930788,0.223606798,stimuli/lakes/504045_left.png,stimuli/lakes/504045_right.png,,,,0,50,50,45,1,,,,,
,,,,,,$5ec259bf5450f10288c82f75,2020-07-21_16h13.06.887,fisher_task,2020.1.3,MacIntel,60,0.157310268,-0.400096726,1,0,0,1.3753,scale,,,,,,0.174513954,0.141421356,0.349027907,0.282842712,stimuli/lakes/202011_left.png,stimuli/lakes/202011_right.png,,,,0,51,51,11,1,,,,,
,,,,,,$5ec259bf5450f10288c82f75,2020-07-21_16h13.06.887,fisher_task,2020.1.3,MacIntel,60,0.161670387,-0.428675595,1,0,0,1.208085,scale,,,,,,0.1234,0.1,0.3702,0.3,stimuli/lakes/103032_left.png,stimuli/lakes/103032_right.png,,,,0,52,52,32,1,,,,,
,,,,,,$5ec259bf5450f10288c82f75,2020-07-21_16h13.06.887,fisher_task,2020.1.3,MacIntel,60,0.115613839,-0.31922619,1,0,0,2.63933,scale,,,,,,0.1234,0.1,0.3702,0.3,stimuli/lakes/105059_left.png,stimuli/lakes/105059_right.png,,,,0,53,53,59,1,,,,,
,,,,,,$5ec259bf5450f10288c82f75,2020-07-21_16h13.06.887,fisher_task,2020.1.3,MacIntel,60,-0.093418899,-0.282983631,1,0,0,2.82553,scale,,,,,,0.302267034,0.244948974,0.2468,0.2,stimuli/lakes/604055_left.png,stimuli/lakes/604055_right.png,,,,0,54,54,55,1,,,,,
,,,,,,$5ec259bf5450f10288c82f75,2020-07-21_16h13.06.887,fisher_task,2020.1.3,MacIntel,60,0.128497024,-0.34484003,1,0,0,1.66594,scale,,,,,,0.21373507,0.173205081,0.326485712,0.264575131,stimuli/lakes/303034_left.png,stimuli/lakes/303034_right.png,,,,0,55,55,34,1,,,,,
,,,,,,$5ec259bf5450f10288c82f75,2020-07-21_16h13.06.887,fisher_task,2020.1.3,MacIntel,60,0.052328869,-0.262477679,1,0,0,4.25286,scale,,,,,,0.21373507,0.173205081,0.326485712,0.264575131,stimuli/lakes/305061_left.png,stimuli/lakes/305061_right.png,,,,0,56,56,61,1,,,,,
,,,,,,$5ec259bf5450f10288c82f75,2020-07-21_16h13.06.887,fisher_task,2020.1.3,MacIntel,60,-0.060412946,-0.25827381,1,0,0,2.329545,scale,,,,,,0.1234,0.1,0.3702,0.3,stimuli/lakes/107098_left.png,stimuli/lakes/107098_right.png,,,,0,57,57,98,1,,,,,
,,,,,,$5ec259bf5450f10288c82f75,2020-07-21_16h13.06.887,fisher_task,2020.1.3,MacIntel,60,-0.027276786,-0.248876488,1,0,0,2.866305,scale,,,,,,0.21373507,0.173205081,0.326485712,0.264575131,stimuli/lakes/3090122_left.png,stimuli/lakes/3090122_right.png,,,,0,58,58,122,1,,,,,
,,,,,,$5ec259bf5450f10288c82f75,2020-07-21_16h13.06.887,fisher_task,2020.1.3,MacIntel,60,-0.012127976,-0.244910714,1,0,0,3.104375,scale,,,,,,0.326485712,0.264575131,0.21373507,0.173205081,stimuli/lakes/702020_left.png,stimuli/lakes/702020_right.png,,,,0,59,59,20,1,,,,,
,,,,,,$5ec259bf5450f10288c82f75,2020-07-21_16h13.06.887,fisher_task,2020.1.3,MacIntel,60,0.042760417,-0.251860119,1,0,0,3.14777,scale,,,,,,0.275930788,0.223606798,0.275930788,0.223606798,stimuli/lakes/502016_left.png,stimuli/lakes/502016_right.png,,,,0,60,60,16,1,,,,,
,,,,,,$5ec259bf5450f10288c82f75,2020-07-21_16h13.06.887,fisher_task,2020.1.3,MacIntel,60,0.147061012,-0.375658482,1,0,0,1.64633,scale,,,,,,0.1234,0.1,0.3702,0.3,stimuli/lakes/103023_left.png,stimuli/lakes/103023_right.png,,,,0,61,61,23,1,,,,,
,,,,,,$5ec259bf5450f10288c82f75,2020-07-21_16h13.06.887,fisher_task,2020.1.3,MacIntel,60,-0.125438988,-0.319345238,1,0,0,2.04149,scale,,,,,,0.349027907,0.282842712,0.174513954,0.141421356,stimuli/lakes/806078_left.png,stimuli/lakes/806078_right.png,,,,0,62,62,78,1,,,,,
,,,,,,$5ec259bf5450f10288c82f75,2020-07-21_16h13.06.887,fisher_task,2020.1.3,MacIntel,60,0.149758185,-0.371919643,1,0,0,2.045505,scale,,,,,,0.275930788,0.223606798,0.275930788,0.223606798,stimuli/lakes/503027_left.png,stimuli/lakes/503027_right.png,,,,0,63,63,27,1,,,,,
,,,,,,$5ec259bf5450f10288c82f75,2020-07-21_16h13.06.887,fisher_task,2020.1.3,MacIntel,60,-0.113195685,-0.305014881,1,0,0,2.17675,scale,,,,,,0.349027907,0.282842712,0.174513954,0.141421356,stimuli/lakes/805069_left.png,stimuli/lakes/805069_right.png,,,,0,64,64,69,1,,,,,
,,,,,,$5ec259bf5450f10288c82f75,2020-07-21_16h13.06.887,fisher_task,2020.1.3,MacIntel,60,0.152168899,-0.418307292,1,0,0,1.39361,scale,,,,,,0.21373507,0.173205081,0.326485712,0.264575131,stimuli/lakes/30101_left.png,stimuli/lakes/30101_right.png,,,,0,65,65,1,1,,,,,
,,,,,,$5ec259bf5450f10288c82f75,2020-07-21_16h13.06.887,fisher_task,2020.1.3,MacIntel,60,-0.15264881,-0.387042411,1,0,0,2.21351,scale,,,,,,0.302267034,0.244948974,0.2468,0.2,stimuli/lakes/607094_left.png,stimuli/lakes/607094_right.png,,,space,0,66,66,94,1,5.56144,,,,
,,,,,,$5ec259bf5450f10288c82f75,2020-07-21_16h13.06.887,fisher_task,2020.1.3,MacIntel,60,0.093139881,-0.28594122,1,0,0,1.715875,scale,,,,,,0.2468,0.2,0.302267034,0.244948974,stimuli/lakes/405063_left.png,stimuli/lakes/405063_right.png,,,,0,67,67,63,1,,,,,
,,,,,,$5ec259bf5450f10288c82f75,2020-07-21_16h13.06.887,fisher_task,2020.1.3,MacIntel,60,-0.157295387,-0.385829613,1,0,0,1.973305,scale,,,,,,0.3702,0.3,0.1234,0.1,stimuli/lakes/907097_left.png,stimuli/lakes/907097_right.png,,,,0,68,68,97,1,,,,,
,,,,,,$5ec259bf5450f10288c82f75,2020-07-21_16h13.06.887,fisher_task,2020.1.3,MacIntel,60,-0.117771577,-0.302853423,1,0,0,3.21067,scale,,,,,,0.21373507,0.173205081,0.326485712,0.264575131,stimuli/lakes/3090121_left.png,stimuli/lakes/3090121_right.png,,,,0,69,69,121,1,,,,,
,,,,,,$5ec259bf5450f10288c82f75,2020-07-21_16h13.06.887,fisher_task,2020.1.3,MacIntel,60,-0.152845982,-0.35360119,1,0,0,1.398465,scale,,,,,,0.349027907,0.282842712,0.174513954,0.141421356,stimuli/lakes/806087_left.png,stimuli/lakes/806087_right.png,,,,0,70,70,87,1,,,,,
,,,,,,$5ec259bf5450f10288c82f75,2020-07-21_16h13.06.887,fisher_task,2020.1.3,MacIntel,60,-0.077295387,-0.265732887,1,0,0,1.28068,scale,,,,,,0.349027907,0.282842712,0.174513954,0.141421356,stimuli/lakes/804057_left.png,stimuli/lakes/804057_right.png,,,,0,71,71,57,1,,,,,
,,,,,,$5ec259bf5450f10288c82f75,2020-07-21_16h13.06.887,fisher_task,2020.1.3,MacIntel,60,0.060275298,-0.265610119,1,0,0,3.03196,scale,,,,,,0.275930788,0.223606798,0.275930788,0.223606798,stimuli/lakes/504054_left.png,stimuli/lakes/504054_right.png,,,,0,72,72,54,1,,,,,
,,,,,,$5ec259bf5450f10288c82f75,2020-07-21_16h13.06.887,fisher_task,2020.1.3,MacIntel,60,0.140572917,-0.401171875,1,0,0,1.216635,scale,,,,,,0.21373507,0.173205081,0.326485712,0.264575131,stimuli/lakes/302013_left.png,stimuli/lakes/302013_right.png,,,,0,73,73,13,1,,,,,
,,,,,,$5ec259bf5450f10288c82f75,2020-07-21_16h13.06.887,fisher_task,2020.1.3,MacIntel,60,0.018404018,-0.263418899,1,0,0,1.83833,scale,,,,,,0.1234,0.1,0.3702,0.3,stimuli/lakes/1080107_left.png,stimuli/lakes/1080107_right.png,,,,0,74,74,107,1,,,,,
,,,,,,$5ec259bf5450f10288c82f75,2020-07-21_16h13.06.887,fisher_task,2020.1.3,MacIntel,60,0.061636905,-0.26921875,1,0,0,1.628425,scale,,,,,,0.2468,0.2,0.302267034,0.244948974,stimuli/lakes/405064_left.png,stimuli/lakes/405064_right.png,,,,0,75,75,64,1,,,,,
,,,,,,$5ec259bf5450f10288c82f75,2020-07-21_16h13.06.887,fisher_task,2020.1.3,MacIntel,60,-0.018861607,-0.247202381,1,0,0,3.896635,scale,,,,,,0.2468,0.2,0.302267034,0.244948974,stimuli/lakes/4090124_left.png,stimuli/lakes/4090124_right.png,,,,0,76,76,124,1,,,,,
,,,,,,$5ec259bf5450f10288c82f75,2020-07-21_16h13.06.887,fisher_task,2020.1.3,MacIntel,60,0.049375,-0.252719494,1,0,0,1.579805,scale,,,,,,0.302267034,0.244948974,0.2468,0.2,stimuli/lakes/60106_left.png,stimuli/lakes/60106_right.png,,,,0,77,77,6,1,,,,,
,,,,,,$5ec259bf5450f10288c82f75,2020-07-21_16h13.06.887,fisher_task,2020.1.3,MacIntel,60,0.031313244,-0.252380952,1,0,0,3.1201,scale,,,,,,0.302267034,0.244948974,0.2468,0.2,stimuli/lakes/602018_left.png,stimuli/lakes/602018_right.png,,,,0,78,78,18,1,,,,,
,,,,,,$5ec259bf5450f10288c82f75,2020-07-21_16h13.06.887,fisher_task,2020.1.3,MacIntel,60,-0.039929315,-0.248556548,1,0,0,2.14579,scale,,,,,,0.2468,0.2,0.302267034,0.244948974,stimuli/lakes/406083_left.png,stimuli/lakes/406083_right.png,,,,0,79,79,83,1,,,,,
,,,,,,$5ec259bf5450f10288c82f75,2020-07-21_16h13.06.887,fisher_task,2020.1.3,MacIntel,60,0.033991815,-0.255327381,1,0,0,2.893395,scale,,,,,,0.349027907,0.282842712,0.174513954,0.141421356,stimuli/lakes/80109_left.png,stimuli/lakes/80109_right.png,,,,0,80,80,9,1,,,,,
,,,,,,$5ec259bf5450f10288c82f75,2020-07-21_16h13.06.887,fisher_task,2020.1.3,MacIntel,60,0.013552827,-0.252042411,1,0,0,3.05202,scale,,,,,,0.2468,0.2,0.302267034,0.244948974,stimuli/lakes/407092_left.png,stimuli/lakes/407092_right.png,,,,0,81,81,92,1,,,,,
,,,,,,$5ec259bf5450f10288c82f75,2020-07-21_16h13.06.887,fisher_task,2020.1.3,MacIntel,60,0.052708333,-0.270915179,1,0,0,1.82408,scale,,,,,,0.2468,0.2,0.302267034,0.244948974,stimuli/lakes/4070101_left.png,stimuli/lakes/4070101_right.png,,,,0,82,82,101,1,,,,,
,,,,,,$5ec259bf5450f10288c82f75,2020-07-21_16h13.06.887,fisher_task,2020.1.3,MacIntel,60,-0.019624256,-0.257756696,1,0,0,2.643845,scale,,,,,,0.349027907,0.282842712,0.174513954,0.141421356,stimuli/lakes/803039_left.png,stimuli/lakes/803039_right.png,,,,0,83,83,39,1,,,,,
,,,,,,$5ec259bf5450f10288c82f75,2020-07-21_16h13.06.887,fisher_task,2020.1.3,MacIntel,60,-0.089765625,-0.277276786,1,0,0,1.856815,scale,,,,,,0.302267034,0.244948974,0.2468,0.2,stimuli/lakes/606085_left.png,stimuli/lakes/606085_right.png,,,,0,84,84,85,1,,,,,
,,,,,,$5ec259bf5450f10288c82f75,2020-07-21_16h13.06.887,fisher_task,2020.1.3,MacIntel,60,-0.135145089,-0.336729911,1,0,0,1.218285,scale,,,,,,0.275930788,0.223606798,0.275930788,0.223606798,stimuli/lakes/506075_left.png,stimuli/lakes/506075_right.png,,,,0,85,85,75,1,,,,,
,,,,,,$5ec259bf5450f10288c82f75,2020-07-21_16h13.06.887,fisher_task,2020.1.3,MacIntel,60,0.146729911,-0.369672619,1,0,0,1.757685,scale,,,,,,0.2468,0.2,0.302267034,0.244948974,stimuli/lakes/40102_left.png,stimuli/lakes/40102_right.png,,,,0,86,86,2,1,,,,,
,,,,,,$5ec259bf5450f10288c82f75,2020-07-21_16h13.06.887,fisher_task,2020.1.3,MacIntel,60,0.111238839,-0.324661458,1,0,0,1.700405,scale,,,,,,0.2468,0.2,0.302267034,0.244948974,stimuli/lakes/404053_left.png,stimuli/lakes/404053_right.png,,,,0,87,87,53,1,,,,,
,,,,,,$5ec259bf5450f10288c82f75,2020-07-21_16h13.06.887,fisher_task,2020.1.3,MacIntel,60,0.119412202,-0.318794643,1,0,0,2.1583,scale,,,,,,0.2468,0.2,0.302267034,0.244948974,stimuli/lakes/403035_left.png,stimuli/lakes/403035_right.png,,,space,0,88,88,35,1,6.34434,,,,
,,,,,,$5ec259bf5450f10288c82f75,2020-07-21_16h13.06.887,fisher_task,2020.1.3,MacIntel,60,-0.036886161,-0.259735863,1,0,0,2.302755,scale,,,,,,0.326485712,0.264575131,0.21373507,0.173205081,stimuli/lakes/703038_left.png,stimuli/lakes/703038_right.png,,,,0,89,89,38,1,,,,,
,,,,,,$5ec259bf5450f10288c82f75,2020-07-21_16h13.06.887,fisher_task,2020.1.3,MacIntel,60,-0.049148065,-0.254453125,1,0,0,1.995835,scale,,,,,,0.3702,0.3,0.1234,0.1,stimuli/lakes/903031_left.png,stimuli/lakes/903031_right.png,,,,0,90,90,31,1,,,,,
,,,,,,$5ec259bf5450f10288c82f75,2020-07-21_16h13.06.887,fisher_task,2020.1.3,MacIntel,60,0.07765625,-0.287247024,1,0,0,1.517005,scale,,,,,,0.21373507,0.173205081,0.326485712,0.264575131,stimuli/lakes/304043_left.png,stimuli/lakes/304043_right.png,,,,0,91,91,43,1,,,,,
,,,,,,$5ec259bf5450f10288c82f75,2020-07-21_16h13.06.887,fisher_task,2020.1.3,MacIntel,60,-0.083080357,-0.278809524,1,0,0,1.725075,scale,,,,,,0.3702,0.3,0.1234,0.1,stimuli/lakes/906079_left.png,stimuli/lakes/906079_right.png,,,,0,92,92,79,1,,,,,
,,,,,,$5ec259bf5450f10288c82f75,2020-07-21_16h13.06.887,fisher_task,2020.1.3,MacIntel,60,0.016130952,-0.252686012,1,0,0,2.122885,scale,,,,,,0.21373507,0.173205081,0.326485712,0.264575131,stimuli/lakes/3080110_left.png,stimuli/lakes/3080110_right.png,,,,0,93,93,110,1,,,,,
,,,,,,$5ec259bf5450f10288c82f75,2020-07-21_16h13.06.887,fisher_task,2020.1.3,MacIntel,60,0.038046875,-0.265063244,1,0,0,2.860525,scale,,,,,,0.1234,0.1,0.3702,0.3,stimuli/lakes/107089_left.png,stimuli/lakes/107089_right.png,,,,0,94,94,89,1,,,,,
,,,,,,$5ec259bf5450f10288c82f75,2020-07-21_16h13.06.887,fisher_task,2020.1.3,MacIntel,60,-0.043039435,-0.261041667,1,0,0,1.455105,scale,,,,,,0.326485712,0.264575131,0.21373507,0.173205081,stimuli/lakes/702019_left.png,stimuli/lakes/702019_right.png,,,,0,95,95,19,1,,,,,
,,,,,,$5ec259bf5450f10288c82f75,2020-07-21_16h13.06.887,fisher_task,2020.1.3,MacIntel,60,-0.149743304,-0.362622768,1,0,0,1.44831,scale,,,,,,0.302267034,0.244948974,0.2468,0.2,stimuli/lakes/6090127_left.png,stimuli/lakes/6090127_right.png,,,,0,96,96,127,1,,,,,
,,,,,,$5ec259bf5450f10288c82f75,2020-07-21_16h13.06.887,fisher_task,2020.1.3,MacIntel,60,-0.091395089,-0.287284226,1,0,0,1.623645,scale,,,,,,0.326485712,0.264575131,0.21373507,0.173205081,stimuli/lakes/704056_left.png,stimuli/lakes/704056_right.png,,,,0,97,97,56,1,,,,,
,,,,,,$5ec259bf5450f10288c82f75,2020-07-21_16h13.06.887,fisher_task,2020.1.3,MacIntel,60,-0.051796875,-0.268177083,1,0,0,1.423205,scale,,,,,,0.349027907,0.282842712,0.174513954,0.141421356,stimuli/lakes/803030_left.png,stimuli/lakes/803030_right.png,,,,0,98,98,30,1,,,,,
,,,,,,$5ec259bf5450f10288c82f75,2020-07-21_16h13.06.887,fisher_task,2020.1.3,MacIntel,60,-0.063017113,-0.267310268,1,0,0,1.397285,scale,,,,,,0.302267034,0.244948974,0.2468,0.2,stimuli/lakes/603028_left.png,stimuli/lakes/603028_right.png,,,,0,99,99,28,1,,,,,
,,,,,,$5ec259bf5450f10288c82f75,2020-07-21_16h13.06.887,fisher_task,2020.1.3,MacIntel,60,-0.134717262,-0.350122768,1,0,0,1.602905,scale,,,,,,0.326485712,0.264575131,0.21373507,0.173205081,stimuli/lakes/7070104_left.png,stimuli/lakes/7070104_right.png,,,,0,100,100,104,1,,,,,
,,,,,,$5ec259bf5450f10288c82f75,2020-07-21_16h13.06.887,fisher_task,2020.1.3,MacIntel,60,-0.103452381,-0.297898065,1,0,0,5.17374,scale,,,,,,0.174513954,0.141421356,0.349027907,0.282842712,stimuli/lakes/204051_left.png,stimuli/lakes/204051_right.png,,,,0,101,101,51,1,,,,,
,,,,,,$5ec259bf5450f10288c82f75,2020-07-21_16h13.06.887,fisher_task,2020.1.3,MacIntel,60,-0.064825149,-0.253199405,1,0,0,2.589225,scale,,,,,,0.302267034,0.244948974,0.2468,0.2,stimuli/lakes/603037_left.png,stimuli/lakes/603037_right.png,,,,0,102,102,37,1,,,,,
,,,,,,$5ec259bf5450f10288c82f75,2020-07-21_16h13.06.887,fisher_task,2020.1.3,MacIntel,60,0.048452381,-0.264479167,1,0,0,3.343,scale,,,,,,0.275930788,0.223606798,0.275930788,0.223606798,stimuli/lakes/503036_left.png,stimuli/lakes/503036_right.png,,,,0,103,103,36,1,,,,,
,,,,,,$5ec259bf5450f10288c82f75,2020-07-21_16h13.06.887,fisher_task,2020.1.3,MacIntel,60,-0.0653125,-0.272276786,1,0,0,1.864345,scale,,,,,,0.302267034,0.244948974,0.2468,0.2,stimuli/lakes/604046_left.png,stimuli/lakes/604046_right.png,,,,0,104,104,46,1,,,,,
,,,,,,$5ec259bf5450f10288c82f75,2020-07-21_16h13.06.887,fisher_task,2020.1.3,MacIntel,60,0.144401042,-0.371975446,1,0,0,1.538715,scale,,,,,,0.1234,0.1,0.3702,0.3,stimuli/lakes/104050_left.png,stimuli/lakes/104050_right.png,,,,0,105,105,50,1,,,,,
,,,,,,$5ec259bf5450f10288c82f75,2020-07-21_16h13.06.887,fisher_task,2020.1.3,MacIntel,60,-0.156075149,-0.37328125,1,0,0,1.41587,scale,,,,,,0.326485712,0.264575131,0.21373507,0.173205081,stimuli/lakes/707095_left.png,stimuli/lakes/707095_right.png,,,,0,106,106,95,1,,,,,
,,,,,,$5ec259bf5450f10288c82f75,2020-07-21_16h13.06.887,fisher_task,2020.1.3,MacIntel,60,0.157418155,-0.425863095,1,0,0,1.311835,scale,,,,,,0.2468,0.2,0.302267034,0.244948974,stimuli/lakes/40103_left.png,stimuli/lakes/40103_right.png,,,,0,107,107,3,1,,,,,
,,,,,,$5ec259bf5450f10288c82f75,2020-07-21_16h13.06.887,fisher_task,2020.1.3,MacIntel,60,-0.12235119,-0.306190476,1,0,0,1.80503,scale,,,,,,0.3702,0.3,0.1234,0.1,stimuli/lakes/904049_left.png,stimuli/lakes/904049_right.png,,,,0,108,108,49,1,,,,,
,,,,,,$5ec259bf5450f10288c82f75,2020-07-21_16h13.06.887,fisher_task,2020.1.3,MacIntel,60,-0.044750744,-0.267373512,1,0,0,1.8069,scale,,,,,,0.302267034,0.244948974,0.2468,0.2,stimuli/lakes/60105_left.png,stimuli/lakes/60105_right.png,,,,0,109,109,5,1,,,,,
,,,,,,$5ec259bf5450f10288c82f75,2020-07-21_16h13.06.887,fisher_task,2020.1.3,MacIntel,60,-0.160491071,-0.398314732,1,0,0,1.61535,scale,,,,,,0.326485712,0.264575131,0.21373507,0.173205081,stimuli/lakes/7080116_left.png,stimuli/lakes/7080116_right.png,,,space,0,110,110,116,1,2.851785,,,,
,,,,,,$5ec259bf5450f10288c82f75,2020-07-21_16h13.06.887,fisher_task,2020.1.3,MacIntel,60,-0.115892857,-0.320636161,1,0,0,1.54256,scale,,,,,,0.3702,0.3,0.1234,0.1,stimuli/lakes/905070_left.png,stimuli/lakes/905070_right.png,,,,0,111,111,70,1,,,,,
,,,,,,$5ec259bf5450f10288c82f75,2020-07-21_16h13.06.887,fisher_task,2020.1.3,MacIntel,60,0.038262649,-0.269322917,1,0,0,1.90416,scale,,,,,,0.21373507,0.173205081,0.326485712,0.264575131,stimuli/lakes/3070100_left.png,stimuli/lakes/3070100_right.png,,,,0,112,112,100,1,,,,,
,,,,,,$5ec259bf5450f10288c82f75,2020-07-21_16h13.06.887,fisher_task,2020.1.3,MacIntel,60,-0.129408482,-0.329014137,1,0,0,1.556325,scale,,,,,,0.302267034,0.244948974,0.2468,0.2,stimuli/lakes/606076_left.png,stimuli/lakes/606076_right.png,,,,0,113,113,76,1,,,,,
,,,,,,$5ec259bf5450f10288c82f75,2020-07-21_16h13.06.887,fisher_task,2020.1.3,MacIntel,60,-0.143188244,-0.356700149,1,0,0,2.020665,scale,,,,,,0.275930788,0.223606798,0.275930788,0.223606798,stimuli/lakes/506084_left.png,stimuli/lakes/506084_right.png,,,,0,114,114,84,1,,,,,
,,,,,,$5ec259bf5450f10288c82f75,2020-07-21_16h13.06.887,fisher_task,2020.1.3,MacIntel,60,-0.170844494,-0.415107887,1,0,0,1.24585,scale,,,,,,0.326485712,0.264575131,0.21373507,0.173205081,stimuli/lakes/7090128_left.png,stimuli/lakes/7090128_right.png,,,,0,115,115,128,1,,,,,
,,,,,,$5ec259bf5450f10288c82f75,2020-07-21_16h13.06.887,fisher_task,2020.1.3,MacIntel,60,-0.131424851,-0.342459077,1,0,0,1.91866,scale,,,,,,0.326485712,0.264575131,0.21373507,0.173205081,stimuli/lakes/705068_left.png,stimuli/lakes/705068_right.png,,,,0,116,116,68,1,,,,,
,,,,,,$5ec259bf5450f10288c82f75,2020-07-21_16h13.06.887,fisher_task,2020.1.3,MacIntel,60,-0.119765625,-0.320796131,1,0,0,2.24606,scale,,,,,,0.326485712,0.264575131,0.21373507,0.173205081,stimuli/lakes/705067_left.png,stimuli/lakes/705067_right.png,,,,0,117,117,67,1,,,,,
,,,,,,$5ec259bf5450f10288c82f75,2020-07-21_16h13.06.887,fisher_task,2020.1.3,MacIntel,60,0.041625744,-0.258165923,1,0,0,1.7567,scale,,,,,,0.21373507,0.173205081,0.326485712,0.264575131,stimuli/lakes/306073_left.png,stimuli/lakes/306073_right.png,,,,0,118,118,73,1,,,,,
,,,,,,$5ec259bf5450f10288c82f75,2020-07-21_16h13.06.887,fisher_task,2020.1.3,MacIntel,60,-0.107020089,-0.301997768,1,0,0,1.46583,scale,,,,,,0.302267034,0.244948974,0.2468,0.2,stimuli/lakes/605066_left.png,stimuli/lakes/605066_right.png,,,,0,119,119,66,1,,,,,
,,,,,,$5ec259bf5450f10288c82f75,2020-07-21_16h13.06.887,fisher_task,2020.1.3,MacIntel,60,-0.140792411,-0.36703125,1,0,0,1.40597,scale,,,,,,0.349027907,0.282842712,0.174513954,0.141421356,stimuli/lakes/8070105_left.png,stimuli/lakes/8070105_right.png,,,,0,120,120,105,1,,,,,
,,,,,,$5ec259bf5450f10288c82f75,2020-07-21_16h13.06.887,fisher_task,2020.1.3,MacIntel,60,-0.136625744,-0.348035714,1,0,0,1.397075,scale,,,,,,0.326485712,0.264575131,0.21373507,0.173205081,stimuli/lakes/706077_left.png,stimuli/lakes/706077_right.png,,,,0,121,121,77,1,,,,,
,,,,,,$5ec259bf5450f10288c82f75,2020-07-21_16h13.06.887,fisher_task,2020.1.3,MacIntel,60,-0.035141369,-0.261052827,1,0,0,2.2825,scale,,,,,,0.2468,0.2,0.302267034,0.244948974,stimuli/lakes/4080112_left.png,stimuli/lakes/4080112_right.png,,,,0,122,122,112,1,,,,,
,,,,,,$5ec259bf5450f10288c82f75,2020-07-21_16h13.06.887,fisher_task,2020.1.3,MacIntel,60,-0.122261905,-0.322667411,1,0,0,1.335755,scale,,,,,,0.349027907,0.282842712,0.174513954,0.141421356,stimuli/lakes/807096_left.png,stimuli/lakes/807096_right.png,,,,0,123,123,96,1,,,,,
,,,,,,$5ec259bf5450f10288c82f75,2020-07-21_16h13.06.887,fisher_task,2020.1.3,MacIntel,60,0.113095238,-0.31827381,1,0,0,2.598975,scale,,,,,,0.21373507,0.173205081,0.326485712,0.264575131,stimuli/lakes/304052_left.png,stimuli/lakes/304052_right.png,,,,0,124,124,52,1,,,,,
,,,,,,$5ec259bf5450f10288c82f75,2020-07-21_16h13.06.887,fisher_task,2020.1.3,MacIntel,60,0.084888393,-0.296112351,1,0,0,2.30439,scale,,,,,,0.174513954,0.141421356,0.349027907,0.282842712,stimuli/lakes/207099_left.png,stimuli/lakes/207099_right.png,,,,0,125,125,99,1,,,,,
,,,,,,$5ec259bf5450f10288c82f75,2020-07-21_16h13.06.887,fisher_task,2020.1.3,MacIntel,60,-0.036480655,-0.253705357,1,0,0,1.869845,scale,,,,,,0.326485712,0.264575131,0.21373507,0.173205081,stimuli/lakes/70108_left.png,stimuli/lakes/70108_right.png,,,,0,126,126,8,1,,,,,
,,,,,,$5ec259bf5450f10288c82f75,2020-07-21_16h13.06.887,fisher_task,2020.1.3,MacIntel,60,0.097578125,-0.299583333,1,0,0,1.923335,scale,,,,,,0.174513954,0.141421356,0.349027907,0.282842712,stimuli/lakes/205060_left.png,stimuli/lakes/205060_right.png,,,,0,127,127,60,1,,,,,
,,,,,,$5ec259bf5450f10288c82f75,2020-07-21_16h13.06.887,fisher_task,2020.1.3,MacIntel,60,-0.15359747,-0.373270089,1,0,0,1.788075,scale,,,,,,0.275930788,0.223606798,0.275930788,0.223606798,stimuli/lakes/5090125_left.png,stimuli/lakes/5090125_right.png,,,,0,128,128,125,1,,,,,
,,,,,,$5ec259bf5450f10288c82f75,2020-07-21_16h13.06.887,fisher_task,2020.1.3,MacIntel,60,0.05936756,-0.267894345,1,0,0,2.787765,scale,,,,,,0.21373507,0.173205081,0.326485712,0.264575131,stimuli/lakes/303025_left.png,stimuli/lakes/303025_right.png,,,,0,129,129,25,1,,,,,
,,,,,,$5ec259bf5450f10288c82f75,2020-07-21_16h13.06.887,fisher_task,2020.1.3,MacIntel,60,,,,,,,,,,,,,,,,,,,,,,,,,,,,space,3.92797,space,35.45845
