keySpace.keys,instructions.thisRepN,instructions.thisTrialN,instructions.thisN,instructions.thisIndex,instructions.ran,participant,date,expName,psychopyVersion,OS,frameRate,mouse.x,mouse.y,mouse.leftButton,mouse.midButton,mouse.rightButton,mouse.time,mouse.clicked_name,training.thisRepN,training.thisTrialN,training.thisN,training.thisIndex,training.ran,widthBasketLeft,heightBasketLeft,widthBasketRight,heightBasketRight,leftLake,rightLake,space2.keys,space2.rt,space1.keys,trials.thisRepN,trials.thisTrialN,trials.thisN,trials.thisIndex,trials.ran,space1.rt,finalSpace1.keys,finalSpace1.rt,finalSpace2.keys,finalSpace2.rt
,0,0,0,0,1,$5ed803ad3b309d12d052f1b5,2020-07-21_17h13.16.658,fisher_task,2020.1.3,Win32,60,,,,,,,,,,,,,,,,,,,,,,,,,,,,,,,
,,,,,,$5ed803ad3b309d12d052f1b5,2020-07-21_17h13.16.658,fisher_task,2020.1.3,Win32,60,0.148148148,-0.337962963,1,0,0,5.038285,scale,0,0,0,0,1,0.275930788,0.223606798,0.275930788,0.223606798,stimuli/training/20_left.png,stimuli/training/20_right.png,,,,,,,,,,,,,
,,,,,,$5ed803ad3b309d12d052f1b5,2020-07-21_17h13.16.658,fisher_task,2020.1.3,Win32,60,-0.171296296,-0.413888889,1,0,0,2.72008,scale,0,1,1,1,1,0.275930788,0.223606798,0.275930788,0.223606798,stimuli/training/80_left.png,stimuli/training/80_right.png,,,,,,,,,,,,,
,,,,,,$5ed803ad3b309d12d052f1b5,2020-07-21_17h13.16.658,fisher_task,2020.1.3,Win32,60,0.125925926,-0.302777778,1,0,0,4.530715,scale,0,2,2,2,1,0.174513954,0.141421356,0.349027907,0.282842712,stimuli/training/50_left.png,stimuli/training/50_right.png,,,,,,,,,,,,,
,,,,,,$5ed803ad3b309d12d052f1b5,2020-07-21_17h13.16.658,fisher_task,2020.1.3,Win32,60,-0.118518519,-0.305555556,1,0,0,6.145505,scale,0,3,3,3,1,0.349027907,0.282842712,0.174513954,0.141421356,stimuli/training/50_left.png,stimuli/training/50_right.png,,,,,,,,,,,,,
,,,,,,$5ed803ad3b309d12d052f1b5,2020-07-21_17h13.16.658,fisher_task,2020.1.3,Win32,60,-0.137037037,-0.358333333,1,0,0,4.93446,scale,0,4,4,4,1,0.275930788,0.223606798,0.275930788,0.223606798,stimuli/training/50_left.png,stimuli/training/50_right.png,,,,,,,,,,,,,
,,,,,,$5ed803ad3b309d12d052f1b5,2020-07-21_17h13.16.658,fisher_task,2020.1.3,Win32,60,0.176851852,-0.437962963,1,0,0,2.184405,scale,0,5,5,5,1,0.174513954,0.141421356,0.349027907,0.282842712,stimuli/training/20_left.png,stimuli/training/20_right.png,,,,,,,,,,,,,
,,,,,,$5ed803ad3b309d12d052f1b5,2020-07-21_17h13.16.658,fisher_task,2020.1.3,Win32,60,-0.163888889,-0.433333333,1,0,0,1.396055,scale,0,6,6,6,1,0.349027907,0.282842712,0.174513954,0.141421356,stimuli/training/80_left.png,stimuli/training/80_right.png,,,,,,,,,,,,,
,,,,,,$5ed803ad3b309d12d052f1b5,2020-07-21_17h13.16.658,fisher_task,2020.1.3,Win32,60,0.149074074,-0.364814815,1,0,0,2.33023,scale,0,7,7,7,1,0.1234,0.1,0.3702,0.3,stimuli/training/30_left.png,stimuli/training/30_right.png,,,,,,,,,,,,,
,,,,,,$5ed803ad3b309d12d052f1b5,2020-07-21_17h13.16.658,fisher_task,2020.1.3,Win32,60,-0.178703704,-0.436111111,1,0,0,1.558265,scale,0,8,8,8,1,0.3702,0.3,0.1234,0.1,stimuli/training/70_left.png,stimuli/training/70_right.png,,,,,,,,,,,,,
,,,,,,$5ed803ad3b309d12d052f1b5,2020-07-21_17h13.16.658,fisher_task,2020.1.3,Win32,60,-0.173148148,-0.425925926,1,0,0,1.56098,scale,0,9,9,9,1,0.326485712,0.264575131,0.21373507,0.173205081,stimuli/training/90_left.png,stimuli/training/90_right.png,,,,,,,,,,,,,
,,,,,,$5ed803ad3b309d12d052f1b5,2020-07-21_17h13.16.658,fisher_task,2020.1.3,Win32,60,0.14537037,-0.418518519,1,0,0,1.193195,scale,0,10,10,10,1,0.21373507,0.173205081,0.326485712,0.264575131,stimuli/training/10_left.png,stimuli/training/10_right.png,,,,,,,,,,,,,
,,,,,,$5ed803ad3b309d12d052f1b5,2020-07-21_17h13.16.658,fisher_task,2020.1.3,Win32,60,0.130555556,-0.30462963,1,0,0,13.14956,scale,,,,,,0.174513954,0.141421356,0.349027907,0.282842712,stimuli/lakes/206081_left.png,stimuli/lakes/206081_right.png,space,4.7641,,0,0,0,81,1,,,,,
,,,,,,$5ed803ad3b309d12d052f1b5,2020-07-21_17h13.16.658,fisher_task,2020.1.3,Win32,60,0.162037037,-0.426851852,1,0,0,2.091825,scale,,,,,,0.174513954,0.141421356,0.349027907,0.282842712,stimuli/lakes/204051_left.png,stimuli/lakes/204051_right.png,,,,0,1,1,51,1,,,,,
,,,,,,$5ed803ad3b309d12d052f1b5,2020-07-21_17h13.16.658,fisher_task,2020.1.3,Win32,60,-0.153703704,-0.425925926,1,0,0,1.91338,scale,,,,,,0.275930788,0.223606798,0.275930788,0.223606798,stimuli/lakes/5080113_left.png,stimuli/lakes/5080113_right.png,,,,0,2,2,113,1,,,,,
,,,,,,$5ed803ad3b309d12d052f1b5,2020-07-21_17h13.16.658,fisher_task,2020.1.3,Win32,60,0.149074074,-0.35,1,0,0,4.62368,scale,,,,,,0.302267034,0.244948974,0.2468,0.2,stimuli/lakes/603037_left.png,stimuli/lakes/603037_right.png,,,,0,3,3,37,1,,,,,
,,,,,,$5ed803ad3b309d12d052f1b5,2020-07-21_17h13.16.658,fisher_task,2020.1.3,Win32,60,-0.178703704,-0.423148148,1,0,0,1.417855,scale,,,,,,0.349027907,0.282842712,0.174513954,0.141421356,stimuli/lakes/8080118_left.png,stimuli/lakes/8080118_right.png,,,,0,4,4,118,1,,,,,
,,,,,,$5ed803ad3b309d12d052f1b5,2020-07-21_17h13.16.658,fisher_task,2020.1.3,Win32,60,0.140740741,-0.306481481,1,0,0,3.62914,scale,,,,,,0.2468,0.2,0.302267034,0.244948974,stimuli/lakes/406074_left.png,stimuli/lakes/406074_right.png,,,,0,5,5,74,1,,,,,
,,,,,,$5ed803ad3b309d12d052f1b5,2020-07-21_17h13.16.658,fisher_task,2020.1.3,Win32,60,0.157407407,-0.433333333,1,0,0,1.475905,scale,,,,,,0.2468,0.2,0.302267034,0.244948974,stimuli/lakes/40102_left.png,stimuli/lakes/40102_right.png,,,,0,6,6,2,1,,,,,
,,,,,,$5ed803ad3b309d12d052f1b5,2020-07-21_17h13.16.658,fisher_task,2020.1.3,Win32,60,-0.158333333,-0.385185185,1,0,0,4.16363,scale,,,,,,0.349027907,0.282842712,0.174513954,0.141421356,stimuli/lakes/805069_left.png,stimuli/lakes/805069_right.png,,,,0,7,7,69,1,,,,,
,,,,,,$5ed803ad3b309d12d052f1b5,2020-07-21_17h13.16.658,fisher_task,2020.1.3,Win32,60,-0.163888889,-0.430555556,1,0,0,1.55714,scale,,,,,,0.326485712,0.264575131,0.21373507,0.173205081,stimuli/lakes/7070104_left.png,stimuli/lakes/7070104_right.png,,,,0,8,8,104,1,,,,,
,,,,,,$5ed803ad3b309d12d052f1b5,2020-07-21_17h13.16.658,fisher_task,2020.1.3,Win32,60,-0.165740741,-0.419444444,1,0,0,1.12693,scale,,,,,,0.326485712,0.264575131,0.21373507,0.173205081,stimuli/lakes/7090128_left.png,stimuli/lakes/7090128_right.png,,,,0,9,9,128,1,,,,,
,,,,,,$5ed803ad3b309d12d052f1b5,2020-07-21_17h13.16.658,fisher_task,2020.1.3,Win32,60,-0.096296296,-0.272222222,1,0,0,4.742915,scale,,,,,,0.3702,0.3,0.1234,0.1,stimuli/lakes/903040_left.png,stimuli/lakes/903040_right.png,,,,0,10,10,40,1,,,,,
,,,,,,$5ed803ad3b309d12d052f1b5,2020-07-21_17h13.16.658,fisher_task,2020.1.3,Win32,60,-0.160185185,-0.425925926,1,0,0,1.547085,scale,,,,,,0.349027907,0.282842712,0.174513954,0.141421356,stimuli/lakes/8070105_left.png,stimuli/lakes/8070105_right.png,,,,0,11,11,105,1,,,,,
,,,,,,$5ed803ad3b309d12d052f1b5,2020-07-21_17h13.16.658,fisher_task,2020.1.3,Win32,60,0.155555556,-0.421296296,1,0,0,1.71019,scale,,,,,,0.1234,0.1,0.3702,0.3,stimuli/lakes/104041_left.png,stimuli/lakes/104041_right.png,,,,0,12,12,41,1,,,,,
,,,,,,$5ed803ad3b309d12d052f1b5,2020-07-21_17h13.16.658,fisher_task,2020.1.3,Win32,60,0.148148148,-0.421296296,0,0,1,0.16259,scale,,,,,,0.302267034,0.244948974,0.2468,0.2,stimuli/lakes/604055_left.png,stimuli/lakes/604055_right.png,,,,0,13,13,55,1,,,,,
,,,,,,$5ed803ad3b309d12d052f1b5,2020-07-21_17h13.16.658,fisher_task,2020.1.3,Win32,60,-0.137962963,-0.328703704,1,0,0,1.891375,scale,,,,,,0.275930788,0.223606798,0.275930788,0.223606798,stimuli/lakes/5070102_left.png,stimuli/lakes/5070102_right.png,,,,0,14,14,102,1,,,,,
,,,,,,$5ed803ad3b309d12d052f1b5,2020-07-21_17h13.16.658,fisher_task,2020.1.3,Win32,60,-0.149074074,-0.439814815,1,0,0,1.964485,scale,,,,,,0.326485712,0.264575131,0.21373507,0.173205081,stimuli/lakes/705067_left.png,stimuli/lakes/705067_right.png,,,,0,15,15,67,1,,,,,
,,,,,,$5ed803ad3b309d12d052f1b5,2020-07-21_17h13.16.658,fisher_task,2020.1.3,Win32,60,-0.158333333,-0.344444444,1,0,0,4.0877,scale,,,,,,0.174513954,0.141421356,0.349027907,0.282842712,stimuli/lakes/2090120_left.png,stimuli/lakes/2090120_right.png,,,,0,16,16,120,1,,,,,
,,,,,,$5ed803ad3b309d12d052f1b5,2020-07-21_17h13.16.658,fisher_task,2020.1.3,Win32,60,-0.166666667,-0.403703704,1,0,0,1.901215,scale,,,,,,0.302267034,0.244948974,0.2468,0.2,stimuli/lakes/605066_left.png,stimuli/lakes/605066_right.png,,,,0,17,17,66,1,,,,,
,,,,,,$5ed803ad3b309d12d052f1b5,2020-07-21_17h13.16.658,fisher_task,2020.1.3,Win32,60,0.133333333,-0.291666667,1,0,0,3.545465,scale,,,,,,0.326485712,0.264575131,0.21373507,0.173205081,stimuli/lakes/70108_left.png,stimuli/lakes/70108_right.png,,,,0,18,18,8,1,,,,,
,,,,,,$5ed803ad3b309d12d052f1b5,2020-07-21_17h13.16.658,fisher_task,2020.1.3,Win32,60,-0.171296296,-0.378703704,1,0,0,1.93359,scale,,,,,,0.302267034,0.244948974,0.2468,0.2,stimuli/lakes/606076_left.png,stimuli/lakes/606076_right.png,,,,0,19,19,76,1,,,,,
,,,,,,$5ed803ad3b309d12d052f1b5,2020-07-21_17h13.16.658,fisher_task,2020.1.3,Win32,60,-0.175,-0.417592593,1,0,0,1.6035,scale,,,,,,0.326485712,0.264575131,0.21373507,0.173205081,stimuli/lakes/706077_left.png,stimuli/lakes/706077_right.png,,,,0,20,20,77,1,,,,,
,,,,,,$5ed803ad3b309d12d052f1b5,2020-07-21_17h13.16.658,fisher_task,2020.1.3,Win32,60,0.162037037,-0.414814815,1,0,0,1.90262,scale,,,,,,0.275930788,0.223606798,0.275930788,0.223606798,stimuli/lakes/503027_left.png,stimuli/lakes/503027_right.png,,,,0,21,21,27,1,,,,,
,,,,,,$5ed803ad3b309d12d052f1b5,2020-07-21_17h13.16.658,fisher_task,2020.1.3,Win32,60,0.138888889,-0.350925926,1,0,0,2.44012,scale,,,,,,0.21373507,0.173205081,0.326485712,0.264575131,stimuli/lakes/305061_left.png,stimuli/lakes/305061_right.png,,,space,0,22,22,61,1,4.03746,,,,
,,,,,,$5ed803ad3b309d12d052f1b5,2020-07-21_17h13.16.658,fisher_task,2020.1.3,Win32,60,0.150925926,-0.376851852,1,0,0,1.63271,scale,,,,,,0.302267034,0.244948974,0.2468,0.2,stimuli/lakes/602017_left.png,stimuli/lakes/602017_right.png,,,,0,23,23,17,1,,,,,
,,,,,,$5ed803ad3b309d12d052f1b5,2020-07-21_17h13.16.658,fisher_task,2020.1.3,Win32,60,-0.130555556,-0.30462963,1,0,0,3.001015,scale,,,,,,0.2468,0.2,0.302267034,0.244948974,stimuli/lakes/4090124_left.png,stimuli/lakes/4090124_right.png,,,,0,24,24,124,1,,,,,
,,,,,,$5ed803ad3b309d12d052f1b5,2020-07-21_17h13.16.658,fisher_task,2020.1.3,Win32,60,0.119444444,-0.316666667,1,0,0,1.604465,scale,,,,,,0.326485712,0.264575131,0.21373507,0.173205081,stimuli/lakes/703029_left.png,stimuli/lakes/703029_right.png,,,,0,25,25,29,1,,,,,
,,,,,,$5ed803ad3b309d12d052f1b5,2020-07-21_17h13.16.658,fisher_task,2020.1.3,Win32,60,0.159259259,-0.37962963,1,0,0,4.01732,scale,,,,,,0.1234,0.1,0.3702,0.3,stimuli/lakes/107098_left.png,stimuli/lakes/107098_right.png,,,,0,26,26,98,1,,,,,
,,,,,,$5ed803ad3b309d12d052f1b5,2020-07-21_17h13.16.658,fisher_task,2020.1.3,Win32,60,0,-0.260185185,1,0,0,2.08551,scale,,,,,,0.1234,0.1,0.3702,0.3,stimuli/lakes/106080_left.png,stimuli/lakes/106080_right.png,,,,0,27,27,80,1,,,,,
,,,,,,$5ed803ad3b309d12d052f1b5,2020-07-21_17h13.16.658,fisher_task,2020.1.3,Win32,60,-0.167592593,-0.418518519,1,0,0,1.40444,scale,,,,,,0.3702,0.3,0.1234,0.1,stimuli/lakes/906088_left.png,stimuli/lakes/906088_right.png,,,,0,28,28,88,1,,,,,
,,,,,,$5ed803ad3b309d12d052f1b5,2020-07-21_17h13.16.658,fisher_task,2020.1.3,Win32,60,-0.148148148,-0.358333333,1,0,0,2.65278,scale,,,,,,0.21373507,0.173205081,0.326485712,0.264575131,stimuli/lakes/307091_left.png,stimuli/lakes/307091_right.png,,,,0,29,29,91,1,,,,,
,,,,,,$5ed803ad3b309d12d052f1b5,2020-07-21_17h13.16.658,fisher_task,2020.1.3,Win32,60,-0.124074074,-0.337037037,1,0,0,3.739205,scale,,,,,,0.326485712,0.264575131,0.21373507,0.173205081,stimuli/lakes/704047_left.png,stimuli/lakes/704047_right.png,,,,0,30,30,47,1,,,,,
,,,,,,$5ed803ad3b309d12d052f1b5,2020-07-21_17h13.16.658,fisher_task,2020.1.3,Win32,60,0.144444444,-0.338888889,1,0,0,3.03495,scale,,,,,,0.302267034,0.244948974,0.2468,0.2,stimuli/lakes/60106_left.png,stimuli/lakes/60106_right.png,,,,0,31,31,6,1,,,,,
,,,,,,$5ed803ad3b309d12d052f1b5,2020-07-21_17h13.16.658,fisher_task,2020.1.3,Win32,60,0.10462963,-0.287962963,1,0,0,2.34881,scale,,,,,,0.174513954,0.141421356,0.349027907,0.282842712,stimuli/lakes/203024_left.png,stimuli/lakes/203024_right.png,,,,0,32,32,24,1,,,,,
,,,,,,$5ed803ad3b309d12d052f1b5,2020-07-21_17h13.16.658,fisher_task,2020.1.3,Win32,60,-0.174074074,-0.393518519,1,0,0,1.36179,scale,,,,,,0.302267034,0.244948974,0.2468,0.2,stimuli/lakes/606085_left.png,stimuli/lakes/606085_right.png,,,,0,33,33,85,1,,,,,
,,,,,,$5ed803ad3b309d12d052f1b5,2020-07-21_17h13.16.658,fisher_task,2020.1.3,Win32,60,-0.144444444,-0.422222222,1,0,0,1.34606,scale,,,,,,0.275930788,0.223606798,0.275930788,0.223606798,stimuli/lakes/507093_left.png,stimuli/lakes/507093_right.png,,,,0,34,34,93,1,,,,,
,,,,,,$5ed803ad3b309d12d052f1b5,2020-07-21_17h13.16.658,fisher_task,2020.1.3,Win32,60,-0.144444444,-0.423148148,1,0,0,1.66609,scale,,,,,,0.2468,0.2,0.302267034,0.244948974,stimuli/lakes/4080112_left.png,stimuli/lakes/4080112_right.png,,,,0,35,35,112,1,,,,,
,,,,,,$5ed803ad3b309d12d052f1b5,2020-07-21_17h13.16.658,fisher_task,2020.1.3,Win32,60,-0.113888889,-0.336111111,1,0,0,4.01453,scale,,,,,,0.3702,0.3,0.1234,0.1,stimuli/lakes/902022_left.png,stimuli/lakes/902022_right.png,,,,0,36,36,22,1,,,,,
,,,,,,$5ed803ad3b309d12d052f1b5,2020-07-21_17h13.16.658,fisher_task,2020.1.3,Win32,60,0.125,-0.283333333,1,0,0,1.86981,scale,,,,,,0.349027907,0.282842712,0.174513954,0.141421356,stimuli/lakes/803030_left.png,stimuli/lakes/803030_right.png,,,,0,37,37,30,1,,,,,
,,,,,,$5ed803ad3b309d12d052f1b5,2020-07-21_17h13.16.658,fisher_task,2020.1.3,Win32,60,-0.158333333,-0.437037037,1,0,0,1.48351,scale,,,,,,0.3702,0.3,0.1234,0.1,stimuli/lakes/907097_left.png,stimuli/lakes/907097_right.png,,,,0,38,38,97,1,,,,,
,,,,,,$5ed803ad3b309d12d052f1b5,2020-07-21_17h13.16.658,fisher_task,2020.1.3,Win32,60,-0.149074074,-0.416666667,1,0,0,1.539135,scale,,,,,,0.2468,0.2,0.302267034,0.244948974,stimuli/lakes/4080111_left.png,stimuli/lakes/4080111_right.png,,,,0,39,39,111,1,,,,,
,,,,,,$5ed803ad3b309d12d052f1b5,2020-07-21_17h13.16.658,fisher_task,2020.1.3,Win32,60,-0.152777778,-0.435185185,1,0,0,1.565495,scale,,,,,,0.302267034,0.244948974,0.2468,0.2,stimuli/lakes/605065_left.png,stimuli/lakes/605065_right.png,,,,0,40,40,65,1,,,,,
,,,,,,$5ed803ad3b309d12d052f1b5,2020-07-21_17h13.16.658,fisher_task,2020.1.3,Win32,60,-0.12962963,-0.280555556,1,0,0,1.892575,scale,,,,,,0.21373507,0.173205081,0.326485712,0.264575131,stimuli/lakes/3080109_left.png,stimuli/lakes/3080109_right.png,,,,0,41,41,109,1,,,,,
,,,,,,$5ed803ad3b309d12d052f1b5,2020-07-21_17h13.16.658,fisher_task,2020.1.3,Win32,60,-0.137037037,-0.426851852,1,0,0,1.37256,scale,,,,,,0.3702,0.3,0.1234,0.1,stimuli/lakes/906079_left.png,stimuli/lakes/906079_right.png,,,,0,42,42,79,1,,,,,
,,,,,,$5ed803ad3b309d12d052f1b5,2020-07-21_17h13.16.658,fisher_task,2020.1.3,Win32,60,0.15,-0.435185185,1,0,0,1.29655,scale,,,,,,0.174513954,0.141421356,0.349027907,0.282842712,stimuli/lakes/203033_left.png,stimuli/lakes/203033_right.png,,,,0,43,43,33,1,,,,,
,,,,,,$5ed803ad3b309d12d052f1b5,2020-07-21_17h13.16.658,fisher_task,2020.1.3,Win32,60,0.109259259,-0.27962963,1,0,0,1.485475,scale,,,,,,0.349027907,0.282842712,0.174513954,0.141421356,stimuli/lakes/804057_left.png,stimuli/lakes/804057_right.png,,,space,0,44,44,57,1,1.780475,,,,
,,,,,,$5ed803ad3b309d12d052f1b5,2020-07-21_17h13.16.658,fisher_task,2020.1.3,Win32,60,0.164814815,-0.406481481,1,0,0,1.583035,scale,,,,,,0.21373507,0.173205081,0.326485712,0.264575131,stimuli/lakes/306082_left.png,stimuli/lakes/306082_right.png,,,,0,45,45,82,1,,,,,
,,,,,,$5ed803ad3b309d12d052f1b5,2020-07-21_17h13.16.658,fisher_task,2020.1.3,Win32,60,-0.167592593,-0.434259259,1,0,0,1.292305,scale,,,,,,0.302267034,0.244948974,0.2468,0.2,stimuli/lakes/6080114_left.png,stimuli/lakes/6080114_right.png,,,,0,46,46,114,1,,,,,
,,,,,,$5ed803ad3b309d12d052f1b5,2020-07-21_17h13.16.658,fisher_task,2020.1.3,Win32,60,0.142592593,-0.431481481,1,0,0,2.118585,scale,,,,,,0.21373507,0.173205081,0.326485712,0.264575131,stimuli/lakes/303025_left.png,stimuli/lakes/303025_right.png,,,,0,47,47,25,1,,,,,
,,,,,,$5ed803ad3b309d12d052f1b5,2020-07-21_17h13.16.658,fisher_task,2020.1.3,Win32,60,0.119444444,-0.293518519,1,0,0,2.17894,scale,,,,,,0.2468,0.2,0.302267034,0.244948974,stimuli/lakes/405063_left.png,stimuli/lakes/405063_right.png,,,,0,48,48,63,1,,,,,
,,,,,,$5ed803ad3b309d12d052f1b5,2020-07-21_17h13.16.658,fisher_task,2020.1.3,Win32,60,0.146296296,-0.432407407,1,0,0,1.243605,scale,,,,,,0.21373507,0.173205081,0.326485712,0.264575131,stimuli/lakes/302013_left.png,stimuli/lakes/302013_right.png,,,,0,49,49,13,1,,,,,
,,,,,,$5ed803ad3b309d12d052f1b5,2020-07-21_17h13.16.658,fisher_task,2020.1.3,Win32,60,-0.139814815,-0.290740741,1,0,0,3.80777,scale,,,,,,0.326485712,0.264575131,0.21373507,0.173205081,stimuli/lakes/703038_left.png,stimuli/lakes/703038_right.png,,,,0,50,50,38,1,,,,,
,,,,,,$5ed803ad3b309d12d052f1b5,2020-07-21_17h13.16.658,fisher_task,2020.1.3,Win32,60,0.15,-0.375,1,0,0,4.207375,scale,,,,,,0.21373507,0.173205081,0.326485712,0.264575131,stimuli/lakes/306073_left.png,stimuli/lakes/306073_right.png,,,,0,51,51,73,1,,,,,
,,,,,,$5ed803ad3b309d12d052f1b5,2020-07-21_17h13.16.658,fisher_task,2020.1.3,Win32,60,-0.122222222,-0.430555556,1,0,0,1.37866,scale,,,,,,0.302267034,0.244948974,0.2468,0.2,stimuli/lakes/6080115_left.png,stimuli/lakes/6080115_right.png,,,,0,52,52,115,1,,,,,
,,,,,,$5ed803ad3b309d12d052f1b5,2020-07-21_17h13.16.658,fisher_task,2020.1.3,Win32,60,0.152777778,-0.436111111,1,0,0,1.735125,scale,,,,,,0.174513954,0.141421356,0.349027907,0.282842712,stimuli/lakes/202011_left.png,stimuli/lakes/202011_right.png,,,,0,53,53,11,1,,,,,
,,,,,,$5ed803ad3b309d12d052f1b5,2020-07-21_17h13.16.658,fisher_task,2020.1.3,Win32,60,-0.15,-0.432407407,1,0,0,1.66079,scale,,,,,,0.349027907,0.282842712,0.174513954,0.141421356,stimuli/lakes/806087_left.png,stimuli/lakes/806087_right.png,,,,0,54,54,87,1,,,,,
,,,,,,$5ed803ad3b309d12d052f1b5,2020-07-21_17h13.16.658,fisher_task,2020.1.3,Win32,60,-0.125,-0.313888889,1,0,0,1.851535,scale,,,,,,0.349027907,0.282842712,0.174513954,0.141421356,stimuli/lakes/804048_left.png,stimuli/lakes/804048_right.png,,,,0,55,55,48,1,,,,,
,,,,,,$5ed803ad3b309d12d052f1b5,2020-07-21_17h13.16.658,fisher_task,2020.1.3,Win32,60,-0.150925926,-0.406481481,1,0,0,1.634015,scale,,,,,,0.275930788,0.223606798,0.275930788,0.223606798,stimuli/lakes/506075_left.png,stimuli/lakes/506075_right.png,,,,0,56,56,75,1,,,,,
,,,,,,$5ed803ad3b309d12d052f1b5,2020-07-21_17h13.16.658,fisher_task,2020.1.3,Win32,60,-0.151851852,-0.433333333,1,0,0,2.45021,scale,,,,,,0.302267034,0.244948974,0.2468,0.2,stimuli/lakes/6090126_left.png,stimuli/lakes/6090126_right.png,,,,0,57,57,126,1,,,,,
,,,,,,$5ed803ad3b309d12d052f1b5,2020-07-21_17h13.16.658,fisher_task,2020.1.3,Win32,60,0.127777778,-0.299074074,1,0,0,1.672985,scale,,,,,,0.302267034,0.244948974,0.2468,0.2,stimuli/lakes/602018_left.png,stimuli/lakes/602018_right.png,,,,0,58,58,18,1,,,,,
,,,,,,$5ed803ad3b309d12d052f1b5,2020-07-21_17h13.16.658,fisher_task,2020.1.3,Win32,60,0.142592593,-0.424074074,1,0,0,1.342455,scale,,,,,,0.2468,0.2,0.302267034,0.244948974,stimuli/lakes/405064_left.png,stimuli/lakes/405064_right.png,,,,0,59,59,64,1,,,,,
,,,,,,$5ed803ad3b309d12d052f1b5,2020-07-21_17h13.16.658,fisher_task,2020.1.3,Win32,60,0.142592593,-0.433333333,1,0,0,1.19789,scale,,,,,,0.2468,0.2,0.302267034,0.244948974,stimuli/lakes/402014_left.png,stimuli/lakes/402014_right.png,,,,0,60,60,14,1,,,,,
,,,,,,$5ed803ad3b309d12d052f1b5,2020-07-21_17h13.16.658,fisher_task,2020.1.3,Win32,60,0.153703704,-0.419444444,1,0,0,1.175895,scale,,,,,,0.275930788,0.223606798,0.275930788,0.223606798,stimuli/lakes/502016_left.png,stimuli/lakes/502016_right.png,,,,0,61,61,16,1,,,,,
,,,,,,$5ed803ad3b309d12d052f1b5,2020-07-21_17h13.16.658,fisher_task,2020.1.3,Win32,60,0.118518519,-0.308333333,1,0,0,1.93481,scale,,,,,,0.174513954,0.141421356,0.349027907,0.282842712,stimuli/lakes/206072_left.png,stimuli/lakes/206072_right.png,,,,0,62,62,72,1,,,,,
,,,,,,$5ed803ad3b309d12d052f1b5,2020-07-21_17h13.16.658,fisher_task,2020.1.3,Win32,60,0,-0.27037037,1,0,0,1.39987,scale,,,,,,0.326485712,0.264575131,0.21373507,0.173205081,stimuli/lakes/702020_left.png,stimuli/lakes/702020_right.png,,,,0,63,63,20,1,,,,,
,,,,,,$5ed803ad3b309d12d052f1b5,2020-07-21_17h13.16.658,fisher_task,2020.1.3,Win32,60,0.142592593,-0.427777778,1,0,0,1.458925,scale,,,,,,0.275930788,0.223606798,0.275930788,0.223606798,stimuli/lakes/504045_left.png,stimuli/lakes/504045_right.png,,,,0,64,64,45,1,,,,,
,,,,,,$5ed803ad3b309d12d052f1b5,2020-07-21_17h13.16.658,fisher_task,2020.1.3,Win32,60,0.143518519,-0.421296296,1,0,0,1.422885,scale,,,,,,0.174513954,0.141421356,0.349027907,0.282842712,stimuli/lakes/205060_left.png,stimuli/lakes/205060_right.png,,,,0,65,65,60,1,,,,,
,,,,,,$5ed803ad3b309d12d052f1b5,2020-07-21_17h13.16.658,fisher_task,2020.1.3,Win32,60,0.108333333,-0.275925926,1,0,0,1.884455,scale,,,,,,0.349027907,0.282842712,0.174513954,0.141421356,stimuli/lakes/803039_left.png,stimuli/lakes/803039_right.png,,,space,0,66,66,39,1,1.93634,,,,
,,,,,,$5ed803ad3b309d12d052f1b5,2020-07-21_17h13.16.658,fisher_task,2020.1.3,Win32,60,0.158333333,-0.428703704,1,0,0,1.430205,scale,,,,,,0.21373507,0.173205081,0.326485712,0.264575131,stimuli/lakes/304043_left.png,stimuli/lakes/304043_right.png,,,,0,67,67,43,1,,,,,
,,,,,,$5ed803ad3b309d12d052f1b5,2020-07-21_17h13.16.658,fisher_task,2020.1.3,Win32,60,0.160185185,-0.431481481,1,0,0,1.7679,scale,,,,,,0.2468,0.2,0.302267034,0.244948974,stimuli/lakes/404044_left.png,stimuli/lakes/404044_right.png,,,,0,68,68,44,1,,,,,
,,,,,,$5ed803ad3b309d12d052f1b5,2020-07-21_17h13.16.658,fisher_task,2020.1.3,Win32,60,-0.159259259,-0.416666667,1,0,0,2.99754,scale,,,,,,0.349027907,0.282842712,0.174513954,0.141421356,stimuli/lakes/807096_left.png,stimuli/lakes/807096_right.png,,,,0,69,69,96,1,,,,,
,,,,,,$5ed803ad3b309d12d052f1b5,2020-07-21_17h13.16.658,fisher_task,2020.1.3,Win32,60,0.167592593,-0.425,1,0,0,2.225595,scale,,,,,,0.2468,0.2,0.302267034,0.244948974,stimuli/lakes/403026_left.png,stimuli/lakes/403026_right.png,,,,0,70,70,26,1,,,,,
,,,,,,$5ed803ad3b309d12d052f1b5,2020-07-21_17h13.16.658,fisher_task,2020.1.3,Win32,60,-0.14537037,-0.425,1,0,0,1.80321,scale,,,,,,0.326485712,0.264575131,0.21373507,0.173205081,stimuli/lakes/7080116_left.png,stimuli/lakes/7080116_right.png,,,,0,71,71,116,1,,,,,
,,,,,,$5ed803ad3b309d12d052f1b5,2020-07-21_17h13.16.658,fisher_task,2020.1.3,Win32,60,0.15,-0.428703704,1,0,0,1.113115,scale,,,,,,0.2468,0.2,0.302267034,0.244948974,stimuli/lakes/40103_left.png,stimuli/lakes/40103_right.png,,,,0,72,72,3,1,,,,,
,,,,,,$5ed803ad3b309d12d052f1b5,2020-07-21_17h13.16.658,fisher_task,2020.1.3,Win32,60,0.130555556,-0.428703704,1,0,0,1.400215,scale,,,,,,0.174513954,0.141421356,0.349027907,0.282842712,stimuli/lakes/204042_left.png,stimuli/lakes/204042_right.png,,,,0,73,73,42,1,,,,,
,,,,,,$5ed803ad3b309d12d052f1b5,2020-07-21_17h13.16.658,fisher_task,2020.1.3,Win32,60,-0.128703704,-0.334259259,1,0,0,2.452235,scale,,,,,,0.2468,0.2,0.302267034,0.244948974,stimuli/lakes/4090123_left.png,stimuli/lakes/4090123_right.png,,,,0,74,74,123,1,,,,,
,,,,,,$5ed803ad3b309d12d052f1b5,2020-07-21_17h13.16.658,fisher_task,2020.1.3,Win32,60,-0.128703704,-0.369444444,1,0,0,1.70317,scale,,,,,,0.3702,0.3,0.1234,0.1,stimuli/lakes/905070_left.png,stimuli/lakes/905070_right.png,,,,0,75,75,70,1,,,,,
,,,,,,$5ed803ad3b309d12d052f1b5,2020-07-21_17h13.16.658,fisher_task,2020.1.3,Win32,60,-0.091666667,-0.282407407,1,0,0,3.49635,scale,,,,,,0.21373507,0.173205081,0.326485712,0.264575131,stimuli/lakes/3090121_left.png,stimuli/lakes/3090121_right.png,,,,0,76,76,121,1,,,,,
,,,,,,$5ed803ad3b309d12d052f1b5,2020-07-21_17h13.16.658,fisher_task,2020.1.3,Win32,60,0.149074074,-0.432407407,1,0,0,1.427005,scale,,,,,,0.21373507,0.173205081,0.326485712,0.264575131,stimuli/lakes/30101_left.png,stimuli/lakes/30101_right.png,,,,0,77,77,1,1,,,,,
,,,,,,$5ed803ad3b309d12d052f1b5,2020-07-21_17h13.16.658,fisher_task,2020.1.3,Win32,60,-0.099074074,-0.280555556,1,0,0,2.502875,scale,,,,,,0.2468,0.2,0.302267034,0.244948974,stimuli/lakes/407092_left.png,stimuli/lakes/407092_right.png,,,,0,78,78,92,1,,,,,
,,,,,,$5ed803ad3b309d12d052f1b5,2020-07-21_17h13.16.658,fisher_task,2020.1.3,Win32,60,0.15,-0.344444444,1,0,0,2.06693,scale,,,,,,0.174513954,0.141421356,0.349027907,0.282842712,stimuli/lakes/207090_left.png,stimuli/lakes/207090_right.png,,,,0,79,79,90,1,,,,,
,,,,,,$5ed803ad3b309d12d052f1b5,2020-07-21_17h13.16.658,fisher_task,2020.1.3,Win32,60,0.148148148,-0.367592593,1,0,0,2.83259,scale,,,,,,0.302267034,0.244948974,0.2468,0.2,stimuli/lakes/60105_left.png,stimuli/lakes/60105_right.png,,,,0,80,80,5,1,,,,,
,,,,,,$5ed803ad3b309d12d052f1b5,2020-07-21_17h13.16.658,fisher_task,2020.1.3,Win32,60,0.148148148,-0.430555556,1,0,0,1.48612,scale,,,,,,0.1234,0.1,0.3702,0.3,stimuli/lakes/104050_left.png,stimuli/lakes/104050_right.png,,,,0,81,81,50,1,,,,,
,,,,,,$5ed803ad3b309d12d052f1b5,2020-07-21_17h13.16.658,fisher_task,2020.1.3,Win32,60,0.158333333,-0.427777778,1,0,0,1.053805,scale,,,,,,0.1234,0.1,0.3702,0.3,stimuli/lakes/103032_left.png,stimuli/lakes/103032_right.png,,,,0,82,82,32,1,,,,,
,,,,,,$5ed803ad3b309d12d052f1b5,2020-07-21_17h13.16.658,fisher_task,2020.1.3,Win32,60,-0.062037037,-0.259259259,1,0,0,1.61612,scale,,,,,,0.3702,0.3,0.1234,0.1,stimuli/lakes/904049_left.png,stimuli/lakes/904049_right.png,,,,0,83,83,49,1,,,,,
,,,,,,$5ed803ad3b309d12d052f1b5,2020-07-21_17h13.16.658,fisher_task,2020.1.3,Win32,60,0.126851852,-0.42962963,1,0,0,1.273665,scale,,,,,,0.275930788,0.223606798,0.275930788,0.223606798,stimuli/lakes/50104_left.png,stimuli/lakes/50104_right.png,,,,0,84,84,4,1,,,,,
,,,,,,$5ed803ad3b309d12d052f1b5,2020-07-21_17h13.16.658,fisher_task,2020.1.3,Win32,60,-0.024074074,-0.238888889,1,0,0,1.75833,scale,,,,,,0.174513954,0.141421356,0.349027907,0.282842712,stimuli/lakes/207099_left.png,stimuli/lakes/207099_right.png,,,,0,85,85,99,1,,,,,
,,,,,,$5ed803ad3b309d12d052f1b5,2020-07-21_17h13.16.658,fisher_task,2020.1.3,Win32,60,-0.105555556,-0.277777778,1,0,0,2.446975,scale,,,,,,0.349027907,0.282842712,0.174513954,0.141421356,stimuli/lakes/802021_left.png,stimuli/lakes/802021_right.png,,,,0,86,86,21,1,,,,,
,,,,,,$5ed803ad3b309d12d052f1b5,2020-07-21_17h13.16.658,fisher_task,2020.1.3,Win32,60,-0.157407407,-0.422222222,1,0,0,1.575985,scale,,,,,,0.302267034,0.244948974,0.2468,0.2,stimuli/lakes/607094_left.png,stimuli/lakes/607094_right.png,,,,0,87,87,94,1,,,,,
,,,,,,$5ed803ad3b309d12d052f1b5,2020-07-21_17h13.16.658,fisher_task,2020.1.3,Win32,60,0.161111111,-0.39537037,1,0,0,1.503285,scale,,,,,,0.21373507,0.173205081,0.326485712,0.264575131,stimuli/lakes/305062_left.png,stimuli/lakes/305062_right.png,,,space,0,88,88,62,1,1.63516,,,,
,,,,,,$5ed803ad3b309d12d052f1b5,2020-07-21_17h13.16.658,fisher_task,2020.1.3,Win32,60,-0.162962963,-0.4,1,0,0,1.954665,scale,,,,,,0.275930788,0.223606798,0.275930788,0.223606798,stimuli/lakes/5090125_left.png,stimuli/lakes/5090125_right.png,,,,0,89,89,125,1,,,,,
,,,,,,$5ed803ad3b309d12d052f1b5,2020-07-21_17h13.16.658,fisher_task,2020.1.3,Win32,60,-0.168518519,-0.425,1,0,0,1.085485,scale,,,,,,0.302267034,0.244948974,0.2468,0.2,stimuli/lakes/6090127_left.png,stimuli/lakes/6090127_right.png,,,,0,90,90,127,1,,,,,
,,,,,,$5ed803ad3b309d12d052f1b5,2020-07-21_17h13.16.658,fisher_task,2020.1.3,Win32,60,0.15,-0.431481481,1,0,0,1.400395,scale,,,,,,0.275930788,0.223606798,0.275930788,0.223606798,stimuli/lakes/504054_left.png,stimuli/lakes/504054_right.png,,,,0,91,91,54,1,,,,,
,,,,,,$5ed803ad3b309d12d052f1b5,2020-07-21_17h13.16.658,fisher_task,2020.1.3,Win32,60,-0.148148148,-0.422222222,1,0,0,1.3742,scale,,,,,,0.3702,0.3,0.1234,0.1,stimuli/lakes/9070106_left.png,stimuli/lakes/9070106_right.png,,,,0,92,92,106,1,,,,,
,,,,,,$5ed803ad3b309d12d052f1b5,2020-07-21_17h13.16.658,fisher_task,2020.1.3,Win32,60,0.119444444,-0.308333333,1,0,0,2.15805,scale,,,,,,0.1234,0.1,0.3702,0.3,stimuli/lakes/106071_left.png,stimuli/lakes/106071_right.png,,,,0,93,93,71,1,,,,,
,,,,,,$5ed803ad3b309d12d052f1b5,2020-07-21_17h13.16.658,fisher_task,2020.1.3,Win32,60,0.124074074,-0.322222222,1,0,0,3.059105,scale,,,,,,0.3702,0.3,0.1234,0.1,stimuli/lakes/901010_left.png,stimuli/lakes/901010_right.png,,,,0,94,94,10,1,,,,,
,,,,,,$5ed803ad3b309d12d052f1b5,2020-07-21_17h13.16.658,fisher_task,2020.1.3,Win32,60,-0.144444444,-0.424074074,1,0,0,1.39961,scale,,,,,,0.326485712,0.264575131,0.21373507,0.173205081,stimuli/lakes/7080117_left.png,stimuli/lakes/7080117_right.png,,,,0,95,95,117,1,,,,,
,,,,,,$5ed803ad3b309d12d052f1b5,2020-07-21_17h13.16.658,fisher_task,2020.1.3,Win32,60,0.160185185,-0.341666667,1,0,0,1.7935,scale,,,,,,0.302267034,0.244948974,0.2468,0.2,stimuli/lakes/604046_left.png,stimuli/lakes/604046_right.png,,,,0,96,96,46,1,,,,,
,,,,,,$5ed803ad3b309d12d052f1b5,2020-07-21_17h13.16.658,fisher_task,2020.1.3,Win32,60,-0.17962963,-0.451851852,0,0,1,1.5207,scale,,,,,,0.3702,0.3,0.1234,0.1,stimuli/lakes/903031_left.png,stimuli/lakes/903031_right.png,,,,0,97,97,31,1,,,,,
,,,,,,$5ed803ad3b309d12d052f1b5,2020-07-21_17h13.16.658,fisher_task,2020.1.3,Win32,60,0.107407407,-0.305555556,1,0,0,2.114935,scale,,,,,,0.21373507,0.173205081,0.326485712,0.264575131,stimuli/lakes/3080110_left.png,stimuli/lakes/3080110_right.png,,,,0,98,98,110,1,,,,,
,,,,,,$5ed803ad3b309d12d052f1b5,2020-07-21_17h13.16.658,fisher_task,2020.1.3,Win32,60,-0.157407407,-0.412962963,1,0,0,1.32933,scale,,,,,,0.302267034,0.244948974,0.2468,0.2,stimuli/lakes/6070103_left.png,stimuli/lakes/6070103_right.png,,,,0,99,99,103,1,,,,,
,,,,,,$5ed803ad3b309d12d052f1b5,2020-07-21_17h13.16.658,fisher_task,2020.1.3,Win32,60,0.142592593,-0.422222222,1,0,0,1.13502,scale,,,,,,0.21373507,0.173205081,0.326485712,0.264575131,stimuli/lakes/303034_left.png,stimuli/lakes/303034_right.png,,,,0,100,100,34,1,,,,,
,,,,,,$5ed803ad3b309d12d052f1b5,2020-07-21_17h13.16.658,fisher_task,2020.1.3,Win32,60,0.157407407,-0.432407407,1,0,0,1.309845,scale,,,,,,0.21373507,0.173205081,0.326485712,0.264575131,stimuli/lakes/304052_left.png,stimuli/lakes/304052_right.png,,,,0,101,101,52,1,,,,,
,,,,,,$5ed803ad3b309d12d052f1b5,2020-07-21_17h13.16.658,fisher_task,2020.1.3,Win32,60,0.099074074,-0.265740741,1,0,0,1.316535,scale,,,,,,0.2468,0.2,0.302267034,0.244948974,stimuli/lakes/4070101_left.png,stimuli/lakes/4070101_right.png,,,,0,102,102,101,1,,,,,
,,,,,,$5ed803ad3b309d12d052f1b5,2020-07-21_17h13.16.658,fisher_task,2020.1.3,Win32,60,-0.110185185,-0.3,1,0,0,2.00362,scale,,,,,,0.21373507,0.173205081,0.326485712,0.264575131,stimuli/lakes/3070100_left.png,stimuli/lakes/3070100_right.png,,,,0,103,103,100,1,,,,,
,,,,,,$5ed803ad3b309d12d052f1b5,2020-07-21_17h13.16.658,fisher_task,2020.1.3,Win32,60,-0.087962963,-0.303703704,1,0,0,1.912015,scale,,,,,,0.1234,0.1,0.3702,0.3,stimuli/lakes/1080107_left.png,stimuli/lakes/1080107_right.png,,,,0,104,104,107,1,,,,,
,,,,,,$5ed803ad3b309d12d052f1b5,2020-07-21_17h13.16.658,fisher_task,2020.1.3,Win32,60,-0.134259259,-0.388888889,1,0,0,1.86821,scale,,,,,,0.326485712,0.264575131,0.21373507,0.173205081,stimuli/lakes/705068_left.png,stimuli/lakes/705068_right.png,,,,0,105,105,68,1,,,,,
,,,,,,$5ed803ad3b309d12d052f1b5,2020-07-21_17h13.16.658,fisher_task,2020.1.3,Win32,60,0.160185185,-0.436111111,1,0,0,1.256545,scale,,,,,,0.2468,0.2,0.302267034,0.244948974,stimuli/lakes/403035_left.png,stimuli/lakes/403035_right.png,,,,0,106,106,35,1,,,,,
,,,,,,$5ed803ad3b309d12d052f1b5,2020-07-21_17h13.16.658,fisher_task,2020.1.3,Win32,60,-0.093518519,-0.27962963,1,0,0,2.82903,scale,,,,,,0.21373507,0.173205081,0.326485712,0.264575131,stimuli/lakes/3090122_left.png,stimuli/lakes/3090122_right.png,,,,0,107,107,122,1,,,,,
,,,,,,$5ed803ad3b309d12d052f1b5,2020-07-21_17h13.16.658,fisher_task,2020.1.3,Win32,60,0.155555556,-0.423148148,1,0,0,1.05971,scale,,,,,,0.275930788,0.223606798,0.275930788,0.223606798,stimuli/lakes/503036_left.png,stimuli/lakes/503036_right.png,,,,0,108,108,36,1,,,,,
,,,,,,$5ed803ad3b309d12d052f1b5,2020-07-21_17h13.16.658,fisher_task,2020.1.3,Win32,60,0.111111111,-0.309259259,1,0,0,1.887165,scale,,,,,,0.1234,0.1,0.3702,0.3,stimuli/lakes/105059_left.png,stimuli/lakes/105059_right.png,,,,0,109,109,59,1,,,,,
,,,,,,$5ed803ad3b309d12d052f1b5,2020-07-21_17h13.16.658,fisher_task,2020.1.3,Win32,60,-0.166666667,-0.408333333,1,0,0,1.46353,scale,,,,,,0.326485712,0.264575131,0.21373507,0.173205081,stimuli/lakes/7090129_left.png,stimuli/lakes/7090129_right.png,,,space,0,110,110,129,1,1.42204,,,,
,,,,,,$5ed803ad3b309d12d052f1b5,2020-07-21_17h13.16.658,fisher_task,2020.1.3,Win32,60,0.118518519,-0.273148148,1,0,0,1.397365,scale,,,,,,0.174513954,0.141421356,0.349027907,0.282842712,stimuli/lakes/2080108_left.png,stimuli/lakes/2080108_right.png,,,,0,111,111,108,1,,,,,
,,,,,,$5ed803ad3b309d12d052f1b5,2020-07-21_17h13.16.658,fisher_task,2020.1.3,Win32,60,-0.094444444,-0.282407407,1,0,0,1.770315,scale,,,,,,0.349027907,0.282842712,0.174513954,0.141421356,stimuli/lakes/80109_left.png,stimuli/lakes/80109_right.png,,,,0,112,112,9,1,,,,,
,,,,,,$5ed803ad3b309d12d052f1b5,2020-07-21_17h13.16.658,fisher_task,2020.1.3,Win32,60,0.166666667,-0.401851852,1,0,0,1.46148,scale,,,,,,0.21373507,0.173205081,0.326485712,0.264575131,stimuli/lakes/30100_left.png,stimuli/lakes/30100_right.png,,,,0,113,113,0,1,,,,,
,,,,,,$5ed803ad3b309d12d052f1b5,2020-07-21_17h13.16.658,fisher_task,2020.1.3,Win32,60,-0.181481481,-0.425925926,1,0,0,1.26336,scale,,,,,,0.2468,0.2,0.302267034,0.244948974,stimuli/lakes/406083_left.png,stimuli/lakes/406083_right.png,,,,0,114,114,83,1,,,,,
,,,,,,$5ed803ad3b309d12d052f1b5,2020-07-21_17h13.16.658,fisher_task,2020.1.3,Win32,60,-0.07037037,-0.258333333,1,0,0,1.777285,scale,,,,,,0.302267034,0.244948974,0.2468,0.2,stimuli/lakes/603028_left.png,stimuli/lakes/603028_right.png,,,,0,115,115,28,1,,,,,
,,,,,,$5ed803ad3b309d12d052f1b5,2020-07-21_17h13.16.658,fisher_task,2020.1.3,Win32,60,-0.155555556,-0.417592593,1,0,0,1.24558,scale,,,,,,0.326485712,0.264575131,0.21373507,0.173205081,stimuli/lakes/707095_left.png,stimuli/lakes/707095_right.png,,,,0,116,116,95,1,,,,,
,,,,,,$5ed803ad3b309d12d052f1b5,2020-07-21_17h13.16.658,fisher_task,2020.1.3,Win32,60,0.168518519,-0.426851852,1,0,0,1.14673,scale,,,,,,0.2468,0.2,0.302267034,0.244948974,stimuli/lakes/402015_left.png,stimuli/lakes/402015_right.png,,,,0,117,117,15,1,,,,,
,,,,,,$5ed803ad3b309d12d052f1b5,2020-07-21_17h13.16.658,fisher_task,2020.1.3,Win32,60,0.14537037,-0.286111111,1,0,0,1.9345,scale,,,,,,0.326485712,0.264575131,0.21373507,0.173205081,stimuli/lakes/702019_left.png,stimuli/lakes/702019_right.png,,,,0,118,118,19,1,,,,,
,,,,,,$5ed803ad3b309d12d052f1b5,2020-07-21_17h13.16.658,fisher_task,2020.1.3,Win32,60,0.160185185,-0.422222222,1,0,0,1.316345,scale,,,,,,0.2468,0.2,0.302267034,0.244948974,stimuli/lakes/404053_left.png,stimuli/lakes/404053_right.png,,,,0,119,119,53,1,,,,,
,,,,,,$5ed803ad3b309d12d052f1b5,2020-07-21_17h13.16.658,fisher_task,2020.1.3,Win32,60,-0.10462963,-0.285185185,1,0,0,1.55544,scale,,,,,,0.3702,0.3,0.1234,0.1,stimuli/lakes/904058_left.png,stimuli/lakes/904058_right.png,,,,0,120,120,58,1,,,,,
,,,,,,$5ed803ad3b309d12d052f1b5,2020-07-21_17h13.16.658,fisher_task,2020.1.3,Win32,60,0.155555556,-0.42962963,1,0,0,1.36246,scale,,,,,,0.21373507,0.173205081,0.326485712,0.264575131,stimuli/lakes/302012_left.png,stimuli/lakes/302012_right.png,,,,0,121,121,12,1,,,,,
,,,,,,$5ed803ad3b309d12d052f1b5,2020-07-21_17h13.16.658,fisher_task,2020.1.3,Win32,60,0.098148148,-0.275925926,1,0,0,2.689,scale,,,,,,0.1234,0.1,0.3702,0.3,stimuli/lakes/1090119_left.png,stimuli/lakes/1090119_right.png,,,,0,122,122,119,1,,,,,
,,,,,,$5ed803ad3b309d12d052f1b5,2020-07-21_17h13.16.658,fisher_task,2020.1.3,Win32,60,-0.162037037,-0.4,1,0,0,1.35114,scale,,,,,,0.326485712,0.264575131,0.21373507,0.173205081,stimuli/lakes/706086_left.png,stimuli/lakes/706086_right.png,,,,0,123,123,86,1,,,,,
,,,,,,$5ed803ad3b309d12d052f1b5,2020-07-21_17h13.16.658,fisher_task,2020.1.3,Win32,60,0.135185185,-0.30462963,1,0,0,1.55054,scale,,,,,,0.326485712,0.264575131,0.21373507,0.173205081,stimuli/lakes/70107_left.png,stimuli/lakes/70107_right.png,,,,0,124,124,7,1,,,,,
,,,,,,$5ed803ad3b309d12d052f1b5,2020-07-21_17h13.16.658,fisher_task,2020.1.3,Win32,60,0.175,-0.419444444,1,0,0,1.1788,scale,,,,,,0.1234,0.1,0.3702,0.3,stimuli/lakes/103023_left.png,stimuli/lakes/103023_right.png,,,,0,125,125,23,1,,,,,
,,,,,,$5ed803ad3b309d12d052f1b5,2020-07-21_17h13.16.658,fisher_task,2020.1.3,Win32,60,-0.111111111,-0.346296296,1,0,0,1.417205,scale,,,,,,0.1234,0.1,0.3702,0.3,stimuli/lakes/107089_left.png,stimuli/lakes/107089_right.png,,,,0,126,126,89,1,,,,,
,,,,,,$5ed803ad3b309d12d052f1b5,2020-07-21_17h13.16.658,fisher_task,2020.1.3,Win32,60,-0.183333333,-0.411111111,1,0,0,1.308355,scale,,,,,,0.275930788,0.223606798,0.275930788,0.223606798,stimuli/lakes/506084_left.png,stimuli/lakes/506084_right.png,,,,0,127,127,84,1,,,,,
,,,,,,$5ed803ad3b309d12d052f1b5,2020-07-21_17h13.16.658,fisher_task,2020.1.3,Win32,60,-0.177777778,-0.398148148,1,0,0,1.278025,scale,,,,,,0.349027907,0.282842712,0.174513954,0.141421356,stimuli/lakes/806078_left.png,stimuli/lakes/806078_right.png,,,,0,128,128,78,1,,,,,
,,,,,,$5ed803ad3b309d12d052f1b5,2020-07-21_17h13.16.658,fisher_task,2020.1.3,Win32,60,0.124074074,-0.301851852,1,0,0,1.576985,scale,,,,,,0.326485712,0.264575131,0.21373507,0.173205081,stimuli/lakes/704056_left.png,stimuli/lakes/704056_right.png,,,,0,129,129,56,1,,,,,
,,,,,,$5ed803ad3b309d12d052f1b5,2020-07-21_17h13.16.658,fisher_task,2020.1.3,Win32,60,,,,,,,,,,,,,,,,,,,,,,,,,,,,space,4.43597,space,2.917895
