keySpace.keys,instructions.thisRepN,instructions.thisTrialN,instructions.thisN,instructions.thisIndex,instructions.ran,participant,date,expName,psychopyVersion,OS,frameRate,mouse.x,mouse.y,mouse.leftButton,mouse.midButton,mouse.rightButton,mouse.time,mouse.clicked_name,training.thisRepN,training.thisTrialN,training.thisN,training.thisIndex,training.ran,widthBasketLeft,heightBasketLeft,widthBasketRight,heightBasketRight,leftLake,rightLake,space2.keys,space2.rt,space1.keys,trials.thisRepN,trials.thisTrialN,trials.thisN,trials.thisIndex,trials.ran,space1.rt,finalSpace1.keys,finalSpace1.rt,finalSpace2.keys,finalSpace2.rt
,0,0,0,0,1,$5ec763033823de196db571f4,2020-07-21_10h17.37.473,fisher_task,2020.1.3,Win32,60,,,,,,,,,,,,,,,,,,,,,,,,,,,,,,,
,,,,,,$5ec763033823de196db571f4,2020-07-21_10h17.37.473,fisher_task,2020.1.3,Win32,60,0.15,-0.428703704,1,0,0,2.899125,scale,0,0,0,0,1,0.275930788,0.223606798,0.275930788,0.223606798,stimuli/training/20_left.png,stimuli/training/20_right.png,,,,,,,,,,,,,
,,,,,,$5ec763033823de196db571f4,2020-07-21_10h17.37.473,fisher_task,2020.1.3,Win32,60,-0.153703704,-0.425925926,1,0,0,2.23288,scale,0,1,1,1,1,0.275930788,0.223606798,0.275930788,0.223606798,stimuli/training/80_left.png,stimuli/training/80_right.png,,,,,,,,,,,,,
,,,,,,$5ec763033823de196db571f4,2020-07-21_10h17.37.473,fisher_task,2020.1.3,Win32,60,0.144444444,-0.417592593,1,0,0,3.14939,scale,0,2,2,2,1,0.174513954,0.141421356,0.349027907,0.282842712,stimuli/training/50_left.png,stimuli/training/50_right.png,,,,,,,,,,,,,
,,,,,,$5ec763033823de196db571f4,2020-07-21_10h17.37.473,fisher_task,2020.1.3,Win32,60,-0.121296296,-0.305555556,1,0,0,4.11636,scale,0,3,3,3,1,0.349027907,0.282842712,0.174513954,0.141421356,stimuli/training/50_left.png,stimuli/training/50_right.png,,,,,,,,,,,,,
,,,,,,$5ec763033823de196db571f4,2020-07-21_10h17.37.473,fisher_task,2020.1.3,Win32,60,-0.003703704,-0.25462963,1,0,0,1.53255,scale,0,4,4,4,1,0.275930788,0.223606798,0.275930788,0.223606798,stimuli/training/50_left.png,stimuli/training/50_right.png,,,,,,,,,,,,,
,,,,,,$5ec763033823de196db571f4,2020-07-21_10h17.37.473,fisher_task,2020.1.3,Win32,60,0.159259259,-0.425925926,1,0,0,1.598815,scale,0,5,5,5,1,0.174513954,0.141421356,0.349027907,0.282842712,stimuli/training/20_left.png,stimuli/training/20_right.png,,,,,,,,,,,,,
,,,,,,$5ec763033823de196db571f4,2020-07-21_10h17.37.473,fisher_task,2020.1.3,Win32,60,-0.156481481,-0.431481481,1,0,0,1.26514,scale,0,6,6,6,1,0.349027907,0.282842712,0.174513954,0.141421356,stimuli/training/80_left.png,stimuli/training/80_right.png,,,,,,,,,,,,,
,,,,,,$5ec763033823de196db571f4,2020-07-21_10h17.37.473,fisher_task,2020.1.3,Win32,60,0.161111111,-0.435185185,1,0,0,2.88311,scale,0,7,7,7,1,0.1234,0.1,0.3702,0.3,stimuli/training/30_left.png,stimuli/training/30_right.png,,,,,,,,,,,,,
,,,,,,$5ec763033823de196db571f4,2020-07-21_10h17.37.473,fisher_task,2020.1.3,Win32,60,-0.148148148,-0.430555556,1,0,0,1.549665,scale,0,8,8,8,1,0.3702,0.3,0.1234,0.1,stimuli/training/70_left.png,stimuli/training/70_right.png,,,,,,,,,,,,,
,,,,,,$5ec763033823de196db571f4,2020-07-21_10h17.37.473,fisher_task,2020.1.3,Win32,60,-0.144444444,-0.42962963,1,0,0,1.51608,scale,0,9,9,9,1,0.326485712,0.264575131,0.21373507,0.173205081,stimuli/training/90_left.png,stimuli/training/90_right.png,,,,,,,,,,,,,
,,,,,,$5ec763033823de196db571f4,2020-07-21_10h17.37.473,fisher_task,2020.1.3,Win32,60,0.159259259,-0.42962963,1,0,0,1.766625,scale,0,10,10,10,1,0.21373507,0.173205081,0.326485712,0.264575131,stimuli/training/10_left.png,stimuli/training/10_right.png,,,,,,,,,,,,,
,,,,,,$5ec763033823de196db571f4,2020-07-21_10h17.37.473,fisher_task,2020.1.3,Win32,60,0.057407407,-0.262037037,1,0,0,7.615995,scale,,,,,,0.2468,0.2,0.302267034,0.244948974,stimuli/lakes/4080111_left.png,stimuli/lakes/4080111_right.png,space,9.394335,,0,0,0,111,1,,,,,
,,,,,,$5ec763033823de196db571f4,2020-07-21_10h17.37.473,fisher_task,2020.1.3,Win32,60,0.052777778,-0.25462963,1,0,0,6.715305,scale,,,,,,0.21373507,0.173205081,0.326485712,0.264575131,stimuli/lakes/3090121_left.png,stimuli/lakes/3090121_right.png,,,,0,1,1,121,1,,,,,
,,,,,,$5ec763033823de196db571f4,2020-07-21_10h17.37.473,fisher_task,2020.1.3,Win32,60,-0.098148148,-0.296296296,1,0,0,2.16623,scale,,,,,,0.2468,0.2,0.302267034,0.244948974,stimuli/lakes/407092_left.png,stimuli/lakes/407092_right.png,,,,0,2,2,92,1,,,,,
,,,,,,$5ec763033823de196db571f4,2020-07-21_10h17.37.473,fisher_task,2020.1.3,Win32,60,0.126851852,-0.344444444,1,0,0,1.58263,scale,,,,,,0.174513954,0.141421356,0.349027907,0.282842712,stimuli/lakes/204042_left.png,stimuli/lakes/204042_right.png,,,,0,3,3,42,1,,,,,
,,,,,,$5ec763033823de196db571f4,2020-07-21_10h17.37.473,fisher_task,2020.1.3,Win32,60,-0.057407407,-0.264814815,1,0,0,3.183035,scale,,,,,,0.275930788,0.223606798,0.275930788,0.223606798,stimuli/lakes/506075_left.png,stimuli/lakes/506075_right.png,,,,0,4,4,75,1,,,,,
,,,,,,$5ec763033823de196db571f4,2020-07-21_10h17.37.473,fisher_task,2020.1.3,Win32,60,-0.105555556,-0.306481481,1,0,0,2.067225,scale,,,,,,0.302267034,0.244948974,0.2468,0.2,stimuli/lakes/605066_left.png,stimuli/lakes/605066_right.png,,,,0,5,5,66,1,,,,,
,,,,,,$5ec763033823de196db571f4,2020-07-21_10h17.37.473,fisher_task,2020.1.3,Win32,60,-0.001851852,-0.256481481,1,0,0,3.04977,scale,,,,,,0.302267034,0.244948974,0.2468,0.2,stimuli/lakes/603028_left.png,stimuli/lakes/603028_right.png,,,,0,6,6,28,1,,,,,
,,,,,,$5ec763033823de196db571f4,2020-07-21_10h17.37.473,fisher_task,2020.1.3,Win32,60,0.107407407,-0.305555556,1,0,0,2.29933,scale,,,,,,0.349027907,0.282842712,0.174513954,0.141421356,stimuli/lakes/804048_left.png,stimuli/lakes/804048_right.png,,,,0,7,7,48,1,,,,,
,,,,,,$5ec763033823de196db571f4,2020-07-21_10h17.37.473,fisher_task,2020.1.3,Win32,60,-0.149074074,-0.364814815,1,0,0,2.148905,scale,,,,,,0.302267034,0.244948974,0.2468,0.2,stimuli/lakes/6090126_left.png,stimuli/lakes/6090126_right.png,,,,0,8,8,126,1,,,,,
,,,,,,$5ec763033823de196db571f4,2020-07-21_10h17.37.473,fisher_task,2020.1.3,Win32,60,-0.147222222,-0.35462963,1,0,0,1.499655,scale,,,,,,0.326485712,0.264575131,0.21373507,0.173205081,stimuli/lakes/7090129_left.png,stimuli/lakes/7090129_right.png,,,,0,9,9,129,1,,,,,
,,,,,,$5ec763033823de196db571f4,2020-07-21_10h17.37.473,fisher_task,2020.1.3,Win32,60,0.146296296,-0.371296296,1,0,0,1.700125,scale,,,,,,0.2468,0.2,0.302267034,0.244948974,stimuli/lakes/403026_left.png,stimuli/lakes/403026_right.png,,,,0,10,10,26,1,,,,,
,,,,,,$5ec763033823de196db571f4,2020-07-21_10h17.37.473,fisher_task,2020.1.3,Win32,60,0.144444444,-0.382407407,1,0,0,1.999735,scale,,,,,,0.326485712,0.264575131,0.21373507,0.173205081,stimuli/lakes/702019_left.png,stimuli/lakes/702019_right.png,,,,0,11,11,19,1,,,,,
,,,,,,$5ec763033823de196db571f4,2020-07-21_10h17.37.473,fisher_task,2020.1.3,Win32,60,0.143518519,-0.366666667,1,0,0,1.13261,scale,,,,,,0.2468,0.2,0.302267034,0.244948974,stimuli/lakes/402015_left.png,stimuli/lakes/402015_right.png,,,,0,12,12,15,1,,,,,
,,,,,,$5ec763033823de196db571f4,2020-07-21_10h17.37.473,fisher_task,2020.1.3,Win32,60,-0.135185185,-0.357407407,1,0,0,1.798195,scale,,,,,,0.349027907,0.282842712,0.174513954,0.141421356,stimuli/lakes/8080118_left.png,stimuli/lakes/8080118_right.png,,,,0,13,13,118,1,,,,,
,,,,,,$5ec763033823de196db571f4,2020-07-21_10h17.37.473,fisher_task,2020.1.3,Win32,60,0.164814815,-0.417592593,1,0,0,1.065725,scale,,,,,,0.1234,0.1,0.3702,0.3,stimuli/lakes/103032_left.png,stimuli/lakes/103032_right.png,,,,0,14,14,32,1,,,,,
,,,,,,$5ec763033823de196db571f4,2020-07-21_10h17.37.473,fisher_task,2020.1.3,Win32,60,-0.061111111,-0.272222222,1,0,0,2.865785,scale,,,,,,0.275930788,0.223606798,0.275930788,0.223606798,stimuli/lakes/5070102_left.png,stimuli/lakes/5070102_right.png,,,,0,15,15,102,1,,,,,
,,,,,,$5ec763033823de196db571f4,2020-07-21_10h17.37.473,fisher_task,2020.1.3,Win32,60,-0.062962963,-0.262037037,1,0,0,2.316135,scale,,,,,,0.21373507,0.173205081,0.326485712,0.264575131,stimuli/lakes/306082_left.png,stimuli/lakes/306082_right.png,,,,0,16,16,82,1,,,,,
,,,,,,$5ec763033823de196db571f4,2020-07-21_10h17.37.473,fisher_task,2020.1.3,Win32,60,-0.131481481,-0.335185185,1,0,0,3.366125,scale,,,,,,0.326485712,0.264575131,0.21373507,0.173205081,stimuli/lakes/7080117_left.png,stimuli/lakes/7080117_right.png,,,,0,17,17,117,1,,,,,
,,,,,,$5ec763033823de196db571f4,2020-07-21_10h17.37.473,fisher_task,2020.1.3,Win32,60,-0.033333333,-0.250925926,1,0,0,3.26628,scale,,,,,,0.3702,0.3,0.1234,0.1,stimuli/lakes/904049_left.png,stimuli/lakes/904049_right.png,,,,0,18,18,49,1,,,,,
,,,,,,$5ec763033823de196db571f4,2020-07-21_10h17.37.473,fisher_task,2020.1.3,Win32,60,0.048148148,-0.264814815,1,0,0,4.883305,scale,,,,,,0.2468,0.2,0.302267034,0.244948974,stimuli/lakes/4070101_left.png,stimuli/lakes/4070101_right.png,,,,0,19,19,101,1,,,,,
,,,,,,$5ec763033823de196db571f4,2020-07-21_10h17.37.473,fisher_task,2020.1.3,Win32,60,0.111111111,-0.312037037,1,0,0,1.682685,scale,,,,,,0.21373507,0.173205081,0.326485712,0.264575131,stimuli/lakes/302012_left.png,stimuli/lakes/302012_right.png,,,,0,20,20,12,1,,,,,
,,,,,,$5ec763033823de196db571f4,2020-07-21_10h17.37.473,fisher_task,2020.1.3,Win32,60,-0.047222222,-0.263888889,1,0,0,1.74881,scale,,,,,,0.3702,0.3,0.1234,0.1,stimuli/lakes/903040_left.png,stimuli/lakes/903040_right.png,,,,0,21,21,40,1,,,,,
,,,,,,$5ec763033823de196db571f4,2020-07-21_10h17.37.473,fisher_task,2020.1.3,Win32,60,-0.038888889,-0.256481481,1,0,0,2.615975,scale,,,,,,0.174513954,0.141421356,0.349027907,0.282842712,stimuli/lakes/207099_left.png,stimuli/lakes/207099_right.png,,,space,0,22,22,99,1,4.032215,,,,
,,,,,,$5ec763033823de196db571f4,2020-07-21_10h17.37.473,fisher_task,2020.1.3,Win32,60,0.002777778,-0.250925926,1,0,0,2.816505,scale,,,,,,0.349027907,0.282842712,0.174513954,0.141421356,stimuli/lakes/805069_left.png,stimuli/lakes/805069_right.png,,,,0,23,23,69,1,,,,,
,,,,,,$5ec763033823de196db571f4,2020-07-21_10h17.37.473,fisher_task,2020.1.3,Win32,60,0.066666667,-0.27037037,1,0,0,2.399065,scale,,,,,,0.2468,0.2,0.302267034,0.244948974,stimuli/lakes/40103_left.png,stimuli/lakes/40103_right.png,,,,0,24,24,3,1,,,,,
,,,,,,$5ec763033823de196db571f4,2020-07-21_10h17.37.473,fisher_task,2020.1.3,Win32,60,-0.041666667,-0.251851852,1,0,0,2.567515,scale,,,,,,0.2468,0.2,0.302267034,0.244948974,stimuli/lakes/406083_left.png,stimuli/lakes/406083_right.png,,,,0,25,25,83,1,,,,,
,,,,,,$5ec763033823de196db571f4,2020-07-21_10h17.37.473,fisher_task,2020.1.3,Win32,60,0.000925926,-0.259259259,1,0,0,2.16712,scale,,,,,,0.1234,0.1,0.3702,0.3,stimuli/lakes/106071_left.png,stimuli/lakes/106071_right.png,,,,0,26,26,71,1,,,,,
,,,,,,$5ec763033823de196db571f4,2020-07-21_10h17.37.473,fisher_task,2020.1.3,Win32,60,-0.098148148,-0.296296296,1,0,0,1.68255,scale,,,,,,0.2468,0.2,0.302267034,0.244948974,stimuli/lakes/4090124_left.png,stimuli/lakes/4090124_right.png,,,,0,27,27,124,1,,,,,
,,,,,,$5ec763033823de196db571f4,2020-07-21_10h17.37.473,fisher_task,2020.1.3,Win32,60,-0.075925926,-0.27962963,1,0,0,1.550155,scale,,,,,,0.275930788,0.223606798,0.275930788,0.223606798,stimuli/lakes/5080113_left.png,stimuli/lakes/5080113_right.png,,,,0,28,28,113,1,,,,,
,,,,,,$5ec763033823de196db571f4,2020-07-21_10h17.37.473,fisher_task,2020.1.3,Win32,60,-0.075925926,-0.27962963,1,0,0,1.582985,scale,,,,,,0.302267034,0.244948974,0.2468,0.2,stimuli/lakes/6080114_left.png,stimuli/lakes/6080114_right.png,,,,0,29,29,114,1,,,,,
,,,,,,$5ec763033823de196db571f4,2020-07-21_10h17.37.473,fisher_task,2020.1.3,Win32,60,-0.101851852,-0.291666667,1,0,0,4.48299,scale,,,,,,0.326485712,0.264575131,0.21373507,0.173205081,stimuli/lakes/705067_left.png,stimuli/lakes/705067_right.png,,,,0,30,30,67,1,,,,,
,,,,,,$5ec763033823de196db571f4,2020-07-21_10h17.37.473,fisher_task,2020.1.3,Win32,60,-0.126851852,-0.318518519,1,0,0,2.433655,scale,,,,,,0.275930788,0.223606798,0.275930788,0.223606798,stimuli/lakes/5090125_left.png,stimuli/lakes/5090125_right.png,,,,0,31,31,125,1,,,,,
,,,,,,$5ec763033823de196db571f4,2020-07-21_10h17.37.473,fisher_task,2020.1.3,Win32,60,-0.086111111,-0.290740741,1,0,0,3.88366,scale,,,,,,0.3702,0.3,0.1234,0.1,stimuli/lakes/903031_left.png,stimuli/lakes/903031_right.png,,,,0,32,32,31,1,,,,,
,,,,,,$5ec763033823de196db571f4,2020-07-21_10h17.37.473,fisher_task,2020.1.3,Win32,60,0.05462963,-0.251851852,1,0,0,2.59945,scale,,,,,,0.174513954,0.141421356,0.349027907,0.282842712,stimuli/lakes/206072_left.png,stimuli/lakes/206072_right.png,,,,0,33,33,72,1,,,,,
,,,,,,$5ec763033823de196db571f4,2020-07-21_10h17.37.473,fisher_task,2020.1.3,Win32,60,0.033333333,-0.259259259,1,0,0,2.21638,scale,,,,,,0.1234,0.1,0.3702,0.3,stimuli/lakes/107089_left.png,stimuli/lakes/107089_right.png,,,,0,34,34,89,1,,,,,
,,,,,,$5ec763033823de196db571f4,2020-07-21_10h17.37.473,fisher_task,2020.1.3,Win32,60,0.091666667,-0.297222222,1,0,0,3.916515,scale,,,,,,0.326485712,0.264575131,0.21373507,0.173205081,stimuli/lakes/70108_left.png,stimuli/lakes/70108_right.png,,,,0,35,35,8,1,,,,,
,,,,,,$5ec763033823de196db571f4,2020-07-21_10h17.37.473,fisher_task,2020.1.3,Win32,60,0.04537037,-0.260185185,1,0,0,1.34934,scale,,,,,,0.21373507,0.173205081,0.326485712,0.264575131,stimuli/lakes/306073_left.png,stimuli/lakes/306073_right.png,,,,0,36,36,73,1,,,,,
,,,,,,$5ec763033823de196db571f4,2020-07-21_10h17.37.473,fisher_task,2020.1.3,Win32,60,0.139814815,-0.341666667,1,0,0,1.51596,scale,,,,,,0.174513954,0.141421356,0.349027907,0.282842712,stimuli/lakes/203033_left.png,stimuli/lakes/203033_right.png,,,,0,37,37,33,1,,,,,
,,,,,,$5ec763033823de196db571f4,2020-07-21_10h17.37.473,fisher_task,2020.1.3,Win32,60,-0.106481481,-0.29537037,1,0,0,2.917075,scale,,,,,,0.3702,0.3,0.1234,0.1,stimuli/lakes/905070_left.png,stimuli/lakes/905070_right.png,,,,0,38,38,70,1,,,,,
,,,,,,$5ec763033823de196db571f4,2020-07-21_10h17.37.473,fisher_task,2020.1.3,Win32,60,-0.040740741,-0.268518519,1,0,0,1.916855,scale,,,,,,0.2468,0.2,0.302267034,0.244948974,stimuli/lakes/406074_left.png,stimuli/lakes/406074_right.png,,,,0,39,39,74,1,,,,,
,,,,,,$5ec763033823de196db571f4,2020-07-21_10h17.37.473,fisher_task,2020.1.3,Win32,60,0.10462963,-0.311111111,1,0,0,2.18323,scale,,,,,,0.21373507,0.173205081,0.326485712,0.264575131,stimuli/lakes/302013_left.png,stimuli/lakes/302013_right.png,,,,0,40,40,13,1,,,,,
,,,,,,$5ec763033823de196db571f4,2020-07-21_10h17.37.473,fisher_task,2020.1.3,Win32,60,0.10462963,-0.311111111,1,0,0,1.11614,scale,,,,,,0.21373507,0.173205081,0.326485712,0.264575131,stimuli/lakes/30100_left.png,stimuli/lakes/30100_right.png,,,,0,41,41,0,1,,,,,
,,,,,,$5ec763033823de196db571f4,2020-07-21_10h17.37.473,fisher_task,2020.1.3,Win32,60,-0.062962963,-0.266666667,1,0,0,2.34947,scale,,,,,,0.3702,0.3,0.1234,0.1,stimuli/lakes/906079_left.png,stimuli/lakes/906079_right.png,,,,0,42,42,79,1,,,,,
,,,,,,$5ec763033823de196db571f4,2020-07-21_10h17.37.473,fisher_task,2020.1.3,Win32,60,-0.032407407,-0.259259259,1,0,0,2.349545,scale,,,,,,0.302267034,0.244948974,0.2468,0.2,stimuli/lakes/603037_left.png,stimuli/lakes/603037_right.png,,,,0,43,43,37,1,,,,,
,,,,,,$5ec763033823de196db571f4,2020-07-21_10h17.37.473,fisher_task,2020.1.3,Win32,60,0.040740741,-0.264814815,1,0,0,1.81519,scale,,,,,,0.2468,0.2,0.302267034,0.244948974,stimuli/lakes/403035_left.png,stimuli/lakes/403035_right.png,,,space,0,44,44,35,1,2.22593,,,,
,,,,,,$5ec763033823de196db571f4,2020-07-21_10h17.37.473,fisher_task,2020.1.3,Win32,60,-0.096296296,-0.29537037,1,0,0,1.91611,scale,,,,,,0.326485712,0.264575131,0.21373507,0.173205081,stimuli/lakes/707095_left.png,stimuli/lakes/707095_right.png,,,,0,45,45,95,1,,,,,
,,,,,,$5ec763033823de196db571f4,2020-07-21_10h17.37.473,fisher_task,2020.1.3,Win32,60,-0.032407407,-0.259259259,1,0,0,2.215965,scale,,,,,,0.302267034,0.244948974,0.2468,0.2,stimuli/lakes/605065_left.png,stimuli/lakes/605065_right.png,,,,0,46,46,65,1,,,,,
,,,,,,$5ec763033823de196db571f4,2020-07-21_10h17.37.473,fisher_task,2020.1.3,Win32,60,-0.028703704,-0.247222222,1,0,0,2.566235,scale,,,,,,0.302267034,0.244948974,0.2468,0.2,stimuli/lakes/602017_left.png,stimuli/lakes/602017_right.png,,,,0,47,47,17,1,,,,,
,,,,,,$5ec763033823de196db571f4,2020-07-21_10h17.37.473,fisher_task,2020.1.3,Win32,60,0.092592593,-0.294444444,1,0,0,6.23336,scale,,,,,,0.349027907,0.282842712,0.174513954,0.141421356,stimuli/lakes/80109_left.png,stimuli/lakes/80109_right.png,,,,0,48,48,9,1,,,,,
,,,,,,$5ec763033823de196db571f4,2020-07-21_10h17.37.473,fisher_task,2020.1.3,Win32,60,-0.050925926,-0.263888889,1,0,0,3.25036,scale,,,,,,0.349027907,0.282842712,0.174513954,0.141421356,stimuli/lakes/804057_left.png,stimuli/lakes/804057_right.png,,,,0,49,49,57,1,,,,,
,,,,,,$5ec763033823de196db571f4,2020-07-21_10h17.37.473,fisher_task,2020.1.3,Win32,60,0.053703704,-0.266666667,1,0,0,2.31628,scale,,,,,,0.1234,0.1,0.3702,0.3,stimuli/lakes/107098_left.png,stimuli/lakes/107098_right.png,,,,0,50,50,98,1,,,,,
,,,,,,$5ec763033823de196db571f4,2020-07-21_10h17.37.473,fisher_task,2020.1.3,Win32,60,0.076851852,-0.282407407,1,0,0,3.34998,scale,,,,,,0.2468,0.2,0.302267034,0.244948974,stimuli/lakes/404053_left.png,stimuli/lakes/404053_right.png,,,,0,51,51,53,1,,,,,
,,,,,,$5ec763033823de196db571f4,2020-07-21_10h17.37.473,fisher_task,2020.1.3,Win32,60,-0.158333333,-0.412037037,1,0,0,3.18277,scale,,,,,,0.3702,0.3,0.1234,0.1,stimuli/lakes/907097_left.png,stimuli/lakes/907097_right.png,,,,0,52,52,97,1,,,,,
,,,,,,$5ec763033823de196db571f4,2020-07-21_10h17.37.473,fisher_task,2020.1.3,Win32,60,0.053703704,-0.263888889,1,0,0,1.965855,scale,,,,,,0.21373507,0.173205081,0.326485712,0.264575131,stimuli/lakes/3070100_left.png,stimuli/lakes/3070100_right.png,,,,0,53,53,100,1,,,,,
,,,,,,$5ec763033823de196db571f4,2020-07-21_10h17.37.473,fisher_task,2020.1.3,Win32,60,0.053703704,-0.266666667,1,0,0,1.500095,scale,,,,,,0.21373507,0.173205081,0.326485712,0.264575131,stimuli/lakes/3080109_left.png,stimuli/lakes/3080109_right.png,,,,0,54,54,109,1,,,,,
,,,,,,$5ec763033823de196db571f4,2020-07-21_10h17.37.473,fisher_task,2020.1.3,Win32,60,0.073148148,-0.266666667,1,0,0,2.35119,scale,,,,,,0.275930788,0.223606798,0.275930788,0.223606798,stimuli/lakes/503036_left.png,stimuli/lakes/503036_right.png,,,,0,55,55,36,1,,,,,
,,,,,,$5ec763033823de196db571f4,2020-07-21_10h17.37.473,fisher_task,2020.1.3,Win32,60,-0.084259259,-0.277777778,1,0,0,6.98287,scale,,,,,,0.302267034,0.244948974,0.2468,0.2,stimuli/lakes/6090127_left.png,stimuli/lakes/6090127_right.png,,,,0,56,56,127,1,,,,,
,,,,,,$5ec763033823de196db571f4,2020-07-21_10h17.37.473,fisher_task,2020.1.3,Win32,60,-0.125,-0.342592593,1,0,0,1.34938,scale,,,,,,0.3702,0.3,0.1234,0.1,stimuli/lakes/9070106_left.png,stimuli/lakes/9070106_right.png,,,,0,57,57,106,1,,,,,
,,,,,,$5ec763033823de196db571f4,2020-07-21_10h17.37.473,fisher_task,2020.1.3,Win32,60,0.012962963,-0.251851852,1,0,0,4.766155,scale,,,,,,0.302267034,0.244948974,0.2468,0.2,stimuli/lakes/60106_left.png,stimuli/lakes/60106_right.png,,,,0,58,58,6,1,,,,,
,,,,,,$5ec763033823de196db571f4,2020-07-21_10h17.37.473,fisher_task,2020.1.3,Win32,60,-0.140740741,-0.360185185,1,0,0,4.06675,scale,,,,,,0.349027907,0.282842712,0.174513954,0.141421356,stimuli/lakes/806078_left.png,stimuli/lakes/806078_right.png,,,,0,59,59,78,1,,,,,
,,,,,,$5ec763033823de196db571f4,2020-07-21_10h17.37.473,fisher_task,2020.1.3,Win32,60,0.024074074,-0.250925926,1,0,0,2.44969,scale,,,,,,0.2468,0.2,0.302267034,0.244948974,stimuli/lakes/4090123_left.png,stimuli/lakes/4090123_right.png,,,,0,60,60,123,1,,,,,
,,,,,,$5ec763033823de196db571f4,2020-07-21_10h17.37.473,fisher_task,2020.1.3,Win32,60,0.022222222,-0.25462963,1,0,0,1.44975,scale,,,,,,0.21373507,0.173205081,0.326485712,0.264575131,stimuli/lakes/3080110_left.png,stimuli/lakes/3080110_right.png,,,,0,61,61,110,1,,,,,
,,,,,,$5ec763033823de196db571f4,2020-07-21_10h17.37.473,fisher_task,2020.1.3,Win32,60,-0.086111111,-0.290740741,1,0,0,1.232965,scale,,,,,,0.326485712,0.264575131,0.21373507,0.173205081,stimuli/lakes/7070104_left.png,stimuli/lakes/7070104_right.png,,,,0,62,62,104,1,,,,,
,,,,,,$5ec763033823de196db571f4,2020-07-21_10h17.37.473,fisher_task,2020.1.3,Win32,60,0.075925926,-0.277777778,1,0,0,3.783245,scale,,,,,,0.2468,0.2,0.302267034,0.244948974,stimuli/lakes/40102_left.png,stimuli/lakes/40102_right.png,,,,0,63,63,2,1,,,,,
,,,,,,$5ec763033823de196db571f4,2020-07-21_10h17.37.473,fisher_task,2020.1.3,Win32,60,0.089814815,-0.296296296,1,0,0,7.99973,scale,,,,,,0.174513954,0.141421356,0.349027907,0.282842712,stimuli/lakes/204051_left.png,stimuli/lakes/204051_right.png,,,,0,64,64,51,1,,,,,
,,,,,,$5ec763033823de196db571f4,2020-07-21_10h17.37.473,fisher_task,2020.1.3,Win32,60,0.088888889,-0.294444444,1,0,0,3.85055,scale,,,,,,0.2468,0.2,0.302267034,0.244948974,stimuli/lakes/402014_left.png,stimuli/lakes/402014_right.png,,,,0,65,65,14,1,,,,,
,,,,,,$5ec763033823de196db571f4,2020-07-21_10h17.37.473,fisher_task,2020.1.3,Win32,60,-0.099074074,-0.288888889,1,0,0,0.766115,scale,,,,,,0.326485712,0.264575131,0.21373507,0.173205081,stimuli/lakes/70107_left.png,stimuli/lakes/70107_right.png,,,space,0,66,66,7,1,2.01495,,,,
,,,,,,$5ec763033823de196db571f4,2020-07-21_10h17.37.473,fisher_task,2020.1.3,Win32,60,0.025925926,-0.261111111,1,0,0,1.465875,scale,,,,,,0.21373507,0.173205081,0.326485712,0.264575131,stimuli/lakes/307091_left.png,stimuli/lakes/307091_right.png,,,,0,67,67,91,1,,,,,
,,,,,,$5ec763033823de196db571f4,2020-07-21_10h17.37.473,fisher_task,2020.1.3,Win32,60,-0.090740741,-0.298148148,1,0,0,1.56577,scale,,,,,,0.326485712,0.264575131,0.21373507,0.173205081,stimuli/lakes/706086_left.png,stimuli/lakes/706086_right.png,,,,0,68,68,86,1,,,,,
,,,,,,$5ec763033823de196db571f4,2020-07-21_10h17.37.473,fisher_task,2020.1.3,Win32,60,0.125925926,-0.338888889,1,0,0,1.932335,scale,,,,,,0.21373507,0.173205081,0.326485712,0.264575131,stimuli/lakes/303034_left.png,stimuli/lakes/303034_right.png,,,,0,69,69,34,1,,,,,
,,,,,,$5ec763033823de196db571f4,2020-07-21_10h17.37.473,fisher_task,2020.1.3,Win32,60,-0.002777778,-0.25,1,0,0,2.64973,scale,,,,,,0.2468,0.2,0.302267034,0.244948974,stimuli/lakes/405064_left.png,stimuli/lakes/405064_right.png,,,,0,70,70,64,1,,,,,
,,,,,,$5ec763033823de196db571f4,2020-07-21_10h17.37.473,fisher_task,2020.1.3,Win32,60,0.001851852,-0.253703704,1,0,0,0.966365,scale,,,,,,0.275930788,0.223606798,0.275930788,0.223606798,stimuli/lakes/504045_left.png,stimuli/lakes/504045_right.png,,,,0,71,71,45,1,,,,,
,,,,,,$5ec763033823de196db571f4,2020-07-21_10h17.37.473,fisher_task,2020.1.3,Win32,60,-0.083333333,-0.278703704,1,0,0,1.83304,scale,,,,,,0.326485712,0.264575131,0.21373507,0.173205081,stimuli/lakes/706077_left.png,stimuli/lakes/706077_right.png,,,,0,72,72,77,1,,,,,
,,,,,,$5ec763033823de196db571f4,2020-07-21_10h17.37.473,fisher_task,2020.1.3,Win32,60,-0.083333333,-0.278703704,1,0,0,0.75052,scale,,,,,,0.302267034,0.244948974,0.2468,0.2,stimuli/lakes/607094_left.png,stimuli/lakes/607094_right.png,,,,0,73,73,94,1,,,,,
,,,,,,$5ec763033823de196db571f4,2020-07-21_10h17.37.473,fisher_task,2020.1.3,Win32,60,0.05462963,-0.27962963,1,0,0,5.18303,scale,,,,,,0.21373507,0.173205081,0.326485712,0.264575131,stimuli/lakes/305061_left.png,stimuli/lakes/305061_right.png,,,,0,74,74,61,1,,,,,
,,,,,,$5ec763033823de196db571f4,2020-07-21_10h17.37.473,fisher_task,2020.1.3,Win32,60,-0.101851852,-0.301851852,1,0,0,3.1333,scale,,,,,,0.326485712,0.264575131,0.21373507,0.173205081,stimuli/lakes/7080116_left.png,stimuli/lakes/7080116_right.png,,,,0,75,75,116,1,,,,,
,,,,,,$5ec763033823de196db571f4,2020-07-21_10h17.37.473,fisher_task,2020.1.3,Win32,60,-0.021296296,-0.258333333,1,0,0,3.46637,scale,,,,,,0.275930788,0.223606798,0.275930788,0.223606798,stimuli/lakes/506084_left.png,stimuli/lakes/506084_right.png,,,,0,76,76,84,1,,,,,
,,,,,,$5ec763033823de196db571f4,2020-07-21_10h17.37.473,fisher_task,2020.1.3,Win32,60,0.066666667,-0.275,1,0,0,2.71727,scale,,,,,,0.1234,0.1,0.3702,0.3,stimuli/lakes/105059_left.png,stimuli/lakes/105059_right.png,,,,0,77,77,59,1,,,,,
,,,,,,$5ec763033823de196db571f4,2020-07-21_10h17.37.473,fisher_task,2020.1.3,Win32,60,0.061111111,-0.275,1,0,0,0.999615,scale,,,,,,0.174513954,0.141421356,0.349027907,0.282842712,stimuli/lakes/206081_left.png,stimuli/lakes/206081_right.png,,,,0,78,78,81,1,,,,,
,,,,,,$5ec763033823de196db571f4,2020-07-21_10h17.37.473,fisher_task,2020.1.3,Win32,60,-0.040740741,-0.268518519,1,0,0,1.86616,scale,,,,,,0.302267034,0.244948974,0.2468,0.2,stimuli/lakes/604055_left.png,stimuli/lakes/604055_right.png,,,,0,79,79,55,1,,,,,
,,,,,,$5ec763033823de196db571f4,2020-07-21_10h17.37.473,fisher_task,2020.1.3,Win32,60,0.031481481,-0.265740741,1,0,0,2.03382,scale,,,,,,0.275930788,0.223606798,0.275930788,0.223606798,stimuli/lakes/503027_left.png,stimuli/lakes/503027_right.png,,,,0,80,80,27,1,,,,,
,,,,,,$5ec763033823de196db571f4,2020-07-21_10h17.37.473,fisher_task,2020.1.3,Win32,60,-0.041666667,-0.260185185,1,0,0,2.650235,scale,,,,,,0.349027907,0.282842712,0.174513954,0.141421356,stimuli/lakes/802021_left.png,stimuli/lakes/802021_right.png,,,,0,81,81,21,1,,,,,
,,,,,,$5ec763033823de196db571f4,2020-07-21_10h17.37.473,fisher_task,2020.1.3,Win32,60,0.100925926,-0.303703704,1,0,0,4.133735,scale,,,,,,0.1234,0.1,0.3702,0.3,stimuli/lakes/104041_left.png,stimuli/lakes/104041_right.png,,,,0,82,82,41,1,,,,,
,,,,,,$5ec763033823de196db571f4,2020-07-21_10h17.37.473,fisher_task,2020.1.3,Win32,60,0.076851852,-0.287037037,1,0,0,1.11639,scale,,,,,,0.21373507,0.173205081,0.326485712,0.264575131,stimuli/lakes/303025_left.png,stimuli/lakes/303025_right.png,,,,0,83,83,25,1,,,,,
,,,,,,$5ec763033823de196db571f4,2020-07-21_10h17.37.473,fisher_task,2020.1.3,Win32,60,-0.02962963,-0.258333333,1,0,0,12.31642,scale,,,,,,0.174513954,0.141421356,0.349027907,0.282842712,stimuli/lakes/2090120_left.png,stimuli/lakes/2090120_right.png,,,,0,84,84,120,1,,,,,
,,,,,,$5ec763033823de196db571f4,2020-07-21_10h17.37.473,fisher_task,2020.1.3,Win32,60,-0.02962963,-0.258333333,1,0,0,2.95005,scale,,,,,,0.1234,0.1,0.3702,0.3,stimuli/lakes/1090119_left.png,stimuli/lakes/1090119_right.png,,,,0,85,85,119,1,,,,,
,,,,,,$5ec763033823de196db571f4,2020-07-21_10h17.37.473,fisher_task,2020.1.3,Win32,60,-0.041666667,-0.262037037,1,0,0,2.849115,scale,,,,,,0.326485712,0.264575131,0.21373507,0.173205081,stimuli/lakes/704056_left.png,stimuli/lakes/704056_right.png,,,,0,86,86,56,1,,,,,
,,,,,,$5ec763033823de196db571f4,2020-07-21_10h17.37.473,fisher_task,2020.1.3,Win32,60,-0.041666667,-0.262962963,1,0,0,6.150325,scale,,,,,,0.3702,0.3,0.1234,0.1,stimuli/lakes/904058_left.png,stimuli/lakes/904058_right.png,,,,0,87,87,58,1,,,,,
,,,,,,$5ec763033823de196db571f4,2020-07-21_10h17.37.473,fisher_task,2020.1.3,Win32,60,0.066666667,-0.268518519,1,0,0,4.24971,scale,,,,,,0.275930788,0.223606798,0.275930788,0.223606798,stimuli/lakes/504054_left.png,stimuli/lakes/504054_right.png,,,space,0,88,88,54,1,1.94956,,,,
,,,,,,$5ec763033823de196db571f4,2020-07-21_10h17.37.473,fisher_task,2020.1.3,Win32,60,0.000925926,-0.262962963,1,0,0,1.633205,scale,,,,,,0.2468,0.2,0.302267034,0.244948974,stimuli/lakes/405063_left.png,stimuli/lakes/405063_right.png,,,,0,89,89,63,1,,,,,
,,,,,,$5ec763033823de196db571f4,2020-07-21_10h17.37.473,fisher_task,2020.1.3,Win32,60,-0.034259259,-0.259259259,1,0,0,2.516205,scale,,,,,,0.1234,0.1,0.3702,0.3,stimuli/lakes/106080_left.png,stimuli/lakes/106080_right.png,,,,0,90,90,80,1,,,,,
,,,,,,$5ec763033823de196db571f4,2020-07-21_10h17.37.473,fisher_task,2020.1.3,Win32,60,0.140740741,-0.340740741,1,0,0,3.83292,scale,,,,,,0.174513954,0.141421356,0.349027907,0.282842712,stimuli/lakes/203024_left.png,stimuli/lakes/203024_right.png,,,,0,91,91,24,1,,,,,
,,,,,,$5ec763033823de196db571f4,2020-07-21_10h17.37.473,fisher_task,2020.1.3,Win32,60,0.066666667,-0.27037037,1,0,0,2.96584,scale,,,,,,0.3702,0.3,0.1234,0.1,stimuli/lakes/901010_left.png,stimuli/lakes/901010_right.png,,,,0,92,92,10,1,,,,,
,,,,,,$5ec763033823de196db571f4,2020-07-21_10h17.37.473,fisher_task,2020.1.3,Win32,60,0.106481481,-0.298148148,1,0,0,2.24965,scale,,,,,,0.2468,0.2,0.302267034,0.244948974,stimuli/lakes/404044_left.png,stimuli/lakes/404044_right.png,,,,0,93,93,44,1,,,,,
,,,,,,$5ec763033823de196db571f4,2020-07-21_10h17.37.473,fisher_task,2020.1.3,Win32,60,0.074074074,-0.285185185,1,0,0,2.183115,scale,,,,,,0.174513954,0.141421356,0.349027907,0.282842712,stimuli/lakes/205060_left.png,stimuli/lakes/205060_right.png,,,,0,94,94,60,1,,,,,
,,,,,,$5ec763033823de196db571f4,2020-07-21_10h17.37.473,fisher_task,2020.1.3,Win32,60,0.121296296,-0.321296296,1,0,0,2.583005,scale,,,,,,0.1234,0.1,0.3702,0.3,stimuli/lakes/103023_left.png,stimuli/lakes/103023_right.png,,,,0,95,95,23,1,,,,,
,,,,,,$5ec763033823de196db571f4,2020-07-21_10h17.37.473,fisher_task,2020.1.3,Win32,60,-0.148148148,-0.375925926,1,0,0,2.99988,scale,,,,,,0.2468,0.2,0.302267034,0.244948974,stimuli/lakes/4080112_left.png,stimuli/lakes/4080112_right.png,,,,0,96,96,112,1,,,,,
,,,,,,$5ec763033823de196db571f4,2020-07-21_10h17.37.473,fisher_task,2020.1.3,Win32,60,-0.087962963,-0.276851852,1,0,0,3.03328,scale,,,,,,0.21373507,0.173205081,0.326485712,0.264575131,stimuli/lakes/3090122_left.png,stimuli/lakes/3090122_right.png,,,,0,97,97,122,1,,,,,
,,,,,,$5ec763033823de196db571f4,2020-07-21_10h17.37.473,fisher_task,2020.1.3,Win32,60,0.049074074,-0.266666667,1,0,0,2.283115,scale,,,,,,0.1234,0.1,0.3702,0.3,stimuli/lakes/1080107_left.png,stimuli/lakes/1080107_right.png,,,,0,98,98,107,1,,,,,
,,,,,,$5ec763033823de196db571f4,2020-07-21_10h17.37.473,fisher_task,2020.1.3,Win32,60,0.041666667,-0.261111111,1,0,0,2.63266,scale,,,,,,0.21373507,0.173205081,0.326485712,0.264575131,stimuli/lakes/305062_left.png,stimuli/lakes/305062_right.png,,,,0,99,99,62,1,,,,,
,,,,,,$5ec763033823de196db571f4,2020-07-21_10h17.37.473,fisher_task,2020.1.3,Win32,60,0.058333333,-0.266666667,1,0,0,2.733465,scale,,,,,,0.302267034,0.244948974,0.2468,0.2,stimuli/lakes/602018_left.png,stimuli/lakes/602018_right.png,,,,0,100,100,18,1,,,,,
,,,,,,$5ec763033823de196db571f4,2020-07-21_10h17.37.473,fisher_task,2020.1.3,Win32,60,0.081481481,-0.284259259,1,0,0,3.030845,scale,,,,,,0.326485712,0.264575131,0.21373507,0.173205081,stimuli/lakes/703029_left.png,stimuli/lakes/703029_right.png,,,,0,101,101,29,1,,,,,
,,,,,,$5ec763033823de196db571f4,2020-07-21_10h17.37.473,fisher_task,2020.1.3,Win32,60,-0.125,-0.314814815,1,0,0,1.84971,scale,,,,,,0.302267034,0.244948974,0.2468,0.2,stimuli/lakes/6070103_left.png,stimuli/lakes/6070103_right.png,,,,0,102,102,103,1,,,,,
,,,,,,$5ec763033823de196db571f4,2020-07-21_10h17.37.473,fisher_task,2020.1.3,Win32,60,-0.155555556,-0.391666667,1,0,0,2.20108,scale,,,,,,0.326485712,0.264575131,0.21373507,0.173205081,stimuli/lakes/7090128_left.png,stimuli/lakes/7090128_right.png,,,,0,103,103,128,1,,,,,
,,,,,,$5ec763033823de196db571f4,2020-07-21_10h17.37.473,fisher_task,2020.1.3,Win32,60,0.108333333,-0.317592593,1,0,0,2.299435,scale,,,,,,0.21373507,0.173205081,0.326485712,0.264575131,stimuli/lakes/304043_left.png,stimuli/lakes/304043_right.png,,,,0,104,104,43,1,,,,,
,,,,,,$5ec763033823de196db571f4,2020-07-21_10h17.37.473,fisher_task,2020.1.3,Win32,60,0.085185185,-0.282407407,1,0,0,2.61457,scale,,,,,,0.349027907,0.282842712,0.174513954,0.141421356,stimuli/lakes/803039_left.png,stimuli/lakes/803039_right.png,,,,0,105,105,39,1,,,,,
,,,,,,$5ec763033823de196db571f4,2020-07-21_10h17.37.473,fisher_task,2020.1.3,Win32,60,0.078703704,-0.282407407,1,0,0,2.36648,scale,,,,,,0.1234,0.1,0.3702,0.3,stimuli/lakes/104050_left.png,stimuli/lakes/104050_right.png,,,,0,106,106,50,1,,,,,
,,,,,,$5ec763033823de196db571f4,2020-07-21_10h17.37.473,fisher_task,2020.1.3,Win32,60,-0.07037037,-0.265740741,1,0,0,2.399675,scale,,,,,,0.275930788,0.223606798,0.275930788,0.223606798,stimuli/lakes/507093_left.png,stimuli/lakes/507093_right.png,,,,0,107,107,93,1,,,,,
,,,,,,$5ec763033823de196db571f4,2020-07-21_10h17.37.473,fisher_task,2020.1.3,Win32,60,0.046296296,-0.27037037,1,0,0,2.45027,scale,,,,,,0.302267034,0.244948974,0.2468,0.2,stimuli/lakes/60105_left.png,stimuli/lakes/60105_right.png,,,,0,108,108,5,1,,,,,
,,,,,,$5ec763033823de196db571f4,2020-07-21_10h17.37.473,fisher_task,2020.1.3,Win32,60,0.128703704,-0.322222222,1,0,0,3.049835,scale,,,,,,0.174513954,0.141421356,0.349027907,0.282842712,stimuli/lakes/202011_left.png,stimuli/lakes/202011_right.png,,,,0,109,109,11,1,,,,,
,,,,,,$5ec763033823de196db571f4,2020-07-21_10h17.37.473,fisher_task,2020.1.3,Win32,60,-0.091666667,-0.293518519,1,0,0,1.665415,scale,,,,,,0.302267034,0.244948974,0.2468,0.2,stimuli/lakes/606085_left.png,stimuli/lakes/606085_right.png,,,space,0,110,110,85,1,1.865545,,,,
,,,,,,$5ec763033823de196db571f4,2020-07-21_10h17.37.473,fisher_task,2020.1.3,Win32,60,-0.090740741,-0.289814815,1,0,0,1.132905,scale,,,,,,0.302267034,0.244948974,0.2468,0.2,stimuli/lakes/6080115_left.png,stimuli/lakes/6080115_right.png,,,,0,111,111,115,1,,,,,
,,,,,,$5ec763033823de196db571f4,2020-07-21_10h17.37.473,fisher_task,2020.1.3,Win32,60,0.047222222,-0.263888889,1,0,0,2.2169,scale,,,,,,0.3702,0.3,0.1234,0.1,stimuli/lakes/902022_left.png,stimuli/lakes/902022_right.png,,,,0,112,112,22,1,,,,,
,,,,,,$5ec763033823de196db571f4,2020-07-21_10h17.37.473,fisher_task,2020.1.3,Win32,60,-0.130555556,-0.321296296,1,0,0,1.750725,scale,,,,,,0.349027907,0.282842712,0.174513954,0.141421356,stimuli/lakes/807096_left.png,stimuli/lakes/807096_right.png,,,,0,113,113,96,1,,,,,
,,,,,,$5ec763033823de196db571f4,2020-07-21_10h17.37.473,fisher_task,2020.1.3,Win32,60,0.006481481,-0.260185185,1,0,0,1.882755,scale,,,,,,0.326485712,0.264575131,0.21373507,0.173205081,stimuli/lakes/705068_left.png,stimuli/lakes/705068_right.png,,,,0,114,114,68,1,,,,,
,,,,,,$5ec763033823de196db571f4,2020-07-21_10h17.37.473,fisher_task,2020.1.3,Win32,60,0.041666667,-0.251851852,1,0,0,2.566505,scale,,,,,,0.326485712,0.264575131,0.21373507,0.173205081,stimuli/lakes/703038_left.png,stimuli/lakes/703038_right.png,,,,0,115,115,38,1,,,,,
,,,,,,$5ec763033823de196db571f4,2020-07-21_10h17.37.473,fisher_task,2020.1.3,Win32,60,-0.128703704,-0.318518519,1,0,0,2.466025,scale,,,,,,0.3702,0.3,0.1234,0.1,stimuli/lakes/906088_left.png,stimuli/lakes/906088_right.png,,,,0,116,116,88,1,,,,,
,,,,,,$5ec763033823de196db571f4,2020-07-21_10h17.37.473,fisher_task,2020.1.3,Win32,60,0.157407407,-0.431481481,1,0,0,1.466075,scale,,,,,,0.21373507,0.173205081,0.326485712,0.264575131,stimuli/lakes/30101_left.png,stimuli/lakes/30101_right.png,,,,0,117,117,1,1,,,,,
,,,,,,$5ec763033823de196db571f4,2020-07-21_10h17.37.473,fisher_task,2020.1.3,Win32,60,-0.143518519,-0.358333333,1,0,0,2.78265,scale,,,,,,0.302267034,0.244948974,0.2468,0.2,stimuli/lakes/606076_left.png,stimuli/lakes/606076_right.png,,,,0,118,118,76,1,,,,,
,,,,,,$5ec763033823de196db571f4,2020-07-21_10h17.37.473,fisher_task,2020.1.3,Win32,60,0.043518519,-0.263888889,1,0,0,2.549705,scale,,,,,,0.302267034,0.244948974,0.2468,0.2,stimuli/lakes/604046_left.png,stimuli/lakes/604046_right.png,,,,0,119,119,46,1,,,,,
,,,,,,$5ec763033823de196db571f4,2020-07-21_10h17.37.473,fisher_task,2020.1.3,Win32,60,0.057407407,-0.263888889,1,0,0,3.33276,scale,,,,,,0.326485712,0.264575131,0.21373507,0.173205081,stimuli/lakes/704047_left.png,stimuli/lakes/704047_right.png,,,,0,120,120,47,1,,,,,
,,,,,,$5ec763033823de196db571f4,2020-07-21_10h17.37.473,fisher_task,2020.1.3,Win32,60,0.00462963,-0.262037037,1,0,0,1.88313,scale,,,,,,0.349027907,0.282842712,0.174513954,0.141421356,stimuli/lakes/803030_left.png,stimuli/lakes/803030_right.png,,,,0,121,121,30,1,,,,,
,,,,,,$5ec763033823de196db571f4,2020-07-21_10h17.37.473,fisher_task,2020.1.3,Win32,60,-0.094444444,-0.288888889,1,0,0,5.983375,scale,,,,,,0.349027907,0.282842712,0.174513954,0.141421356,stimuli/lakes/8070105_left.png,stimuli/lakes/8070105_right.png,,,,0,122,122,105,1,,,,,
,,,,,,$5ec763033823de196db571f4,2020-07-21_10h17.37.473,fisher_task,2020.1.3,Win32,60,0.139814815,-0.339814815,1,0,0,2.549395,scale,,,,,,0.275930788,0.223606798,0.275930788,0.223606798,stimuli/lakes/50104_left.png,stimuli/lakes/50104_right.png,,,,0,123,123,4,1,,,,,
,,,,,,$5ec763033823de196db571f4,2020-07-21_10h17.37.473,fisher_task,2020.1.3,Win32,60,0.026851852,-0.256481481,1,0,0,3.417195,scale,,,,,,0.174513954,0.141421356,0.349027907,0.282842712,stimuli/lakes/207090_left.png,stimuli/lakes/207090_right.png,,,,0,124,124,90,1,,,,,
,,,,,,$5ec763033823de196db571f4,2020-07-21_10h17.37.473,fisher_task,2020.1.3,Win32,60,0.037962963,-0.258333333,1,0,0,1.46712,scale,,,,,,0.326485712,0.264575131,0.21373507,0.173205081,stimuli/lakes/702020_left.png,stimuli/lakes/702020_right.png,,,,0,125,125,20,1,,,,,
,,,,,,$5ec763033823de196db571f4,2020-07-21_10h17.37.473,fisher_task,2020.1.3,Win32,60,0.119444444,-0.317592593,1,0,0,2.63411,scale,,,,,,0.275930788,0.223606798,0.275930788,0.223606798,stimuli/lakes/502016_left.png,stimuli/lakes/502016_right.png,,,,0,126,126,16,1,,,,,
,,,,,,$5ec763033823de196db571f4,2020-07-21_10h17.37.473,fisher_task,2020.1.3,Win32,60,-0.032407407,-0.258333333,1,0,0,1.84931,scale,,,,,,0.174513954,0.141421356,0.349027907,0.282842712,stimuli/lakes/2080108_left.png,stimuli/lakes/2080108_right.png,,,,0,127,127,108,1,,,,,
,,,,,,$5ec763033823de196db571f4,2020-07-21_10h17.37.473,fisher_task,2020.1.3,Win32,60,0.088888889,-0.282407407,1,0,0,1.583025,scale,,,,,,0.21373507,0.173205081,0.326485712,0.264575131,stimuli/lakes/304052_left.png,stimuli/lakes/304052_right.png,,,,0,128,128,52,1,,,,,
,,,,,,$5ec763033823de196db571f4,2020-07-21_10h17.37.473,fisher_task,2020.1.3,Win32,60,-0.117592593,-0.318518519,1,0,0,1.76647,scale,,,,,,0.349027907,0.282842712,0.174513954,0.141421356,stimuli/lakes/806087_left.png,stimuli/lakes/806087_right.png,,,,0,129,129,87,1,,,,,
,,,,,,$5ec763033823de196db571f4,2020-07-21_10h17.37.473,fisher_task,2020.1.3,Win32,60,,,,,,,,,,,,,,,,,,,,,,,,,,,,space,3.29893,space,24.299705
