keySpace.keys,keySpace.rt,instructions.thisRepN,instructions.thisTrialN,instructions.thisN,instructions.thisIndex,instructions.ran,participant,date,expName,psychopyVersion,OS,frameRate,mouse.x,mouse.y,mouse.leftButton,mouse.midButton,mouse.rightButton,mouse.time,mouse.clicked_name,training.thisRepN,training.thisTrialN,training.thisN,training.thisIndex,training.ran,widthBasketLeft,heightBasketLeft,widthBasketRight,heightBasketRight,leftLake,rightLake,space2.keys,space2.rt,space1.keys,trials.thisRepN,trials.thisTrialN,trials.thisN,trials.thisIndex,trials.ran,space1.rt,finalSpace1.keys,finalSpace1.rt,finalSpace2.keys,finalSpace2.rt
space,0.40106,0,0,0,0,1,$5ee4cf7ffbedfb1d20583c8a,2020-07-21_17h01.50.585,fisher_task,2020.1.3,Win32,60,,,,,,,,,,,,,,,,,,,,,,,,,,,,,,,
,,1,0,1,0,1,$5ee4cf7ffbedfb1d20583c8a,2020-07-21_17h01.50.585,fisher_task,2020.1.3,Win32,60,,,,,,,,,,,,,,,,,,,,,,,,,,,,,,,
,,,,,,,$5ee4cf7ffbedfb1d20583c8a,2020-07-21_17h01.50.585,fisher_task,2020.1.3,Win32,60,-0.006481468,-0.248148159,1,0,0,4.53175,scale,0,0,0,0,1,0.275930788,0.223606798,0.275930788,0.223606798,stimuli/training/20_left.png,stimuli/training/20_right.png,,,,,,,,,,,,,
,,,,,,,$5ee4cf7ffbedfb1d20583c8a,2020-07-21_17h01.50.585,fisher_task,2020.1.3,Win32,60,-0.091666655,-0.272222234,1,0,0,2.16375,scale,0,1,1,1,1,0.275930788,0.223606798,0.275930788,0.223606798,stimuli/training/80_left.png,stimuli/training/80_right.png,,,,,,,,,,,,,
,,,,,,,$5ee4cf7ffbedfb1d20583c8a,2020-07-21_17h01.50.585,fisher_task,2020.1.3,Win32,60,0.125000015,-0.309259271,1,0,0,1.417905,scale,0,2,2,2,1,0.174513954,0.141421356,0.349027907,0.282842712,stimuli/training/50_left.png,stimuli/training/50_right.png,,,,,,,,,,,,,
,,,,,,,$5ee4cf7ffbedfb1d20583c8a,2020-07-21_17h01.50.585,fisher_task,2020.1.3,Win32,60,-0.135185174,-0.372222292,1,0,0,1.914025,scale,0,3,3,3,1,0.349027907,0.282842712,0.174513954,0.141421356,stimuli/training/50_left.png,stimuli/training/50_right.png,,,,,,,,,,,,,
,,,,,,,$5ee4cf7ffbedfb1d20583c8a,2020-07-21_17h01.50.585,fisher_task,2020.1.3,Win32,60,-0.001851839,-0.262962974,1,0,0,1.549945,scale,0,4,4,4,1,0.275930788,0.223606798,0.275930788,0.223606798,stimuli/training/50_left.png,stimuli/training/50_right.png,,,,,,,,,,,,,
,,,,,,,$5ee4cf7ffbedfb1d20583c8a,2020-07-21_17h01.50.585,fisher_task,2020.1.3,Win32,60,0.187037053,-0.428703718,1,0,0,1.783225,scale,0,5,5,5,1,0.174513954,0.141421356,0.349027907,0.282842712,stimuli/training/20_left.png,stimuli/training/20_right.png,,,,,,,,,,,,,
,,,,,,,$5ee4cf7ffbedfb1d20583c8a,2020-07-21_17h01.50.585,fisher_task,2020.1.3,Win32,60,-0.167592582,-0.430555569,1,0,0,1.60003,scale,0,6,6,6,1,0.349027907,0.282842712,0.174513954,0.141421356,stimuli/training/80_left.png,stimuli/training/80_right.png,,,,,,,,,,,,,
,,,,,,,$5ee4cf7ffbedfb1d20583c8a,2020-07-21_17h01.50.585,fisher_task,2020.1.3,Win32,60,0.179629646,-0.443518533,1,0,0,1.79959,scale,0,7,7,7,1,0.1234,0.1,0.3702,0.3,stimuli/training/30_left.png,stimuli/training/30_right.png,,,,,,,,,,,,,
,,,,,,,$5ee4cf7ffbedfb1d20583c8a,2020-07-21_17h01.50.585,fisher_task,2020.1.3,Win32,60,-0.153703693,-0.45092594,1,0,0,2.464525,scale,0,8,8,8,1,0.3702,0.3,0.1234,0.1,stimuli/training/70_left.png,stimuli/training/70_right.png,,,,,,,,,,,,,
,,,,,,,$5ee4cf7ffbedfb1d20583c8a,2020-07-21_17h01.50.585,fisher_task,2020.1.3,Win32,60,-0.14074073,-0.373148161,1,0,0,1.549605,scale,0,9,9,9,1,0.326485712,0.264575131,0.21373507,0.173205081,stimuli/training/90_left.png,stimuli/training/90_right.png,,,,,,,,,,,,,
,,,,,,,$5ee4cf7ffbedfb1d20583c8a,2020-07-21_17h01.50.585,fisher_task,2020.1.3,Win32,60,0.162962979,-0.420370384,1,0,0,1.98022,scale,0,10,10,10,1,0.21373507,0.173205081,0.326485712,0.264575131,stimuli/training/10_left.png,stimuli/training/10_right.png,,,,,,,,,,,,,
,,,,,,,$5ee4cf7ffbedfb1d20583c8a,2020-07-21_17h01.50.585,fisher_task,2020.1.3,Win32,60,-0.001851839,-0.262037048,1,0,0,6.081325,scale,,,,,,0.21373507,0.173205081,0.326485712,0.264575131,stimuli/lakes/307091_left.png,stimuli/lakes/307091_right.png,space,1.61665,,0,0,0,91,1,,,,,
,,,,,,,$5ee4cf7ffbedfb1d20583c8a,2020-07-21_17h01.50.585,fisher_task,2020.1.3,Win32,60,-0.099074062,-0.288888957,1,0,0,2.3986,scale,,,,,,0.174513954,0.141421356,0.349027907,0.282842712,stimuli/lakes/2080108_left.png,stimuli/lakes/2080108_right.png,,,,0,1,1,108,1,,,,,
,,,,,,,$5ee4cf7ffbedfb1d20583c8a,2020-07-21_17h01.50.585,fisher_task,2020.1.3,Win32,60,-0.124074063,-0.312962975,1,0,0,1.23122,scale,,,,,,0.349027907,0.282842712,0.174513954,0.141421356,stimuli/lakes/806078_left.png,stimuli/lakes/806078_right.png,,,,0,2,2,78,1,,,,,
,,,,,,,$5ee4cf7ffbedfb1d20583c8a,2020-07-21_17h01.50.585,fisher_task,2020.1.3,Win32,60,-0.139814804,-0.33240742,1,0,0,1.91283,scale,,,,,,0.275930788,0.223606798,0.275930788,0.223606798,stimuli/lakes/5090125_left.png,stimuli/lakes/5090125_right.png,,,,0,3,3,125,1,,,,,
,,,,,,,$5ee4cf7ffbedfb1d20583c8a,2020-07-21_17h01.50.585,fisher_task,2020.1.3,Win32,60,0.147222238,-0.312037106,1,0,0,3.48186,scale,,,,,,0.21373507,0.173205081,0.326485712,0.264575131,stimuli/lakes/303025_left.png,stimuli/lakes/303025_right.png,,,,0,4,4,25,1,,,,,
,,,,,,,$5ee4cf7ffbedfb1d20583c8a,2020-07-21_17h01.50.585,fisher_task,2020.1.3,Win32,60,1.32455E-08,-0.248148159,1,0,0,1.564015,scale,,,,,,0.302267034,0.244948974,0.2468,0.2,stimuli/lakes/605065_left.png,stimuli/lakes/605065_right.png,,,,0,5,5,65,1,,,,,
,,,,,,,$5ee4cf7ffbedfb1d20583c8a,2020-07-21_17h01.50.585,fisher_task,2020.1.3,Win32,60,0.066666681,-0.264814826,1,0,0,3.98266,scale,,,,,,0.302267034,0.244948974,0.2468,0.2,stimuli/lakes/605066_left.png,stimuli/lakes/605066_right.png,,,,0,6,6,66,1,,,,,
,,,,,,,$5ee4cf7ffbedfb1d20583c8a,2020-07-21_17h01.50.585,fisher_task,2020.1.3,Win32,60,0.133333349,-0.325000012,1,0,0,2.81531,scale,,,,,,0.1234,0.1,0.3702,0.3,stimuli/lakes/106071_left.png,stimuli/lakes/106071_right.png,,,,0,7,7,71,1,,,,,
,,,,,,,$5ee4cf7ffbedfb1d20583c8a,2020-07-21_17h01.50.585,fisher_task,2020.1.3,Win32,60,-0.1111111,-0.304629642,1,0,0,2.75161,scale,,,,,,0.302267034,0.244948974,0.2468,0.2,stimuli/lakes/6090127_left.png,stimuli/lakes/6090127_right.png,,,,0,8,8,127,1,,,,,
,,,,,,,$5ee4cf7ffbedfb1d20583c8a,2020-07-21_17h01.50.585,fisher_task,2020.1.3,Win32,60,-0.148148137,-0.350000013,1,0,0,1.631175,scale,,,,,,0.349027907,0.282842712,0.174513954,0.141421356,stimuli/lakes/807096_left.png,stimuli/lakes/807096_right.png,,,,0,9,9,96,1,,,,,
,,,,,,,$5ee4cf7ffbedfb1d20583c8a,2020-07-21_17h01.50.585,fisher_task,2020.1.3,Win32,60,-0.10648147,-0.298148217,1,0,0,2.148685,scale,,,,,,0.3702,0.3,0.1234,0.1,stimuli/lakes/906079_left.png,stimuli/lakes/906079_right.png,,,,0,10,10,79,1,,,,,
,,,,,,,$5ee4cf7ffbedfb1d20583c8a,2020-07-21_17h01.50.585,fisher_task,2020.1.3,Win32,60,-0.004629616,-0.250000011,1,0,0,4.46358,scale,,,,,,0.21373507,0.173205081,0.326485712,0.264575131,stimuli/lakes/3080110_left.png,stimuli/lakes/3080110_right.png,,,,0,11,11,110,1,,,,,
,,,,,,,$5ee4cf7ffbedfb1d20583c8a,2020-07-21_17h01.50.585,fisher_task,2020.1.3,Win32,60,-0.066666654,-0.281481493,1,0,0,7.013465,scale,,,,,,0.326485712,0.264575131,0.21373507,0.173205081,stimuli/lakes/707095_left.png,stimuli/lakes/707095_right.png,,,,0,12,12,95,1,,,,,
,,,,,,,$5ee4cf7ffbedfb1d20583c8a,2020-07-21_17h01.50.585,fisher_task,2020.1.3,Win32,60,-0.083333321,-0.275925937,1,0,0,1.34929,scale,,,,,,0.326485712,0.264575131,0.21373507,0.173205081,stimuli/lakes/7080117_left.png,stimuli/lakes/7080117_right.png,,,,0,13,13,117,1,,,,,
,,,,,,,$5ee4cf7ffbedfb1d20583c8a,2020-07-21_17h01.50.585,fisher_task,2020.1.3,Win32,60,-0.071296284,-0.274074086,1,0,0,2.062105,scale,,,,,,0.302267034,0.244948974,0.2468,0.2,stimuli/lakes/6070103_left.png,stimuli/lakes/6070103_right.png,,,,0,14,14,103,1,,,,,
,,,,,,,$5ee4cf7ffbedfb1d20583c8a,2020-07-21_17h01.50.585,fisher_task,2020.1.3,Win32,60,0.092592607,-0.26851853,1,0,0,2.864755,scale,,,,,,0.174513954,0.141421356,0.349027907,0.282842712,stimuli/lakes/204042_left.png,stimuli/lakes/204042_right.png,,,,0,15,15,42,1,,,,,
,,,,,,,$5ee4cf7ffbedfb1d20583c8a,2020-07-21_17h01.50.585,fisher_task,2020.1.3,Win32,60,0.117592608,-0.297222234,1,0,0,6.531,scale,,,,,,0.2468,0.2,0.302267034,0.244948974,stimuli/lakes/402015_left.png,stimuli/lakes/402015_right.png,,,,0,16,16,15,1,,,,,
,,,,,,,$5ee4cf7ffbedfb1d20583c8a,2020-07-21_17h01.50.585,fisher_task,2020.1.3,Win32,60,-0.093518507,-0.283333345,1,0,0,1.73524,scale,,,,,,0.275930788,0.223606798,0.275930788,0.223606798,stimuli/lakes/5080113_left.png,stimuli/lakes/5080113_right.png,,,,0,17,17,113,1,,,,,
,,,,,,,$5ee4cf7ffbedfb1d20583c8a,2020-07-21_17h01.50.585,fisher_task,2020.1.3,Win32,60,0.150000015,-0.351851865,1,0,0,2.162415,scale,,,,,,0.174513954,0.141421356,0.349027907,0.282842712,stimuli/lakes/203024_left.png,stimuli/lakes/203024_right.png,,,,0,18,18,24,1,,,,,
,,,,,,,$5ee4cf7ffbedfb1d20583c8a,2020-07-21_17h01.50.585,fisher_task,2020.1.3,Win32,60,0.152777793,-0.36203705,1,0,0,2.18032,scale,,,,,,0.21373507,0.173205081,0.326485712,0.264575131,stimuli/lakes/303034_left.png,stimuli/lakes/303034_right.png,,,,0,19,19,34,1,,,,,
,,,,,,,$5ee4cf7ffbedfb1d20583c8a,2020-07-21_17h01.50.585,fisher_task,2020.1.3,Win32,60,-0.000925913,-0.248148159,1,0,0,5.064705,scale,,,,,,0.302267034,0.244948974,0.2468,0.2,stimuli/lakes/602018_left.png,stimuli/lakes/602018_right.png,,,,0,20,20,18,1,,,,,
,,,,,,,$5ee4cf7ffbedfb1d20583c8a,2020-07-21_17h01.50.585,fisher_task,2020.1.3,Win32,60,0.111111126,-0.300925938,1,0,0,5.214805,scale,,,,,,0.3702,0.3,0.1234,0.1,stimuli/lakes/903040_left.png,stimuli/lakes/903040_right.png,,,,0,21,21,40,1,,,,,
,,,,,,,$5ee4cf7ffbedfb1d20583c8a,2020-07-21_17h01.50.585,fisher_task,2020.1.3,Win32,60,0.074074088,-0.283333345,1,0,0,1.881805,scale,,,,,,0.326485712,0.264575131,0.21373507,0.173205081,stimuli/lakes/704047_left.png,stimuli/lakes/704047_right.png,,,space,0,22,22,47,1,3.78855,,,,
,,,,,,,$5ee4cf7ffbedfb1d20583c8a,2020-07-21_17h01.50.585,fisher_task,2020.1.3,Win32,60,-0.01296295,-0.244444456,1,0,0,3.030485,scale,,,,,,0.302267034,0.244948974,0.2468,0.2,stimuli/lakes/606085_left.png,stimuli/lakes/606085_right.png,,,,0,23,23,85,1,,,,,
,,,,,,,$5ee4cf7ffbedfb1d20583c8a,2020-07-21_17h01.50.585,fisher_task,2020.1.3,Win32,60,-0.124999989,-0.328703716,1,0,0,3.565265,scale,,,,,,0.302267034,0.244948974,0.2468,0.2,stimuli/lakes/6080114_left.png,stimuli/lakes/6080114_right.png,,,,0,24,24,114,1,,,,,
,,,,,,,$5ee4cf7ffbedfb1d20583c8a,2020-07-21_17h01.50.585,fisher_task,2020.1.3,Win32,60,0.155555571,-0.350925939,1,0,0,1.99747,scale,,,,,,0.1234,0.1,0.3702,0.3,stimuli/lakes/103023_left.png,stimuli/lakes/103023_right.png,,,,0,25,25,23,1,,,,,
,,,,,,,$5ee4cf7ffbedfb1d20583c8a,2020-07-21_17h01.50.585,fisher_task,2020.1.3,Win32,60,1.32455E-08,-0.254629641,1,0,0,2.381365,scale,,,,,,0.2468,0.2,0.302267034,0.244948974,stimuli/lakes/405064_left.png,stimuli/lakes/405064_right.png,,,,0,26,26,64,1,,,,,
,,,,,,,$5ee4cf7ffbedfb1d20583c8a,2020-07-21_17h01.50.585,fisher_task,2020.1.3,Win32,60,-0.070370358,-0.270370438,1,0,0,3.91561,scale,,,,,,0.2468,0.2,0.302267034,0.244948974,stimuli/lakes/4090123_left.png,stimuli/lakes/4090123_right.png,,,,0,27,27,123,1,,,,,
,,,,,,,$5ee4cf7ffbedfb1d20583c8a,2020-07-21_17h01.50.585,fisher_task,2020.1.3,Win32,60,0.01203705,-0.265740809,1,0,0,2.331365,scale,,,,,,0.302267034,0.244948974,0.2468,0.2,stimuli/lakes/604055_left.png,stimuli/lakes/604055_right.png,,,,0,28,28,55,1,,,,,
,,,,,,,$5ee4cf7ffbedfb1d20583c8a,2020-07-21_17h01.50.585,fisher_task,2020.1.3,Win32,60,0.073148162,-0.265740809,1,0,0,3.750245,scale,,,,,,0.326485712,0.264575131,0.21373507,0.173205081,stimuli/lakes/70107_left.png,stimuli/lakes/70107_right.png,,,,0,29,29,7,1,,,,,
,,,,,,,$5ee4cf7ffbedfb1d20583c8a,2020-07-21_17h01.50.585,fisher_task,2020.1.3,Win32,60,0.0851852,-0.269444456,1,0,0,2.831255,scale,,,,,,0.302267034,0.244948974,0.2468,0.2,stimuli/lakes/60106_left.png,stimuli/lakes/60106_right.png,,,,0,30,30,6,1,,,,,
,,,,,,,$5ee4cf7ffbedfb1d20583c8a,2020-07-21_17h01.50.585,fisher_task,2020.1.3,Win32,60,-0.10648147,-0.284259327,1,0,0,4.998965,scale,,,,,,0.302267034,0.244948974,0.2468,0.2,stimuli/lakes/6080115_left.png,stimuli/lakes/6080115_right.png,,,,0,31,31,115,1,,,,,
,,,,,,,$5ee4cf7ffbedfb1d20583c8a,2020-07-21_17h01.50.585,fisher_task,2020.1.3,Win32,60,0.012962976,-0.255555567,1,0,0,2.16565,scale,,,,,,0.1234,0.1,0.3702,0.3,stimuli/lakes/104041_left.png,stimuli/lakes/104041_right.png,,,,0,32,32,41,1,,,,,
,,,,,,,$5ee4cf7ffbedfb1d20583c8a,2020-07-21_17h01.50.585,fisher_task,2020.1.3,Win32,60,-0.043518506,-0.2638889,1,0,0,2.067035,scale,,,,,,0.326485712,0.264575131,0.21373507,0.173205081,stimuli/lakes/703029_left.png,stimuli/lakes/703029_right.png,,,,0,33,33,29,1,,,,,
,,,,,,,$5ee4cf7ffbedfb1d20583c8a,2020-07-21_17h01.50.585,fisher_task,2020.1.3,Win32,60,0.0851852,-0.274074086,1,0,0,1.66471,scale,,,,,,0.174513954,0.141421356,0.349027907,0.282842712,stimuli/lakes/204051_left.png,stimuli/lakes/204051_right.png,,,,0,34,34,51,1,,,,,
,,,,,,,$5ee4cf7ffbedfb1d20583c8a,2020-07-21_17h01.50.585,fisher_task,2020.1.3,Win32,60,-0.016666597,-0.246296307,1,0,0,2.982835,scale,,,,,,0.21373507,0.173205081,0.326485712,0.264575131,stimuli/lakes/3090121_left.png,stimuli/lakes/3090121_right.png,,,,0,35,35,121,1,,,,,
,,,,,,,$5ee4cf7ffbedfb1d20583c8a,2020-07-21_17h01.50.585,fisher_task,2020.1.3,Win32,60,0.097222237,-0.292592604,1,0,0,2.82934,scale,,,,,,0.1234,0.1,0.3702,0.3,stimuli/lakes/1090119_left.png,stimuli/lakes/1090119_right.png,,,,0,36,36,119,1,,,,,
,,,,,,,$5ee4cf7ffbedfb1d20583c8a,2020-07-21_17h01.50.585,fisher_task,2020.1.3,Win32,60,0.015740811,-0.285185197,1,0,0,3.66483,scale,,,,,,0.2468,0.2,0.302267034,0.244948974,stimuli/lakes/4070101_left.png,stimuli/lakes/4070101_right.png,,,,0,37,37,101,1,,,,,
,,,,,,,$5ee4cf7ffbedfb1d20583c8a,2020-07-21_17h01.50.585,fisher_task,2020.1.3,Win32,60,-0.034259247,-0.262962974,1,0,0,2.399355,scale,,,,,,0.2468,0.2,0.302267034,0.244948974,stimuli/lakes/4080111_left.png,stimuli/lakes/4080111_right.png,,,,0,38,38,111,1,,,,,
,,,,,,,$5ee4cf7ffbedfb1d20583c8a,2020-07-21_17h01.50.585,fisher_task,2020.1.3,Win32,60,0.040740755,-0.266666678,1,0,0,3.61584,scale,,,,,,0.302267034,0.244948974,0.2468,0.2,stimuli/lakes/604046_left.png,stimuli/lakes/604046_right.png,,,,0,39,39,46,1,,,,,
,,,,,,,$5ee4cf7ffbedfb1d20583c8a,2020-07-21_17h01.50.585,fisher_task,2020.1.3,Win32,60,-0.028703691,-0.27314816,1,0,0,2.580565,scale,,,,,,0.349027907,0.282842712,0.174513954,0.141421356,stimuli/lakes/804048_left.png,stimuli/lakes/804048_right.png,,,,0,40,40,48,1,,,,,
,,,,,,,$5ee4cf7ffbedfb1d20583c8a,2020-07-21_17h01.50.585,fisher_task,2020.1.3,Win32,60,0.072222237,-0.271296308,1,0,0,1.748535,scale,,,,,,0.21373507,0.173205081,0.326485712,0.264575131,stimuli/lakes/3070100_left.png,stimuli/lakes/3070100_right.png,,,,0,41,41,100,1,,,,,
,,,,,,,$5ee4cf7ffbedfb1d20583c8a,2020-07-21_17h01.50.585,fisher_task,2020.1.3,Win32,60,0.081481496,-0.277777789,1,0,0,2.11421,scale,,,,,,0.174513954,0.141421356,0.349027907,0.282842712,stimuli/lakes/206072_left.png,stimuli/lakes/206072_right.png,,,,0,42,42,72,1,,,,,
,,,,,,,$5ee4cf7ffbedfb1d20583c8a,2020-07-21_17h01.50.585,fisher_task,2020.1.3,Win32,60,0.013888902,-0.254629641,1,0,0,2.081115,scale,,,,,,0.174513954,0.141421356,0.349027907,0.282842712,stimuli/lakes/2090120_left.png,stimuli/lakes/2090120_right.png,,,,0,43,43,120,1,,,,,
,,,,,,,$5ee4cf7ffbedfb1d20583c8a,2020-07-21_17h01.50.585,fisher_task,2020.1.3,Win32,60,-0.1361111,-0.33240742,1,0,0,2.383345,scale,,,,,,0.3702,0.3,0.1234,0.1,stimuli/lakes/905070_left.png,stimuli/lakes/905070_right.png,,,space,0,44,44,70,1,1.6099,,,,
,,,,,,,$5ee4cf7ffbedfb1d20583c8a,2020-07-21_17h01.50.585,fisher_task,2020.1.3,Win32,60,0.068518533,-0.269444456,1,0,0,2.830705,scale,,,,,,0.275930788,0.223606798,0.275930788,0.223606798,stimuli/lakes/50104_left.png,stimuli/lakes/50104_right.png,,,,0,45,45,4,1,,,,,
,,,,,,,$5ee4cf7ffbedfb1d20583c8a,2020-07-21_17h01.50.585,fisher_task,2020.1.3,Win32,60,-0.075925914,-0.280555567,1,0,0,1.933175,scale,,,,,,0.326485712,0.264575131,0.21373507,0.173205081,stimuli/lakes/7070104_left.png,stimuli/lakes/7070104_right.png,,,,0,46,46,104,1,,,,,
,,,,,,,$5ee4cf7ffbedfb1d20583c8a,2020-07-21_17h01.50.585,fisher_task,2020.1.3,Win32,60,-0.03796295,-0.260185197,1,0,0,4.063795,scale,,,,,,0.349027907,0.282842712,0.174513954,0.141421356,stimuli/lakes/80109_left.png,stimuli/lakes/80109_right.png,,,,0,47,47,9,1,,,,,
,,,,,,,$5ee4cf7ffbedfb1d20583c8a,2020-07-21_17h01.50.585,fisher_task,2020.1.3,Win32,60,0.117592608,-0.315740753,1,0,0,2.183355,scale,,,,,,0.21373507,0.173205081,0.326485712,0.264575131,stimuli/lakes/302013_left.png,stimuli/lakes/302013_right.png,,,,0,48,48,13,1,,,,,
,,,,,,,$5ee4cf7ffbedfb1d20583c8a,2020-07-21_17h01.50.585,fisher_task,2020.1.3,Win32,60,-0.003703691,-0.25185192,1,0,0,2.482835,scale,,,,,,0.2468,0.2,0.302267034,0.244948974,stimuli/lakes/404044_left.png,stimuli/lakes/404044_right.png,,,,0,49,49,44,1,,,,,
,,,,,,,$5ee4cf7ffbedfb1d20583c8a,2020-07-21_17h01.50.585,fisher_task,2020.1.3,Win32,60,-0.003703691,-0.25185192,1,0,0,4.530415,scale,,,,,,0.2468,0.2,0.302267034,0.244948974,stimuli/lakes/406083_left.png,stimuli/lakes/406083_right.png,,,,0,50,50,83,1,,,,,
,,,,,,,$5ee4cf7ffbedfb1d20583c8a,2020-07-21_17h01.50.585,fisher_task,2020.1.3,Win32,60,-0.087962951,-0.291666678,1,0,0,1.865755,scale,,,,,,0.326485712,0.264575131,0.21373507,0.173205081,stimuli/lakes/706077_left.png,stimuli/lakes/706077_right.png,,,,0,51,51,77,1,,,,,
,,,,,,,$5ee4cf7ffbedfb1d20583c8a,2020-07-21_17h01.50.585,fisher_task,2020.1.3,Win32,60,0.079629644,-0.270370438,1,0,0,3.732805,scale,,,,,,0.174513954,0.141421356,0.349027907,0.282842712,stimuli/lakes/202011_left.png,stimuli/lakes/202011_right.png,,,,0,52,52,11,1,,,,,
,,,,,,,$5ee4cf7ffbedfb1d20583c8a,2020-07-21_17h01.50.585,fisher_task,2020.1.3,Win32,60,-0.079629618,-0.266666678,1,0,0,5.36342,scale,,,,,,0.1234,0.1,0.3702,0.3,stimuli/lakes/107089_left.png,stimuli/lakes/107089_right.png,,,,0,53,53,89,1,,,,,
,,,,,,,$5ee4cf7ffbedfb1d20583c8a,2020-07-21_17h01.50.585,fisher_task,2020.1.3,Win32,60,-0.098148136,-0.285185197,1,0,0,1.74917,scale,,,,,,0.275930788,0.223606798,0.275930788,0.223606798,stimuli/lakes/507093_left.png,stimuli/lakes/507093_right.png,,,,0,54,54,93,1,,,,,
,,,,,,,$5ee4cf7ffbedfb1d20583c8a,2020-07-21_17h01.50.585,fisher_task,2020.1.3,Win32,60,0.045370384,-0.254629641,1,0,0,2.360335,scale,,,,,,0.275930788,0.223606798,0.275930788,0.223606798,stimuli/lakes/503036_left.png,stimuli/lakes/503036_right.png,,,,0,55,55,36,1,,,,,
,,,,,,,$5ee4cf7ffbedfb1d20583c8a,2020-07-21_17h01.50.585,fisher_task,2020.1.3,Win32,60,0.079629644,-0.292592604,1,0,0,2.56547,scale,,,,,,0.21373507,0.173205081,0.326485712,0.264575131,stimuli/lakes/306073_left.png,stimuli/lakes/306073_right.png,,,,0,56,56,73,1,,,,,
,,,,,,,$5ee4cf7ffbedfb1d20583c8a,2020-07-21_17h01.50.585,fisher_task,2020.1.3,Win32,60,0.104629644,-0.287037049,1,0,0,11.84726,scale,,,,,,0.174513954,0.141421356,0.349027907,0.282842712,stimuli/lakes/205060_left.png,stimuli/lakes/205060_right.png,,,,0,57,57,60,1,,,,,
,,,,,,,$5ee4cf7ffbedfb1d20583c8a,2020-07-21_17h01.50.585,fisher_task,2020.1.3,Win32,60,0.126851867,-0.325000012,1,0,0,4.83046,scale,,,,,,0.302267034,0.244948974,0.2468,0.2,stimuli/lakes/603028_left.png,stimuli/lakes/603028_right.png,,,,0,58,58,28,1,,,,,
,,,,,,,$5ee4cf7ffbedfb1d20583c8a,2020-07-21_17h01.50.585,fisher_task,2020.1.3,Win32,60,-0.139814804,-0.320370383,1,0,0,3.19807,scale,,,,,,0.326485712,0.264575131,0.21373507,0.173205081,stimuli/lakes/7090129_left.png,stimuli/lakes/7090129_right.png,,,,0,59,59,129,1,,,,,
,,,,,,,$5ee4cf7ffbedfb1d20583c8a,2020-07-21_17h01.50.585,fisher_task,2020.1.3,Win32,60,0.075000014,-0.26851853,1,0,0,2.829145,scale,,,,,,0.2468,0.2,0.302267034,0.244948974,stimuli/lakes/403035_left.png,stimuli/lakes/403035_right.png,,,,0,60,60,35,1,,,,,
,,,,,,,$5ee4cf7ffbedfb1d20583c8a,2020-07-21_17h01.50.585,fisher_task,2020.1.3,Win32,60,-0.032407395,-0.2638889,1,0,0,2.714875,scale,,,,,,0.302267034,0.244948974,0.2468,0.2,stimuli/lakes/602017_left.png,stimuli/lakes/602017_right.png,,,,0,61,61,17,1,,,,,
,,,,,,,$5ee4cf7ffbedfb1d20583c8a,2020-07-21_17h01.50.585,fisher_task,2020.1.3,Win32,60,-0.04722221,-0.271296308,1,0,0,1.63135,scale,,,,,,0.326485712,0.264575131,0.21373507,0.173205081,stimuli/lakes/702020_left.png,stimuli/lakes/702020_right.png,,,,0,62,62,20,1,,,,,
,,,,,,,$5ee4cf7ffbedfb1d20583c8a,2020-07-21_17h01.50.585,fisher_task,2020.1.3,Win32,60,0.124074089,-0.302777846,1,0,0,2.76501,scale,,,,,,0.174513954,0.141421356,0.349027907,0.282842712,stimuli/lakes/206081_left.png,stimuli/lakes/206081_right.png,,,,0,63,63,81,1,,,,,
,,,,,,,$5ee4cf7ffbedfb1d20583c8a,2020-07-21_17h01.50.585,fisher_task,2020.1.3,Win32,60,0.063888903,-0.262037048,1,0,0,2.08212,scale,,,,,,0.21373507,0.173205081,0.326485712,0.264575131,stimuli/lakes/3080109_left.png,stimuli/lakes/3080109_right.png,,,,0,64,64,109,1,,,,,
,,,,,,,$5ee4cf7ffbedfb1d20583c8a,2020-07-21_17h01.50.585,fisher_task,2020.1.3,Win32,60,0.161111127,-0.389814828,1,0,0,2.163855,scale,,,,,,0.1234,0.1,0.3702,0.3,stimuli/lakes/106080_left.png,stimuli/lakes/106080_right.png,,,,0,65,65,80,1,,,,,
,,,,,,,$5ee4cf7ffbedfb1d20583c8a,2020-07-21_17h01.50.585,fisher_task,2020.1.3,Win32,60,-0.022222209,-0.264814826,1,0,0,1.982,scale,,,,,,0.302267034,0.244948974,0.2468,0.2,stimuli/lakes/603037_left.png,stimuli/lakes/603037_right.png,,,space,0,66,66,37,1,4.038315,,,,
,,,,,,,$5ee4cf7ffbedfb1d20583c8a,2020-07-21_17h01.50.585,fisher_task,2020.1.3,Win32,60,0.095370385,-0.289814827,1,0,0,3.08306,scale,,,,,,0.326485712,0.264575131,0.21373507,0.173205081,stimuli/lakes/702019_left.png,stimuli/lakes/702019_right.png,,,,0,67,67,19,1,,,,,
,,,,,,,$5ee4cf7ffbedfb1d20583c8a,2020-07-21_17h01.50.585,fisher_task,2020.1.3,Win32,60,0.158333349,-0.379629643,1,0,0,3.398565,scale,,,,,,0.2468,0.2,0.302267034,0.244948974,stimuli/lakes/40103_left.png,stimuli/lakes/40103_right.png,,,,0,68,68,3,1,,,,,
,,,,,,,$5ee4cf7ffbedfb1d20583c8a,2020-07-21_17h01.50.585,fisher_task,2020.1.3,Win32,60,-0.039814746,-0.2638889,1,0,0,2.60028,scale,,,,,,0.326485712,0.264575131,0.21373507,0.173205081,stimuli/lakes/70108_left.png,stimuli/lakes/70108_right.png,,,,0,69,69,8,1,,,,,
,,,,,,,$5ee4cf7ffbedfb1d20583c8a,2020-07-21_17h01.50.585,fisher_task,2020.1.3,Win32,60,0.108333348,-0.322222234,1,0,0,2.94772,scale,,,,,,0.275930788,0.223606798,0.275930788,0.223606798,stimuli/lakes/504054_left.png,stimuli/lakes/504054_right.png,,,,0,70,70,54,1,,,,,
,,,,,,,$5ee4cf7ffbedfb1d20583c8a,2020-07-21_17h01.50.585,fisher_task,2020.1.3,Win32,60,0.04629631,-0.266666678,1,0,0,2.23263,scale,,,,,,0.349027907,0.282842712,0.174513954,0.141421356,stimuli/lakes/803039_left.png,stimuli/lakes/803039_right.png,,,,0,71,71,39,1,,,,,
,,,,,,,$5ee4cf7ffbedfb1d20583c8a,2020-07-21_17h01.50.585,fisher_task,2020.1.3,Win32,60,-0.001851839,-0.258333345,1,0,0,2.51472,scale,,,,,,0.275930788,0.223606798,0.275930788,0.223606798,stimuli/lakes/506075_left.png,stimuli/lakes/506075_right.png,,,,0,72,72,75,1,,,,,
,,,,,,,$5ee4cf7ffbedfb1d20583c8a,2020-07-21_17h01.50.585,fisher_task,2020.1.3,Win32,60,-0.043518506,-0.262962974,1,0,0,2.633025,scale,,,,,,0.3702,0.3,0.1234,0.1,stimuli/lakes/901010_left.png,stimuli/lakes/901010_right.png,,,,0,73,73,10,1,,,,,
,,,,,,,$5ee4cf7ffbedfb1d20583c8a,2020-07-21_17h01.50.585,fisher_task,2020.1.3,Win32,60,0.102777793,-0.311111123,1,0,0,3.331735,scale,,,,,,0.174513954,0.141421356,0.349027907,0.282842712,stimuli/lakes/203033_left.png,stimuli/lakes/203033_right.png,,,,0,74,74,33,1,,,,,
,,,,,,,$5ee4cf7ffbedfb1d20583c8a,2020-07-21_17h01.50.585,fisher_task,2020.1.3,Win32,60,-0.12777771,-0.334259272,1,0,0,2.38252,scale,,,,,,0.3702,0.3,0.1234,0.1,stimuli/lakes/906088_left.png,stimuli/lakes/906088_right.png,,,,0,75,75,88,1,,,,,
,,,,,,,$5ee4cf7ffbedfb1d20583c8a,2020-07-21_17h01.50.585,fisher_task,2020.1.3,Win32,60,0.088888903,-0.293518587,1,0,0,2.88397,scale,,,,,,0.2468,0.2,0.302267034,0.244948974,stimuli/lakes/406074_left.png,stimuli/lakes/406074_right.png,,,,0,76,76,74,1,,,,,
,,,,,,,$5ee4cf7ffbedfb1d20583c8a,2020-07-21_17h01.50.585,fisher_task,2020.1.3,Win32,60,-0.078703692,-0.284259327,1,0,0,5.44645,scale,,,,,,0.349027907,0.282842712,0.174513954,0.141421356,stimuli/lakes/8070105_left.png,stimuli/lakes/8070105_right.png,,,,0,77,77,105,1,,,,,
,,,,,,,$5ee4cf7ffbedfb1d20583c8a,2020-07-21_17h01.50.585,fisher_task,2020.1.3,Win32,60,0.147222238,-0.342592605,1,0,0,1.79741,scale,,,,,,0.1234,0.1,0.3702,0.3,stimuli/lakes/103032_left.png,stimuli/lakes/103032_right.png,,,,0,78,78,32,1,,,,,
,,,,,,,$5ee4cf7ffbedfb1d20583c8a,2020-07-21_17h01.50.585,fisher_task,2020.1.3,Win32,60,-0.147222211,-0.355555568,1,0,0,1.878345,scale,,,,,,0.326485712,0.264575131,0.21373507,0.173205081,stimuli/lakes/7080116_left.png,stimuli/lakes/7080116_right.png,,,,0,79,79,116,1,,,,,
,,,,,,,$5ee4cf7ffbedfb1d20583c8a,2020-07-21_17h01.50.585,fisher_task,2020.1.3,Win32,60,0.112037052,-0.311111123,1,0,0,3.28099,scale,,,,,,0.275930788,0.223606798,0.275930788,0.223606798,stimuli/lakes/503027_left.png,stimuli/lakes/503027_right.png,,,,0,80,80,27,1,,,,,
,,,,,,,$5ee4cf7ffbedfb1d20583c8a,2020-07-21_17h01.50.585,fisher_task,2020.1.3,Win32,60,1.32455E-08,-0.267592604,1,0,0,1.7657,scale,,,,,,0.2468,0.2,0.302267034,0.244948974,stimuli/lakes/405063_left.png,stimuli/lakes/405063_right.png,,,,0,81,81,63,1,,,,,
,,,,,,,$5ee4cf7ffbedfb1d20583c8a,2020-07-21_17h01.50.585,fisher_task,2020.1.3,Win32,60,-0.110185174,-0.296296308,1,0,0,2.19879,scale,,,,,,0.3702,0.3,0.1234,0.1,stimuli/lakes/904058_left.png,stimuli/lakes/904058_right.png,,,,0,82,82,58,1,,,,,
,,,,,,,$5ee4cf7ffbedfb1d20583c8a,2020-07-21_17h01.50.585,fisher_task,2020.1.3,Win32,60,-0.049074005,-0.271296308,1,0,0,2.847915,scale,,,,,,0.326485712,0.264575131,0.21373507,0.173205081,stimuli/lakes/704056_left.png,stimuli/lakes/704056_right.png,,,,0,83,83,56,1,,,,,
,,,,,,,$5ee4cf7ffbedfb1d20583c8a,2020-07-21_17h01.50.585,fisher_task,2020.1.3,Win32,60,-0.130555544,-0.325925995,1,0,0,1.73255,scale,,,,,,0.349027907,0.282842712,0.174513954,0.141421356,stimuli/lakes/806087_left.png,stimuli/lakes/806087_right.png,,,,0,84,84,87,1,,,,,
,,,,,,,$5ee4cf7ffbedfb1d20583c8a,2020-07-21_17h01.50.585,fisher_task,2020.1.3,Win32,60,-0.141666599,-0.334259272,1,0,0,3.01285,scale,,,,,,0.3702,0.3,0.1234,0.1,stimuli/lakes/9070106_left.png,stimuli/lakes/9070106_right.png,,,,0,85,85,106,1,,,,,
,,,,,,,$5ee4cf7ffbedfb1d20583c8a,2020-07-21_17h01.50.585,fisher_task,2020.1.3,Win32,60,0.022222236,-0.270370438,1,0,0,2.48132,scale,,,,,,0.275930788,0.223606798,0.275930788,0.223606798,stimuli/lakes/504045_left.png,stimuli/lakes/504045_right.png,,,,0,86,86,45,1,,,,,
,,,,,,,$5ee4cf7ffbedfb1d20583c8a,2020-07-21_17h01.50.585,fisher_task,2020.1.3,Win32,60,-0.066666654,-0.283333345,1,0,0,2.582105,scale,,,,,,0.275930788,0.223606798,0.275930788,0.223606798,stimuli/lakes/506084_left.png,stimuli/lakes/506084_right.png,,,,0,87,87,84,1,,,,,
,,,,,,,$5ee4cf7ffbedfb1d20583c8a,2020-07-21_17h01.50.585,fisher_task,2020.1.3,Win32,60,-0.014814802,-0.261111179,1,0,0,2.748485,scale,,,,,,0.174513954,0.141421356,0.349027907,0.282842712,stimuli/lakes/207099_left.png,stimuli/lakes/207099_right.png,,,space,0,88,88,99,1,2.20163,,,,
,,,,,,,$5ee4cf7ffbedfb1d20583c8a,2020-07-21_17h01.50.585,fisher_task,2020.1.3,Win32,60,0.082407422,-0.290740753,1,0,0,1.88061,scale,,,,,,0.21373507,0.173205081,0.326485712,0.264575131,stimuli/lakes/30100_left.png,stimuli/lakes/30100_right.png,,,,0,89,89,0,1,,,,,
,,,,,,,$5ee4cf7ffbedfb1d20583c8a,2020-07-21_17h01.50.585,fisher_task,2020.1.3,Win32,60,-0.080555544,-0.297222234,1,0,0,1.99996,scale,,,,,,0.302267034,0.244948974,0.2468,0.2,stimuli/lakes/6090126_left.png,stimuli/lakes/6090126_right.png,,,,0,90,90,126,1,,,,,
,,,,,,,$5ee4cf7ffbedfb1d20583c8a,2020-07-21_17h01.50.585,fisher_task,2020.1.3,Win32,60,-0.00833332,-0.265740809,1,0,0,4.3306,scale,,,,,,0.21373507,0.173205081,0.326485712,0.264575131,stimuli/lakes/3090122_left.png,stimuli/lakes/3090122_right.png,,,,0,91,91,122,1,,,,,
,,,,,,,$5ee4cf7ffbedfb1d20583c8a,2020-07-21_17h01.50.585,fisher_task,2020.1.3,Win32,60,0.071296311,-0.280555567,1,0,0,1.666555,scale,,,,,,0.21373507,0.173205081,0.326485712,0.264575131,stimuli/lakes/305061_left.png,stimuli/lakes/305061_right.png,,,,0,92,92,61,1,,,,,
,,,,,,,$5ee4cf7ffbedfb1d20583c8a,2020-07-21_17h01.50.585,fisher_task,2020.1.3,Win32,60,0.104629644,-0.313888901,1,0,0,3.58139,scale,,,,,,0.21373507,0.173205081,0.326485712,0.264575131,stimuli/lakes/302012_left.png,stimuli/lakes/302012_right.png,,,,0,93,93,12,1,,,,,
,,,,,,,$5ee4cf7ffbedfb1d20583c8a,2020-07-21_17h01.50.585,fisher_task,2020.1.3,Win32,60,-0.150925858,-0.367592662,1,0,0,1.84956,scale,,,,,,0.326485712,0.264575131,0.21373507,0.173205081,stimuli/lakes/705068_left.png,stimuli/lakes/705068_right.png,,,,0,94,94,68,1,,,,,
,,,,,,,$5ee4cf7ffbedfb1d20583c8a,2020-07-21_17h01.50.585,fisher_task,2020.1.3,Win32,60,0.122222237,-0.314814827,1,0,0,4.815345,scale,,,,,,0.1234,0.1,0.3702,0.3,stimuli/lakes/104050_left.png,stimuli/lakes/104050_right.png,,,,0,95,95,50,1,,,,,
,,,,,,,$5ee4cf7ffbedfb1d20583c8a,2020-07-21_17h01.50.585,fisher_task,2020.1.3,Win32,60,-0.141666599,-0.409259329,1,0,0,1.632715,scale,,,,,,0.326485712,0.264575131,0.21373507,0.173205081,stimuli/lakes/7090128_left.png,stimuli/lakes/7090128_right.png,,,,0,96,96,128,1,,,,,
,,,,,,,$5ee4cf7ffbedfb1d20583c8a,2020-07-21_17h01.50.585,fisher_task,2020.1.3,Win32,60,0.102777793,-0.299074086,1,0,0,2.734275,scale,,,,,,0.21373507,0.173205081,0.326485712,0.264575131,stimuli/lakes/304043_left.png,stimuli/lakes/304043_right.png,,,,0,97,97,43,1,,,,,
,,,,,,,$5ee4cf7ffbedfb1d20583c8a,2020-07-21_17h01.50.585,fisher_task,2020.1.3,Win32,60,-0.055555543,-0.276851863,1,0,0,2.04876,scale,,,,,,0.275930788,0.223606798,0.275930788,0.223606798,stimuli/lakes/5070102_left.png,stimuli/lakes/5070102_right.png,,,,0,98,98,102,1,,,,,
,,,,,,,$5ee4cf7ffbedfb1d20583c8a,2020-07-21_17h01.50.585,fisher_task,2020.1.3,Win32,60,0.107407422,-0.319444457,1,0,0,1.365785,scale,,,,,,0.21373507,0.173205081,0.326485712,0.264575131,stimuli/lakes/304052_left.png,stimuli/lakes/304052_right.png,,,,0,99,99,52,1,,,,,
,,,,,,,$5ee4cf7ffbedfb1d20583c8a,2020-07-21_17h01.50.585,fisher_task,2020.1.3,Win32,60,0.081481496,-0.281481493,1,0,0,2.1964,scale,,,,,,0.2468,0.2,0.302267034,0.244948974,stimuli/lakes/403026_left.png,stimuli/lakes/403026_right.png,,,,0,100,100,26,1,,,,,
,,,,,,,$5ee4cf7ffbedfb1d20583c8a,2020-07-21_17h01.50.585,fisher_task,2020.1.3,Win32,60,-0.024999987,-0.261111179,1,0,0,1.74766,scale,,,,,,0.349027907,0.282842712,0.174513954,0.141421356,stimuli/lakes/803030_left.png,stimuli/lakes/803030_right.png,,,,0,101,101,30,1,,,,,
,,,,,,,$5ee4cf7ffbedfb1d20583c8a,2020-07-21_17h01.50.585,fisher_task,2020.1.3,Win32,60,-0.113888821,-0.308333345,1,0,0,1.483125,scale,,,,,,0.349027907,0.282842712,0.174513954,0.141421356,stimuli/lakes/805069_left.png,stimuli/lakes/805069_right.png,,,,0,102,102,69,1,,,,,
,,,,,,,$5ee4cf7ffbedfb1d20583c8a,2020-07-21_17h01.50.585,fisher_task,2020.1.3,Win32,60,0.005555569,-0.279629698,1,0,0,2.931795,scale,,,,,,0.302267034,0.244948974,0.2468,0.2,stimuli/lakes/607094_left.png,stimuli/lakes/607094_right.png,,,,0,103,103,94,1,,,,,
,,,,,,,$5ee4cf7ffbedfb1d20583c8a,2020-07-21_17h01.50.585,fisher_task,2020.1.3,Win32,60,-0.1361111,-0.358333403,1,0,0,1.39788,scale,,,,,,0.349027907,0.282842712,0.174513954,0.141421356,stimuli/lakes/8080118_left.png,stimuli/lakes/8080118_right.png,,,,0,104,104,118,1,,,,,
,,,,,,,$5ee4cf7ffbedfb1d20583c8a,2020-07-21_17h01.50.585,fisher_task,2020.1.3,Win32,60,0.042592606,-0.271296308,1,0,0,1.54794,scale,,,,,,0.1234,0.1,0.3702,0.3,stimuli/lakes/107098_left.png,stimuli/lakes/107098_right.png,,,,0,105,105,98,1,,,,,
,,,,,,,$5ee4cf7ffbedfb1d20583c8a,2020-07-21_17h01.50.585,fisher_task,2020.1.3,Win32,60,0.010185199,-0.26851853,1,0,0,3.333275,scale,,,,,,0.21373507,0.173205081,0.326485712,0.264575131,stimuli/lakes/305062_left.png,stimuli/lakes/305062_right.png,,,,0,106,106,62,1,,,,,
,,,,,,,$5ee4cf7ffbedfb1d20583c8a,2020-07-21_17h01.50.585,fisher_task,2020.1.3,Win32,60,0.038888959,-0.270370438,1,0,0,1.96737,scale,,,,,,0.2468,0.2,0.302267034,0.244948974,stimuli/lakes/407092_left.png,stimuli/lakes/407092_right.png,,,,0,107,107,92,1,,,,,
,,,,,,,$5ee4cf7ffbedfb1d20583c8a,2020-07-21_17h01.50.585,fisher_task,2020.1.3,Win32,60,-0.062962894,-0.269444456,1,0,0,1.798975,scale,,,,,,0.326485712,0.264575131,0.21373507,0.173205081,stimuli/lakes/705067_left.png,stimuli/lakes/705067_right.png,,,,0,108,108,67,1,,,,,
,,,,,,,$5ee4cf7ffbedfb1d20583c8a,2020-07-21_17h01.50.585,fisher_task,2020.1.3,Win32,60,0.094444459,-0.277777789,1,0,0,1.86445,scale,,,,,,0.275930788,0.223606798,0.275930788,0.223606798,stimuli/lakes/502016_left.png,stimuli/lakes/502016_right.png,,,,0,109,109,16,1,,,,,
,,,,,,,$5ee4cf7ffbedfb1d20583c8a,2020-07-21_17h01.50.585,fisher_task,2020.1.3,Win32,60,0.097222237,-0.292592604,1,0,0,1.866455,scale,,,,,,0.2468,0.2,0.302267034,0.244948974,stimuli/lakes/402014_left.png,stimuli/lakes/402014_right.png,,,space,0,110,110,14,1,2.04148,,,,
,,,,,,,$5ee4cf7ffbedfb1d20583c8a,2020-07-21_17h01.50.585,fisher_task,2020.1.3,Win32,60,0.116666682,-0.303703716,1,0,0,2.21629,scale,,,,,,0.21373507,0.173205081,0.326485712,0.264575131,stimuli/lakes/306082_left.png,stimuli/lakes/306082_right.png,,,,0,111,111,82,1,,,,,
,,,,,,,$5ee4cf7ffbedfb1d20583c8a,2020-07-21_17h01.50.585,fisher_task,2020.1.3,Win32,60,-0.066666654,-0.260185197,1,0,0,1.46721,scale,,,,,,0.3702,0.3,0.1234,0.1,stimuli/lakes/903031_left.png,stimuli/lakes/903031_right.png,,,,0,112,112,31,1,,,,,
,,,,,,,$5ee4cf7ffbedfb1d20583c8a,2020-07-21_17h01.50.585,fisher_task,2020.1.3,Win32,60,-0.013888876,-0.256481549,1,0,0,1.765655,scale,,,,,,0.302267034,0.244948974,0.2468,0.2,stimuli/lakes/60105_left.png,stimuli/lakes/60105_right.png,,,,0,113,113,5,1,,,,,
,,,,,,,$5ee4cf7ffbedfb1d20583c8a,2020-07-21_17h01.50.585,fisher_task,2020.1.3,Win32,60,-0.055555543,-0.271296308,1,0,0,1.166095,scale,,,,,,0.326485712,0.264575131,0.21373507,0.173205081,stimuli/lakes/703038_left.png,stimuli/lakes/703038_right.png,,,,0,114,114,38,1,,,,,
,,,,,,,$5ee4cf7ffbedfb1d20583c8a,2020-07-21_17h01.50.585,fisher_task,2020.1.3,Win32,60,0.08055557,-0.291666678,1,0,0,1.666395,scale,,,,,,0.174513954,0.141421356,0.349027907,0.282842712,stimuli/lakes/207090_left.png,stimuli/lakes/207090_right.png,,,,0,115,115,90,1,,,,,
,,,,,,,$5ee4cf7ffbedfb1d20583c8a,2020-07-21_17h01.50.585,fisher_task,2020.1.3,Win32,60,-0.094444433,-0.280555567,1,0,0,9.362335,scale,,,,,,0.349027907,0.282842712,0.174513954,0.141421356,stimuli/lakes/804057_left.png,stimuli/lakes/804057_right.png,,,,0,116,116,57,1,,,,,
,,,,,,,$5ee4cf7ffbedfb1d20583c8a,2020-07-21_17h01.50.585,fisher_task,2020.1.3,Win32,60,0.004629643,-0.259259271,1,0,0,2.94972,scale,,,,,,0.3702,0.3,0.1234,0.1,stimuli/lakes/902022_left.png,stimuli/lakes/902022_right.png,,,,0,117,117,22,1,,,,,
,,,,,,,$5ee4cf7ffbedfb1d20583c8a,2020-07-21_17h01.50.585,fisher_task,2020.1.3,Win32,60,0.054629644,-0.27314816,1,0,0,3.53231,scale,,,,,,0.2468,0.2,0.302267034,0.244948974,stimuli/lakes/40102_left.png,stimuli/lakes/40102_right.png,,,,0,118,118,2,1,,,,,
,,,,,,,$5ee4cf7ffbedfb1d20583c8a,2020-07-21_17h01.50.585,fisher_task,2020.1.3,Win32,60,-0.01296295,-0.264814826,1,0,0,1.76462,scale,,,,,,0.2468,0.2,0.302267034,0.244948974,stimuli/lakes/4080112_left.png,stimuli/lakes/4080112_right.png,,,,0,119,119,112,1,,,,,
,,,,,,,$5ee4cf7ffbedfb1d20583c8a,2020-07-21_17h01.50.585,fisher_task,2020.1.3,Win32,60,-0.076851783,-0.264814826,1,0,0,1.698215,scale,,,,,,0.3702,0.3,0.1234,0.1,stimuli/lakes/904049_left.png,stimuli/lakes/904049_right.png,,,,0,120,120,49,1,,,,,
,,,,,,,$5ee4cf7ffbedfb1d20583c8a,2020-07-21_17h01.50.585,fisher_task,2020.1.3,Win32,60,0.009259273,-0.264814826,1,0,0,1.56466,scale,,,,,,0.2468,0.2,0.302267034,0.244948974,stimuli/lakes/4090124_left.png,stimuli/lakes/4090124_right.png,,,,0,121,121,124,1,,,,,
,,,,,,,$5ee4cf7ffbedfb1d20583c8a,2020-07-21_17h01.50.585,fisher_task,2020.1.3,Win32,60,0.125925941,-0.322222234,1,0,0,1.49918,scale,,,,,,0.21373507,0.173205081,0.326485712,0.264575131,stimuli/lakes/30101_left.png,stimuli/lakes/30101_right.png,,,,0,122,122,1,1,,,,,
,,,,,,,$5ee4cf7ffbedfb1d20583c8a,2020-07-21_17h01.50.585,fisher_task,2020.1.3,Win32,60,0.115740756,-0.284259327,1,0,0,2.33064,scale,,,,,,0.2468,0.2,0.302267034,0.244948974,stimuli/lakes/404053_left.png,stimuli/lakes/404053_right.png,,,,0,123,123,53,1,,,,,
,,,,,,,$5ee4cf7ffbedfb1d20583c8a,2020-07-21_17h01.50.585,fisher_task,2020.1.3,Win32,60,0.154629645,-0.356481494,1,0,0,2.46554,scale,,,,,,0.1234,0.1,0.3702,0.3,stimuli/lakes/105059_left.png,stimuli/lakes/105059_right.png,,,,0,124,124,59,1,,,,,
,,,,,,,$5ee4cf7ffbedfb1d20583c8a,2020-07-21_17h01.50.585,fisher_task,2020.1.3,Win32,60,0.002777791,-0.23796303,1,0,0,2.3313,scale,,,,,,0.326485712,0.264575131,0.21373507,0.173205081,stimuli/lakes/706086_left.png,stimuli/lakes/706086_right.png,,,,0,125,125,86,1,,,,,
,,,,,,,$5ee4cf7ffbedfb1d20583c8a,2020-07-21_17h01.50.585,fisher_task,2020.1.3,Win32,60,-0.176851841,-0.426851866,1,0,0,2.79735,scale,,,,,,0.3702,0.3,0.1234,0.1,stimuli/lakes/907097_left.png,stimuli/lakes/907097_right.png,,,,0,126,126,97,1,,,,,
,,,,,,,$5ee4cf7ffbedfb1d20583c8a,2020-07-21_17h01.50.585,fisher_task,2020.1.3,Win32,60,-0.087037025,-0.306481493,1,0,0,2.066035,scale,,,,,,0.1234,0.1,0.3702,0.3,stimuli/lakes/1080107_left.png,stimuli/lakes/1080107_right.png,,,,0,127,127,107,1,,,,,
,,,,,,,$5ee4cf7ffbedfb1d20583c8a,2020-07-21_17h01.50.585,fisher_task,2020.1.3,Win32,60,-0.006481468,-0.270370438,1,0,0,4.44929,scale,,,,,,0.302267034,0.244948974,0.2468,0.2,stimuli/lakes/606076_left.png,stimuli/lakes/606076_right.png,,,,0,128,128,76,1,,,,,
,,,,,,,$5ee4cf7ffbedfb1d20583c8a,2020-07-21_17h01.50.585,fisher_task,2020.1.3,Win32,60,-0.01296295,-0.269444456,1,0,0,1.830205,scale,,,,,,0.349027907,0.282842712,0.174513954,0.141421356,stimuli/lakes/802021_left.png,stimuli/lakes/802021_right.png,,,,0,129,129,21,1,,,,,
,,,,,,,$5ee4cf7ffbedfb1d20583c8a,2020-07-21_17h01.50.585,fisher_task,2020.1.3,Win32,60,,,,,,,,,,,,,,,,,,,,,,,,,,,,space,5.636895,space,2.22082
