keySpace.keys,instructions.thisRepN,instructions.thisTrialN,instructions.thisN,instructions.thisIndex,instructions.ran,participant,date,expName,psychopyVersion,OS,frameRate,mouse.x,mouse.y,mouse.leftButton,mouse.midButton,mouse.rightButton,mouse.time,mouse.clicked_name,training.thisRepN,training.thisTrialN,training.thisN,training.thisIndex,training.ran,widthBasketLeft,heightBasketLeft,widthBasketRight,heightBasketRight,leftLake,rightLake,space2.keys,space2.rt,space1.keys,trials.thisRepN,trials.thisTrialN,trials.thisN,trials.thisIndex,trials.ran,space1.rt,finalSpace1.keys,finalSpace1.rt,finalSpace2.keys,finalSpace2.rt
,0,0,0,0,1,$5f0e1d1b9289a50c450a6d93,2020-07-21_17h26.00.753,fisher_task,2020.1.3,Win32,60,,,,,,,,,,,,,,,,,,,,,,,,,,,,,,,
,,,,,,$5f0e1d1b9289a50c450a6d93,2020-07-21_17h26.00.753,fisher_task,2020.1.3,Win32,60,0.180555556,-0.416666667,1,0,0,4.24969,scale,0,0,0,0,1,0.275930788,0.223606798,0.275930788,0.223606798,stimuli/training/20_left.png,stimuli/training/20_right.png,,,,,,,,,,,,,
,,,,,,$5f0e1d1b9289a50c450a6d93,2020-07-21_17h26.00.753,fisher_task,2020.1.3,Win32,60,-0.162962963,-0.436111111,1,0,0,2.58298,scale,0,1,1,1,1,0.275930788,0.223606798,0.275930788,0.223606798,stimuli/training/80_left.png,stimuli/training/80_right.png,,,,,,,,,,,,,
,,,,,,$5f0e1d1b9289a50c450a6d93,2020-07-21_17h26.00.753,fisher_task,2020.1.3,Win32,60,0.132407407,-0.29537037,1,0,0,3.616425,scale,0,2,2,2,1,0.174513954,0.141421356,0.349027907,0.282842712,stimuli/training/50_left.png,stimuli/training/50_right.png,,,,,,,,,,,,,
,,,,,,$5f0e1d1b9289a50c450a6d93,2020-07-21_17h26.00.753,fisher_task,2020.1.3,Win32,60,-0.112962963,-0.287962963,1,0,0,2.74994,scale,0,3,3,3,1,0.349027907,0.282842712,0.174513954,0.141421356,stimuli/training/50_left.png,stimuli/training/50_right.png,,,,,,,,,,,,,
,,,,,,$5f0e1d1b9289a50c450a6d93,2020-07-21_17h26.00.753,fisher_task,2020.1.3,Win32,60,-0.00462963,-0.262037037,1,0,0,1.933065,scale,0,4,4,4,1,0.275930788,0.223606798,0.275930788,0.223606798,stimuli/training/50_left.png,stimuli/training/50_right.png,,,,,,,,,,,,,
,,,,,,$5f0e1d1b9289a50c450a6d93,2020-07-21_17h26.00.753,fisher_task,2020.1.3,Win32,60,0.17962963,-0.437962963,1,0,0,1.68302,scale,0,5,5,5,1,0.174513954,0.141421356,0.349027907,0.282842712,stimuli/training/20_left.png,stimuli/training/20_right.png,,,,,,,,,,,,,
,,,,,,$5f0e1d1b9289a50c450a6d93,2020-07-21_17h26.00.753,fisher_task,2020.1.3,Win32,60,-0.125,-0.432407407,1,0,0,1.266415,scale,0,6,6,6,1,0.349027907,0.282842712,0.174513954,0.141421356,stimuli/training/80_left.png,stimuli/training/80_right.png,,,,,,,,,,,,,
,,,,,,$5f0e1d1b9289a50c450a6d93,2020-07-21_17h26.00.753,fisher_task,2020.1.3,Win32,60,0.173148148,-0.438888889,1,0,0,1.466435,scale,0,7,7,7,1,0.1234,0.1,0.3702,0.3,stimuli/training/30_left.png,stimuli/training/30_right.png,,,,,,,,,,,,,
,,,,,,$5f0e1d1b9289a50c450a6d93,2020-07-21_17h26.00.753,fisher_task,2020.1.3,Win32,60,-0.14537037,-0.434259259,1,0,0,1.93303,scale,0,8,8,8,1,0.3702,0.3,0.1234,0.1,stimuli/training/70_left.png,stimuli/training/70_right.png,,,,,,,,,,,,,
,,,,,,$5f0e1d1b9289a50c450a6d93,2020-07-21_17h26.00.753,fisher_task,2020.1.3,Win32,60,-0.147222222,-0.440740741,1,0,0,1.6664,scale,0,9,9,9,1,0.326485712,0.264575131,0.21373507,0.173205081,stimuli/training/90_left.png,stimuli/training/90_right.png,,,,,,,,,,,,,
,,,,,,$5f0e1d1b9289a50c450a6d93,2020-07-21_17h26.00.753,fisher_task,2020.1.3,Win32,60,0.17037037,-0.443518519,1,0,0,2.049535,scale,0,10,10,10,1,0.21373507,0.173205081,0.326485712,0.264575131,stimuli/training/10_left.png,stimuli/training/10_right.png,,,,,,,,,,,,,
,,,,,,$5f0e1d1b9289a50c450a6d93,2020-07-21_17h26.00.753,fisher_task,2020.1.3,Win32,60,-0.152777778,-0.337037037,1,0,0,2.13296,scale,,,,,,0.3702,0.3,0.1234,0.1,stimuli/lakes/906088_left.png,stimuli/lakes/906088_right.png,space,8.75404,,0,0,0,88,1,,,,,
,,,,,,$5f0e1d1b9289a50c450a6d93,2020-07-21_17h26.00.753,fisher_task,2020.1.3,Win32,60,0.097222222,-0.282407407,1,0,0,2.23301,scale,,,,,,0.302267034,0.244948974,0.2468,0.2,stimuli/lakes/602018_left.png,stimuli/lakes/602018_right.png,,,,0,1,1,18,1,,,,,
,,,,,,$5f0e1d1b9289a50c450a6d93,2020-07-21_17h26.00.753,fisher_task,2020.1.3,Win32,60,0.131481481,-0.296296296,1,0,0,4.083,scale,,,,,,0.275930788,0.223606798,0.275930788,0.223606798,stimuli/lakes/504045_left.png,stimuli/lakes/504045_right.png,,,,0,2,2,45,1,,,,,
,,,,,,$5f0e1d1b9289a50c450a6d93,2020-07-21_17h26.00.753,fisher_task,2020.1.3,Win32,60,-0.172222222,-0.44537037,1,0,0,1.682935,scale,,,,,,0.3702,0.3,0.1234,0.1,stimuli/lakes/9070106_left.png,stimuli/lakes/9070106_right.png,,,,0,3,3,106,1,,,,,
,,,,,,$5f0e1d1b9289a50c450a6d93,2020-07-21_17h26.00.753,fisher_task,2020.1.3,Win32,60,-0.134259259,-0.319444444,1,0,0,1.81662,scale,,,,,,0.302267034,0.244948974,0.2468,0.2,stimuli/lakes/606076_left.png,stimuli/lakes/606076_right.png,,,,0,4,4,76,1,,,,,
,,,,,,$5f0e1d1b9289a50c450a6d93,2020-07-21_17h26.00.753,fisher_task,2020.1.3,Win32,60,0.10462963,-0.262037037,1,0,0,3.56636,scale,,,,,,0.1234,0.1,0.3702,0.3,stimuli/lakes/106080_left.png,stimuli/lakes/106080_right.png,,,,0,5,5,80,1,,,,,
,,,,,,$5f0e1d1b9289a50c450a6d93,2020-07-21_17h26.00.753,fisher_task,2020.1.3,Win32,60,0.09537037,-0.276851852,1,0,0,2.49938,scale,,,,,,0.326485712,0.264575131,0.21373507,0.173205081,stimuli/lakes/705067_left.png,stimuli/lakes/705067_right.png,,,,0,6,6,67,1,,,,,
,,,,,,$5f0e1d1b9289a50c450a6d93,2020-07-21_17h26.00.753,fisher_task,2020.1.3,Win32,60,-0.152777778,-0.430555556,1,0,0,2.98301,scale,,,,,,0.21373507,0.173205081,0.326485712,0.264575131,stimuli/lakes/306082_left.png,stimuli/lakes/306082_right.png,,,,0,7,7,82,1,,,,,
,,,,,,$5f0e1d1b9289a50c450a6d93,2020-07-21_17h26.00.753,fisher_task,2020.1.3,Win32,60,0.162037037,-0.442592593,1,0,0,1.783,scale,,,,,,0.302267034,0.244948974,0.2468,0.2,stimuli/lakes/60105_left.png,stimuli/lakes/60105_right.png,,,,0,8,8,5,1,,,,,
,,,,,,$5f0e1d1b9289a50c450a6d93,2020-07-21_17h26.00.753,fisher_task,2020.1.3,Win32,60,0.172222222,-0.442592593,1,0,0,1.132995,scale,,,,,,0.21373507,0.173205081,0.326485712,0.264575131,stimuli/lakes/302012_left.png,stimuli/lakes/302012_right.png,,,,0,9,9,12,1,,,,,
,,,,,,$5f0e1d1b9289a50c450a6d93,2020-07-21_17h26.00.753,fisher_task,2020.1.3,Win32,60,0.092592593,-0.24537037,1,0,0,2.64964,scale,,,,,,0.349027907,0.282842712,0.174513954,0.141421356,stimuli/lakes/803030_left.png,stimuli/lakes/803030_right.png,,,,0,10,10,30,1,,,,,
,,,,,,$5f0e1d1b9289a50c450a6d93,2020-07-21_17h26.00.753,fisher_task,2020.1.3,Win32,60,0.140740741,-0.283333333,1,0,0,2.283145,scale,,,,,,0.21373507,0.173205081,0.326485712,0.264575131,stimuli/lakes/305061_left.png,stimuli/lakes/305061_right.png,,,,0,11,11,61,1,,,,,
,,,,,,$5f0e1d1b9289a50c450a6d93,2020-07-21_17h26.00.753,fisher_task,2020.1.3,Win32,60,-0.17037037,-0.440740741,1,0,0,1.63326,scale,,,,,,0.326485712,0.264575131,0.21373507,0.173205081,stimuli/lakes/7080116_left.png,stimuli/lakes/7080116_right.png,,,,0,12,12,116,1,,,,,
,,,,,,$5f0e1d1b9289a50c450a6d93,2020-07-21_17h26.00.753,fisher_task,2020.1.3,Win32,60,-0.086111111,-0.261111111,1,0,0,2.366375,scale,,,,,,0.3702,0.3,0.1234,0.1,stimuli/lakes/904049_left.png,stimuli/lakes/904049_right.png,,,,0,13,13,49,1,,,,,
,,,,,,$5f0e1d1b9289a50c450a6d93,2020-07-21_17h26.00.753,fisher_task,2020.1.3,Win32,60,-0.148148148,-0.436111111,1,0,0,3.766235,scale,,,,,,0.174513954,0.141421356,0.349027907,0.282842712,stimuli/lakes/206072_left.png,stimuli/lakes/206072_right.png,,,,0,14,14,72,1,,,,,
,,,,,,$5f0e1d1b9289a50c450a6d93,2020-07-21_17h26.00.753,fisher_task,2020.1.3,Win32,60,-0.066666667,-0.240740741,1,0,0,3.816255,scale,,,,,,0.174513954,0.141421356,0.349027907,0.282842712,stimuli/lakes/205060_left.png,stimuli/lakes/205060_right.png,,,,0,15,15,60,1,,,,,
,,,,,,$5f0e1d1b9289a50c450a6d93,2020-07-21_17h26.00.753,fisher_task,2020.1.3,Win32,60,0.148148148,-0.287962963,1,0,0,2.66631,scale,,,,,,0.326485712,0.264575131,0.21373507,0.173205081,stimuli/lakes/702019_left.png,stimuli/lakes/702019_right.png,,,,0,16,16,19,1,,,,,
,,,,,,$5f0e1d1b9289a50c450a6d93,2020-07-21_17h26.00.753,fisher_task,2020.1.3,Win32,60,0.196296296,-0.399074074,1,0,0,1.283035,scale,,,,,,0.174513954,0.141421356,0.349027907,0.282842712,stimuli/lakes/203024_left.png,stimuli/lakes/203024_right.png,,,,0,17,17,24,1,,,,,
,,,,,,$5f0e1d1b9289a50c450a6d93,2020-07-21_17h26.00.753,fisher_task,2020.1.3,Win32,60,-0.011111111,-0.243518519,1,0,0,1.933055,scale,,,,,,0.326485712,0.264575131,0.21373507,0.173205081,stimuli/lakes/705068_left.png,stimuli/lakes/705068_right.png,,,,0,18,18,68,1,,,,,
,,,,,,$5f0e1d1b9289a50c450a6d93,2020-07-21_17h26.00.753,fisher_task,2020.1.3,Win32,60,0.169444444,-0.333333333,1,0,0,1.51641,scale,,,,,,0.174513954,0.141421356,0.349027907,0.282842712,stimuli/lakes/203033_left.png,stimuli/lakes/203033_right.png,,,,0,19,19,33,1,,,,,
,,,,,,$5f0e1d1b9289a50c450a6d93,2020-07-21_17h26.00.753,fisher_task,2020.1.3,Win32,60,-0.155555556,-0.327777778,1,0,0,3.49966,scale,,,,,,0.275930788,0.223606798,0.275930788,0.223606798,stimuli/lakes/506084_left.png,stimuli/lakes/506084_right.png,,,,0,20,20,84,1,,,,,
,,,,,,$5f0e1d1b9289a50c450a6d93,2020-07-21_17h26.00.753,fisher_task,2020.1.3,Win32,60,0.112037037,-0.25462963,1,0,0,1.533095,scale,,,,,,0.326485712,0.264575131,0.21373507,0.173205081,stimuli/lakes/703029_left.png,stimuli/lakes/703029_right.png,,,,0,21,21,29,1,,,,,
,,,,,,$5f0e1d1b9289a50c450a6d93,2020-07-21_17h26.00.753,fisher_task,2020.1.3,Win32,60,0.086111111,-0.249074074,1,0,0,1.41637,scale,,,,,,0.349027907,0.282842712,0.174513954,0.141421356,stimuli/lakes/804048_left.png,stimuli/lakes/804048_right.png,,,space,0,22,22,48,1,4.415695,,,,
,,,,,,$5f0e1d1b9289a50c450a6d93,2020-07-21_17h26.00.753,fisher_task,2020.1.3,Win32,60,0.185185185,-0.371296296,1,0,0,1.04973,scale,,,,,,0.2468,0.2,0.302267034,0.244948974,stimuli/lakes/403026_left.png,stimuli/lakes/403026_right.png,,,,0,23,23,26,1,,,,,
,,,,,,$5f0e1d1b9289a50c450a6d93,2020-07-21_17h26.00.753,fisher_task,2020.1.3,Win32,60,0.073148148,-0.233333333,1,0,0,1.6164,scale,,,,,,0.3702,0.3,0.1234,0.1,stimuli/lakes/902022_left.png,stimuli/lakes/902022_right.png,,,,0,24,24,22,1,,,,,
,,,,,,$5f0e1d1b9289a50c450a6d93,2020-07-21_17h26.00.753,fisher_task,2020.1.3,Win32,60,-0.180555556,-0.437962963,1,0,0,2.16648,scale,,,,,,0.2468,0.2,0.302267034,0.244948974,stimuli/lakes/4080111_left.png,stimuli/lakes/4080111_right.png,,,,0,25,25,111,1,,,,,
,,,,,,$5f0e1d1b9289a50c450a6d93,2020-07-21_17h26.00.753,fisher_task,2020.1.3,Win32,60,0.171296296,-0.402777778,1,0,0,2.14973,scale,,,,,,0.275930788,0.223606798,0.275930788,0.223606798,stimuli/lakes/50104_left.png,stimuli/lakes/50104_right.png,,,,0,26,26,4,1,,,,,
,,,,,,$5f0e1d1b9289a50c450a6d93,2020-07-21_17h26.00.753,fisher_task,2020.1.3,Win32,60,0.069444444,-0.236111111,1,0,0,2.08307,scale,,,,,,0.21373507,0.173205081,0.326485712,0.264575131,stimuli/lakes/305062_left.png,stimuli/lakes/305062_right.png,,,,0,27,27,62,1,,,,,
,,,,,,$5f0e1d1b9289a50c450a6d93,2020-07-21_17h26.00.753,fisher_task,2020.1.3,Win32,60,-0.172222222,-0.42962963,1,0,0,1.633095,scale,,,,,,0.326485712,0.264575131,0.21373507,0.173205081,stimuli/lakes/7080117_left.png,stimuli/lakes/7080117_right.png,,,,0,28,28,117,1,,,,,
,,,,,,$5f0e1d1b9289a50c450a6d93,2020-07-21_17h26.00.753,fisher_task,2020.1.3,Win32,60,-0.153703704,-0.435185185,1,0,0,1.66626,scale,,,,,,0.302267034,0.244948974,0.2468,0.2,stimuli/lakes/6080114_left.png,stimuli/lakes/6080114_right.png,,,,0,29,29,114,1,,,,,
,,,,,,$5f0e1d1b9289a50c450a6d93,2020-07-21_17h26.00.753,fisher_task,2020.1.3,Win32,60,-0.096296296,-0.258333333,1,0,0,2.599265,scale,,,,,,0.174513954,0.141421356,0.349027907,0.282842712,stimuli/lakes/207099_left.png,stimuli/lakes/207099_right.png,,,,0,30,30,99,1,,,,,
,,,,,,$5f0e1d1b9289a50c450a6d93,2020-07-21_17h26.00.753,fisher_task,2020.1.3,Win32,60,-0.153703704,-0.386111111,1,0,0,2.23313,scale,,,,,,0.275930788,0.223606798,0.275930788,0.223606798,stimuli/lakes/5070102_left.png,stimuli/lakes/5070102_right.png,,,,0,31,31,102,1,,,,,
,,,,,,$5f0e1d1b9289a50c450a6d93,2020-07-21_17h26.00.753,fisher_task,2020.1.3,Win32,60,-0.167592593,-0.42962963,1,0,0,1.04982,scale,,,,,,0.326485712,0.264575131,0.21373507,0.173205081,stimuli/lakes/7090129_left.png,stimuli/lakes/7090129_right.png,,,,0,32,32,129,1,,,,,
,,,,,,$5f0e1d1b9289a50c450a6d93,2020-07-21_17h26.00.753,fisher_task,2020.1.3,Win32,60,0.184259259,-0.344444444,1,0,0,1.4496,scale,,,,,,0.275930788,0.223606798,0.275930788,0.223606798,stimuli/lakes/503036_left.png,stimuli/lakes/503036_right.png,,,,0,33,33,36,1,,,,,
,,,,,,$5f0e1d1b9289a50c450a6d93,2020-07-21_17h26.00.753,fisher_task,2020.1.3,Win32,60,0.175925926,-0.374074074,1,0,0,1.049695,scale,,,,,,0.21373507,0.173205081,0.326485712,0.264575131,stimuli/lakes/302013_left.png,stimuli/lakes/302013_right.png,,,,0,34,34,13,1,,,,,
,,,,,,$5f0e1d1b9289a50c450a6d93,2020-07-21_17h26.00.753,fisher_task,2020.1.3,Win32,60,-0.152777778,-0.426851852,1,0,0,1.46638,scale,,,,,,0.349027907,0.282842712,0.174513954,0.141421356,stimuli/lakes/8080118_left.png,stimuli/lakes/8080118_right.png,,,,0,35,35,118,1,,,,,
,,,,,,$5f0e1d1b9289a50c450a6d93,2020-07-21_17h26.00.753,fisher_task,2020.1.3,Win32,60,0.176851852,-0.430555556,1,0,0,1.14966,scale,,,,,,0.1234,0.1,0.3702,0.3,stimuli/lakes/104041_left.png,stimuli/lakes/104041_right.png,,,,0,36,36,41,1,,,,,
,,,,,,$5f0e1d1b9289a50c450a6d93,2020-07-21_17h26.00.753,fisher_task,2020.1.3,Win32,60,-0.121296296,-0.294444444,1,0,0,1.64975,scale,,,,,,0.3702,0.3,0.1234,0.1,stimuli/lakes/906079_left.png,stimuli/lakes/906079_right.png,,,,0,37,37,79,1,,,,,
,,,,,,$5f0e1d1b9289a50c450a6d93,2020-07-21_17h26.00.753,fisher_task,2020.1.3,Win32,60,-0.163888889,-0.37037037,1,0,0,2.466485,scale,,,,,,0.349027907,0.282842712,0.174513954,0.141421356,stimuli/lakes/806087_left.png,stimuli/lakes/806087_right.png,,,,0,38,38,87,1,,,,,
,,,,,,$5f0e1d1b9289a50c450a6d93,2020-07-21_17h26.00.753,fisher_task,2020.1.3,Win32,60,-0.178703704,-0.413888889,1,0,0,1.183085,scale,,,,,,0.349027907,0.282842712,0.174513954,0.141421356,stimuli/lakes/8070105_left.png,stimuli/lakes/8070105_right.png,,,,0,39,39,105,1,,,,,
,,,,,,$5f0e1d1b9289a50c450a6d93,2020-07-21_17h26.00.753,fisher_task,2020.1.3,Win32,60,0.159259259,-0.290740741,1,0,0,3.16628,scale,,,,,,0.302267034,0.244948974,0.2468,0.2,stimuli/lakes/602017_left.png,stimuli/lakes/602017_right.png,,,,0,40,40,17,1,,,,,
,,,,,,$5f0e1d1b9289a50c450a6d93,2020-07-21_17h26.00.753,fisher_task,2020.1.3,Win32,60,0.176851852,-0.339814815,1,0,0,2.666435,scale,,,,,,0.3702,0.3,0.1234,0.1,stimuli/lakes/901010_left.png,stimuli/lakes/901010_right.png,,,,0,41,41,10,1,,,,,
,,,,,,$5f0e1d1b9289a50c450a6d93,2020-07-21_17h26.00.753,fisher_task,2020.1.3,Win32,60,-0.144444444,-0.426851852,1,0,0,1.333105,scale,,,,,,0.275930788,0.223606798,0.275930788,0.223606798,stimuli/lakes/5080113_left.png,stimuli/lakes/5080113_right.png,,,,0,42,42,113,1,,,,,
,,,,,,$5f0e1d1b9289a50c450a6d93,2020-07-21_17h26.00.753,fisher_task,2020.1.3,Win32,60,0.174074074,-0.366666667,1,0,0,1.26637,scale,,,,,,0.2468,0.2,0.302267034,0.244948974,stimuli/lakes/404053_left.png,stimuli/lakes/404053_right.png,,,,0,43,43,53,1,,,,,
,,,,,,$5f0e1d1b9289a50c450a6d93,2020-07-21_17h26.00.753,fisher_task,2020.1.3,Win32,60,-0.147222222,-0.421296296,1,0,0,1.183075,scale,,,,,,0.326485712,0.264575131,0.21373507,0.173205081,stimuli/lakes/7090128_left.png,stimuli/lakes/7090128_right.png,,,space,0,44,44,128,1,2.364565,,,,
,,,,,,$5f0e1d1b9289a50c450a6d93,2020-07-21_17h26.00.753,fisher_task,2020.1.3,Win32,60,0.167592593,-0.418518519,1,0,0,0.849445,scale,,,,,,0.21373507,0.173205081,0.326485712,0.264575131,stimuli/lakes/30101_left.png,stimuli/lakes/30101_right.png,,,,0,45,45,1,1,,,,,
,,,,,,$5f0e1d1b9289a50c450a6d93,2020-07-21_17h26.00.753,fisher_task,2020.1.3,Win32,60,-0.127777778,-0.305555556,1,0,0,1.29975,scale,,,,,,0.1234,0.1,0.3702,0.3,stimuli/lakes/107089_left.png,stimuli/lakes/107089_right.png,,,,0,46,46,89,1,,,,,
,,,,,,$5f0e1d1b9289a50c450a6d93,2020-07-21_17h26.00.753,fisher_task,2020.1.3,Win32,60,0.006481481,-0.248148148,1,0,0,2.26631,scale,,,,,,0.302267034,0.244948974,0.2468,0.2,stimuli/lakes/605065_left.png,stimuli/lakes/605065_right.png,,,,0,47,47,65,1,,,,,
,,,,,,$5f0e1d1b9289a50c450a6d93,2020-07-21_17h26.00.753,fisher_task,2020.1.3,Win32,60,-0.148148148,-0.4,1,0,0,1.7996,scale,,,,,,0.1234,0.1,0.3702,0.3,stimuli/lakes/107098_left.png,stimuli/lakes/107098_right.png,,,,0,48,48,98,1,,,,,
,,,,,,$5f0e1d1b9289a50c450a6d93,2020-07-21_17h26.00.753,fisher_task,2020.1.3,Win32,60,0.161111111,-0.332407407,1,0,0,1.1996,scale,,,,,,0.302267034,0.244948974,0.2468,0.2,stimuli/lakes/603028_left.png,stimuli/lakes/603028_right.png,,,,0,49,49,28,1,,,,,
,,,,,,$5f0e1d1b9289a50c450a6d93,2020-07-21_17h26.00.753,fisher_task,2020.1.3,Win32,60,0.12037037,-0.262962963,1,0,0,1.24975,scale,,,,,,0.326485712,0.264575131,0.21373507,0.173205081,stimuli/lakes/704056_left.png,stimuli/lakes/704056_right.png,,,,0,50,50,56,1,,,,,
,,,,,,$5f0e1d1b9289a50c450a6d93,2020-07-21_17h26.00.753,fisher_task,2020.1.3,Win32,60,-0.14537037,-0.344444444,1,0,0,1.216425,scale,,,,,,0.2468,0.2,0.302267034,0.244948974,stimuli/lakes/4090124_left.png,stimuli/lakes/4090124_right.png,,,,0,51,51,124,1,,,,,
,,,,,,$5f0e1d1b9289a50c450a6d93,2020-07-21_17h26.00.753,fisher_task,2020.1.3,Win32,60,-0.166666667,-0.319444444,1,0,0,2.2665,scale,,,,,,0.21373507,0.173205081,0.326485712,0.264575131,stimuli/lakes/3090121_left.png,stimuli/lakes/3090121_right.png,,,,0,52,52,121,1,,,,,
,,,,,,$5f0e1d1b9289a50c450a6d93,2020-07-21_17h26.00.753,fisher_task,2020.1.3,Win32,60,-0.172222222,-0.372222222,1,0,0,1.16628,scale,,,,,,0.326485712,0.264575131,0.21373507,0.173205081,stimuli/lakes/707095_left.png,stimuli/lakes/707095_right.png,,,,0,53,53,95,1,,,,,
,,,,,,$5f0e1d1b9289a50c450a6d93,2020-07-21_17h26.00.753,fisher_task,2020.1.3,Win32,60,-0.17962963,-0.419444444,1,0,0,2.049675,scale,,,,,,0.1234,0.1,0.3702,0.3,stimuli/lakes/1090119_left.png,stimuli/lakes/1090119_right.png,,,,0,54,54,119,1,,,,,
,,,,,,$5f0e1d1b9289a50c450a6d93,2020-07-21_17h26.00.753,fisher_task,2020.1.3,Win32,60,-0.122222222,-0.264814815,1,0,0,2.21646,scale,,,,,,0.326485712,0.264575131,0.21373507,0.173205081,stimuli/lakes/706086_left.png,stimuli/lakes/706086_right.png,,,,0,55,55,86,1,,,,,
,,,,,,$5f0e1d1b9289a50c450a6d93,2020-07-21_17h26.00.753,fisher_task,2020.1.3,Win32,60,-0.103703704,-0.265740741,1,0,0,2.24959,scale,,,,,,0.2468,0.2,0.302267034,0.244948974,stimuli/lakes/406083_left.png,stimuli/lakes/406083_right.png,,,,0,56,56,83,1,,,,,
,,,,,,$5f0e1d1b9289a50c450a6d93,2020-07-21_17h26.00.753,fisher_task,2020.1.3,Win32,60,0.133333333,-0.278703704,1,0,0,1.849815,scale,,,,,,0.302267034,0.244948974,0.2468,0.2,stimuli/lakes/603037_left.png,stimuli/lakes/603037_right.png,,,,0,57,57,37,1,,,,,
,,,,,,$5f0e1d1b9289a50c450a6d93,2020-07-21_17h26.00.753,fisher_task,2020.1.3,Win32,60,-0.156481481,-0.410185185,1,0,0,1.216635,scale,,,,,,0.326485712,0.264575131,0.21373507,0.173205081,stimuli/lakes/7070104_left.png,stimuli/lakes/7070104_right.png,,,,0,58,58,104,1,,,,,
,,,,,,$5f0e1d1b9289a50c450a6d93,2020-07-21_17h26.00.753,fisher_task,2020.1.3,Win32,60,0.175925926,-0.387962963,1,0,0,1.316485,scale,,,,,,0.1234,0.1,0.3702,0.3,stimuli/lakes/103023_left.png,stimuli/lakes/103023_right.png,,,,0,59,59,23,1,,,,,
,,,,,,$5f0e1d1b9289a50c450a6d93,2020-07-21_17h26.00.753,fisher_task,2020.1.3,Win32,60,-0.155555556,-0.369444444,1,0,0,1.63301,scale,,,,,,0.3702,0.3,0.1234,0.1,stimuli/lakes/905070_left.png,stimuli/lakes/905070_right.png,,,,0,60,60,70,1,,,,,
,,,,,,$5f0e1d1b9289a50c450a6d93,2020-07-21_17h26.00.753,fisher_task,2020.1.3,Win32,60,0.075925926,-0.242592593,1,0,0,1.483325,scale,,,,,,0.326485712,0.264575131,0.21373507,0.173205081,stimuli/lakes/703038_left.png,stimuli/lakes/703038_right.png,,,,0,61,61,38,1,,,,,
,,,,,,$5f0e1d1b9289a50c450a6d93,2020-07-21_17h26.00.753,fisher_task,2020.1.3,Win32,60,0.169444444,-0.355555556,1,0,0,1.399915,scale,,,,,,0.174513954,0.141421356,0.349027907,0.282842712,stimuli/lakes/204051_left.png,stimuli/lakes/204051_right.png,,,,0,62,62,51,1,,,,,
,,,,,,$5f0e1d1b9289a50c450a6d93,2020-07-21_17h26.00.753,fisher_task,2020.1.3,Win32,60,0.186111111,-0.392592593,1,0,0,1.149725,scale,,,,,,0.21373507,0.173205081,0.326485712,0.264575131,stimuli/lakes/303034_left.png,stimuli/lakes/303034_right.png,,,,0,63,63,34,1,,,,,
,,,,,,$5f0e1d1b9289a50c450a6d93,2020-07-21_17h26.00.753,fisher_task,2020.1.3,Win32,60,0.094444444,-0.266666667,1,0,0,1.149715,scale,,,,,,0.302267034,0.244948974,0.2468,0.2,stimuli/lakes/604055_left.png,stimuli/lakes/604055_right.png,,,,0,64,64,55,1,,,,,
,,,,,,$5f0e1d1b9289a50c450a6d93,2020-07-21_17h26.00.753,fisher_task,2020.1.3,Win32,60,-0.175,-0.382407407,1,0,0,1.183135,scale,,,,,,0.21373507,0.173205081,0.326485712,0.264575131,stimuli/lakes/3080109_left.png,stimuli/lakes/3080109_right.png,,,,0,65,65,109,1,,,,,
,,,,,,$5f0e1d1b9289a50c450a6d93,2020-07-21_17h26.00.753,fisher_task,2020.1.3,Win32,60,-0.163888889,-0.362037037,1,0,0,1.9829,scale,,,,,,0.174513954,0.141421356,0.349027907,0.282842712,stimuli/lakes/2090120_left.png,stimuli/lakes/2090120_right.png,,,space,0,66,66,120,1,2.28026,,,,
,,,,,,$5f0e1d1b9289a50c450a6d93,2020-07-21_17h26.00.753,fisher_task,2020.1.3,Win32,60,0.168518519,-0.323148148,1,0,0,1.08313,scale,,,,,,0.3702,0.3,0.1234,0.1,stimuli/lakes/903040_left.png,stimuli/lakes/903040_right.png,,,,0,67,67,40,1,,,,,
,,,,,,$5f0e1d1b9289a50c450a6d93,2020-07-21_17h26.00.753,fisher_task,2020.1.3,Win32,60,-0.171296296,-0.418518519,1,0,0,1.783155,scale,,,,,,0.349027907,0.282842712,0.174513954,0.141421356,stimuli/lakes/807096_left.png,stimuli/lakes/807096_right.png,,,,0,68,68,96,1,,,,,
,,,,,,$5f0e1d1b9289a50c450a6d93,2020-07-21_17h26.00.753,fisher_task,2020.1.3,Win32,60,-0.171296296,-0.435185185,1,0,0,1.149735,scale,,,,,,0.302267034,0.244948974,0.2468,0.2,stimuli/lakes/6090127_left.png,stimuli/lakes/6090127_right.png,,,,0,69,69,127,1,,,,,
,,,,,,$5f0e1d1b9289a50c450a6d93,2020-07-21_17h26.00.753,fisher_task,2020.1.3,Win32,60,0.166666667,-0.314814815,1,0,0,2.083065,scale,,,,,,0.2468,0.2,0.302267034,0.244948974,stimuli/lakes/403035_left.png,stimuli/lakes/403035_right.png,,,,0,70,70,35,1,,,,,
,,,,,,$5f0e1d1b9289a50c450a6d93,2020-07-21_17h26.00.753,fisher_task,2020.1.3,Win32,60,-0.125925926,-0.291666667,1,0,0,1.83303,scale,,,,,,0.2468,0.2,0.302267034,0.244948974,stimuli/lakes/4080112_left.png,stimuli/lakes/4080112_right.png,,,,0,71,71,112,1,,,,,
,,,,,,$5f0e1d1b9289a50c450a6d93,2020-07-21_17h26.00.753,fisher_task,2020.1.3,Win32,60,-0.182407407,-0.387962963,1,0,0,1.216365,scale,,,,,,0.349027907,0.282842712,0.174513954,0.141421356,stimuli/lakes/806078_left.png,stimuli/lakes/806078_right.png,,,,0,72,72,78,1,,,,,
,,,,,,$5f0e1d1b9289a50c450a6d93,2020-07-21_17h26.00.753,fisher_task,2020.1.3,Win32,60,-0.188888889,-0.353703704,1,0,0,2.74973,scale,,,,,,0.21373507,0.173205081,0.326485712,0.264575131,stimuli/lakes/3090122_left.png,stimuli/lakes/3090122_right.png,,,,0,73,73,122,1,,,,,
,,,,,,$5f0e1d1b9289a50c450a6d93,2020-07-21_17h26.00.753,fisher_task,2020.1.3,Win32,60,0.180555556,-0.436111111,1,0,0,1.36602,scale,,,,,,0.21373507,0.173205081,0.326485712,0.264575131,stimuli/lakes/30100_left.png,stimuli/lakes/30100_right.png,,,,0,74,74,0,1,,,,,
,,,,,,$5f0e1d1b9289a50c450a6d93,2020-07-21_17h26.00.753,fisher_task,2020.1.3,Win32,60,-0.150925926,-0.431481481,1,0,0,1.083235,scale,,,,,,0.302267034,0.244948974,0.2468,0.2,stimuli/lakes/6090126_left.png,stimuli/lakes/6090126_right.png,,,,0,75,75,126,1,,,,,
,,,,,,$5f0e1d1b9289a50c450a6d93,2020-07-21_17h26.00.753,fisher_task,2020.1.3,Win32,60,-0.150925926,-0.431481481,1,0,0,0.766395,scale,,,,,,0.302267034,0.244948974,0.2468,0.2,stimuli/lakes/607094_left.png,stimuli/lakes/607094_right.png,,,,0,76,76,94,1,,,,,
,,,,,,$5f0e1d1b9289a50c450a6d93,2020-07-21_17h26.00.753,fisher_task,2020.1.3,Win32,60,-0.163888889,-0.341666667,1,0,0,1.382945,scale,,,,,,0.326485712,0.264575131,0.21373507,0.173205081,stimuli/lakes/706077_left.png,stimuli/lakes/706077_right.png,,,,0,77,77,77,1,,,,,
,,,,,,$5f0e1d1b9289a50c450a6d93,2020-07-21_17h26.00.753,fisher_task,2020.1.3,Win32,60,0.198148148,-0.401851852,1,0,0,1.116515,scale,,,,,,0.3702,0.3,0.1234,0.1,stimuli/lakes/903031_left.png,stimuli/lakes/903031_right.png,,,,0,78,78,31,1,,,,,
,,,,,,$5f0e1d1b9289a50c450a6d93,2020-07-21_17h26.00.753,fisher_task,2020.1.3,Win32,60,0.127777778,-0.272222222,1,0,0,0.966425,scale,,,,,,0.326485712,0.264575131,0.21373507,0.173205081,stimuli/lakes/702020_left.png,stimuli/lakes/702020_right.png,,,,0,79,79,20,1,,,,,
,,,,,,$5f0e1d1b9289a50c450a6d93,2020-07-21_17h26.00.753,fisher_task,2020.1.3,Win32,60,0.181481481,-0.417592593,1,0,0,0.949845,scale,,,,,,0.2468,0.2,0.302267034,0.244948974,stimuli/lakes/40102_left.png,stimuli/lakes/40102_right.png,,,,0,80,80,2,1,,,,,
,,,,,,$5f0e1d1b9289a50c450a6d93,2020-07-21_17h26.00.753,fisher_task,2020.1.3,Win32,60,0.15,-0.29537037,1,0,0,0.899655,scale,,,,,,0.349027907,0.282842712,0.174513954,0.141421356,stimuli/lakes/802021_left.png,stimuli/lakes/802021_right.png,,,,0,81,81,21,1,,,,,
,,,,,,$5f0e1d1b9289a50c450a6d93,2020-07-21_17h26.00.753,fisher_task,2020.1.3,Win32,60,0.162962963,-0.306481481,1,0,0,1.63312,scale,,,,,,0.275930788,0.223606798,0.275930788,0.223606798,stimuli/lakes/504054_left.png,stimuli/lakes/504054_right.png,,,,0,82,82,54,1,,,,,
,,,,,,$5f0e1d1b9289a50c450a6d93,2020-07-21_17h26.00.753,fisher_task,2020.1.3,Win32,60,0.136111111,-0.266666667,1,0,0,1.63323,scale,,,,,,0.174513954,0.141421356,0.349027907,0.282842712,stimuli/lakes/204042_left.png,stimuli/lakes/204042_right.png,,,,0,83,83,42,1,,,,,
,,,,,,$5f0e1d1b9289a50c450a6d93,2020-07-21_17h26.00.753,fisher_task,2020.1.3,Win32,60,0.192592593,-0.348148148,1,0,0,2.03302,scale,,,,,,0.21373507,0.173205081,0.326485712,0.264575131,stimuli/lakes/306073_left.png,stimuli/lakes/306073_right.png,,,,0,84,84,73,1,,,,,
,,,,,,$5f0e1d1b9289a50c450a6d93,2020-07-21_17h26.00.753,fisher_task,2020.1.3,Win32,60,0.167592593,-0.32962963,1,0,0,1.216425,scale,,,,,,0.21373507,0.173205081,0.326485712,0.264575131,stimuli/lakes/304052_left.png,stimuli/lakes/304052_right.png,,,,0,85,85,52,1,,,,,
,,,,,,$5f0e1d1b9289a50c450a6d93,2020-07-21_17h26.00.753,fisher_task,2020.1.3,Win32,60,0.036111111,-0.235185185,1,0,0,1.83305,scale,,,,,,0.302267034,0.244948974,0.2468,0.2,stimuli/lakes/604046_left.png,stimuli/lakes/604046_right.png,,,,0,86,86,46,1,,,,,
,,,,,,$5f0e1d1b9289a50c450a6d93,2020-07-21_17h26.00.753,fisher_task,2020.1.3,Win32,60,0.162037037,-0.307407407,1,0,0,1.449635,scale,,,,,,0.275930788,0.223606798,0.275930788,0.223606798,stimuli/lakes/503027_left.png,stimuli/lakes/503027_right.png,,,,0,87,87,27,1,,,,,
,,,,,,$5f0e1d1b9289a50c450a6d93,2020-07-21_17h26.00.753,fisher_task,2020.1.3,Win32,60,0.086111111,-0.237962963,1,0,0,1.932895,scale,,,,,,0.3702,0.3,0.1234,0.1,stimuli/lakes/904058_left.png,stimuli/lakes/904058_right.png,,,space,0,88,88,58,1,2.002435,,,,
,,,,,,$5f0e1d1b9289a50c450a6d93,2020-07-21_17h26.00.753,fisher_task,2020.1.3,Win32,60,0.152777778,-0.310185185,1,0,0,1.96633,scale,,,,,,0.326485712,0.264575131,0.21373507,0.173205081,stimuli/lakes/70108_left.png,stimuli/lakes/70108_right.png,,,,0,89,89,8,1,,,,,
,,,,,,$5f0e1d1b9289a50c450a6d93,2020-07-21_17h26.00.753,fisher_task,2020.1.3,Win32,60,0.175,-0.387037037,1,0,0,1.883125,scale,,,,,,0.1234,0.1,0.3702,0.3,stimuli/lakes/105059_left.png,stimuli/lakes/105059_right.png,,,,0,90,90,59,1,,,,,
,,,,,,$5f0e1d1b9289a50c450a6d93,2020-07-21_17h26.00.753,fisher_task,2020.1.3,Win32,60,-0.130555556,-0.307407407,1,0,0,1.249805,scale,,,,,,0.302267034,0.244948974,0.2468,0.2,stimuli/lakes/6070103_left.png,stimuli/lakes/6070103_right.png,,,,0,91,91,103,1,,,,,
,,,,,,$5f0e1d1b9289a50c450a6d93,2020-07-21_17h26.00.753,fisher_task,2020.1.3,Win32,60,0.131481481,-0.307407407,1,0,0,1.216385,scale,,,,,,0.2468,0.2,0.302267034,0.244948974,stimuli/lakes/404044_left.png,stimuli/lakes/404044_right.png,,,,0,92,92,44,1,,,,,
,,,,,,$5f0e1d1b9289a50c450a6d93,2020-07-21_17h26.00.753,fisher_task,2020.1.3,Win32,60,-0.112962963,-0.315740741,1,0,0,1.233205,scale,,,,,,0.302267034,0.244948974,0.2468,0.2,stimuli/lakes/606085_left.png,stimuli/lakes/606085_right.png,,,,0,93,93,85,1,,,,,
,,,,,,$5f0e1d1b9289a50c450a6d93,2020-07-21_17h26.00.753,fisher_task,2020.1.3,Win32,60,0.135185185,-0.309259259,1,0,0,1.74931,scale,,,,,,0.2468,0.2,0.302267034,0.244948974,stimuli/lakes/405064_left.png,stimuli/lakes/405064_right.png,,,,0,94,94,64,1,,,,,
,,,,,,$5f0e1d1b9289a50c450a6d93,2020-07-21_17h26.00.753,fisher_task,2020.1.3,Win32,60,-0.105555556,-0.277777778,1,0,0,1.783155,scale,,,,,,0.174513954,0.141421356,0.349027907,0.282842712,stimuli/lakes/207090_left.png,stimuli/lakes/207090_right.png,,,,0,95,95,90,1,,,,,
,,,,,,$5f0e1d1b9289a50c450a6d93,2020-07-21_17h26.00.753,fisher_task,2020.1.3,Win32,60,0.144444444,-0.312037037,1,0,0,1.48298,scale,,,,,,0.2468,0.2,0.302267034,0.244948974,stimuli/lakes/402014_left.png,stimuli/lakes/402014_right.png,,,,0,96,96,14,1,,,,,
,,,,,,$5f0e1d1b9289a50c450a6d93,2020-07-21_17h26.00.753,fisher_task,2020.1.3,Win32,60,-0.113888889,-0.283333333,1,0,0,2.349615,scale,,,,,,0.2468,0.2,0.302267034,0.244948974,stimuli/lakes/4070101_left.png,stimuli/lakes/4070101_right.png,,,,0,97,97,101,1,,,,,
,,,,,,$5f0e1d1b9289a50c450a6d93,2020-07-21_17h26.00.753,fisher_task,2020.1.3,Win32,60,0.151851852,-0.431481481,1,0,0,1.3498,scale,,,,,,0.275930788,0.223606798,0.275930788,0.223606798,stimuli/lakes/502016_left.png,stimuli/lakes/502016_right.png,,,,0,98,98,16,1,,,,,
,,,,,,$5f0e1d1b9289a50c450a6d93,2020-07-21_17h26.00.753,fisher_task,2020.1.3,Win32,60,-0.00462963,-0.237037037,1,0,0,2.28284,scale,,,,,,0.2468,0.2,0.302267034,0.244948974,stimuli/lakes/405063_left.png,stimuli/lakes/405063_right.png,,,,0,99,99,63,1,,,,,
,,,,,,$5f0e1d1b9289a50c450a6d93,2020-07-21_17h26.00.753,fisher_task,2020.1.3,Win32,60,-0.112962963,-0.264814815,1,0,0,3.016435,scale,,,,,,0.2468,0.2,0.302267034,0.244948974,stimuli/lakes/4090123_left.png,stimuli/lakes/4090123_right.png,,,,0,100,100,123,1,,,,,
,,,,,,$5f0e1d1b9289a50c450a6d93,2020-07-21_17h26.00.753,fisher_task,2020.1.3,Win32,60,0.144444444,-0.311111111,1,0,0,1.199775,scale,,,,,,0.21373507,0.173205081,0.326485712,0.264575131,stimuli/lakes/304043_left.png,stimuli/lakes/304043_right.png,,,,0,101,101,43,1,,,,,
,,,,,,$5f0e1d1b9289a50c450a6d93,2020-07-21_17h26.00.753,fisher_task,2020.1.3,Win32,60,-0.052777778,-0.271296296,1,0,0,1.34955,scale,,,,,,0.21373507,0.173205081,0.326485712,0.264575131,stimuli/lakes/307091_left.png,stimuli/lakes/307091_right.png,,,,0,102,102,91,1,,,,,
,,,,,,$5f0e1d1b9289a50c450a6d93,2020-07-21_17h26.00.753,fisher_task,2020.1.3,Win32,60,-0.155555556,-0.398148148,1,0,0,1.31642,scale,,,,,,0.349027907,0.282842712,0.174513954,0.141421356,stimuli/lakes/805069_left.png,stimuli/lakes/805069_right.png,,,,0,103,103,69,1,,,,,
,,,,,,$5f0e1d1b9289a50c450a6d93,2020-07-21_17h26.00.753,fisher_task,2020.1.3,Win32,60,0.155555556,-0.385185185,1,0,0,1.083035,scale,,,,,,0.1234,0.1,0.3702,0.3,stimuli/lakes/104050_left.png,stimuli/lakes/104050_right.png,,,,0,104,104,50,1,,,,,
,,,,,,$5f0e1d1b9289a50c450a6d93,2020-07-21_17h26.00.753,fisher_task,2020.1.3,Win32,60,0.076851852,-0.238888889,1,0,0,1.3165,scale,,,,,,0.349027907,0.282842712,0.174513954,0.141421356,stimuli/lakes/80109_left.png,stimuli/lakes/80109_right.png,,,,0,105,105,9,1,,,,,
,,,,,,$5f0e1d1b9289a50c450a6d93,2020-07-21_17h26.00.753,fisher_task,2020.1.3,Win32,60,0.042592593,-0.226851852,1,0,0,1.866445,scale,,,,,,0.326485712,0.264575131,0.21373507,0.173205081,stimuli/lakes/704047_left.png,stimuli/lakes/704047_right.png,,,,0,106,106,47,1,,,,,
,,,,,,$5f0e1d1b9289a50c450a6d93,2020-07-21_17h26.00.753,fisher_task,2020.1.3,Win32,60,-0.162962963,-0.428703704,1,0,0,1.23307,scale,,,,,,0.3702,0.3,0.1234,0.1,stimuli/lakes/907097_left.png,stimuli/lakes/907097_right.png,,,,0,107,107,97,1,,,,,
,,,,,,$5f0e1d1b9289a50c450a6d93,2020-07-21_17h26.00.753,fisher_task,2020.1.3,Win32,60,0.17037037,-0.427777778,1,0,0,1.333135,scale,,,,,,0.174513954,0.141421356,0.349027907,0.282842712,stimuli/lakes/202011_left.png,stimuli/lakes/202011_right.png,,,,0,108,108,11,1,,,,,
,,,,,,$5f0e1d1b9289a50c450a6d93,2020-07-21_17h26.00.753,fisher_task,2020.1.3,Win32,60,0.12037037,-0.273148148,1,0,0,1.68326,scale,,,,,,0.326485712,0.264575131,0.21373507,0.173205081,stimuli/lakes/70107_left.png,stimuli/lakes/70107_right.png,,,,0,109,109,7,1,,,,,
,,,,,,$5f0e1d1b9289a50c450a6d93,2020-07-21_17h26.00.753,fisher_task,2020.1.3,Win32,60,-0.153703704,-0.426851852,1,0,0,1.416255,scale,,,,,,0.275930788,0.223606798,0.275930788,0.223606798,stimuli/lakes/5090125_left.png,stimuli/lakes/5090125_right.png,,,space,0,110,110,125,1,1.7918,,,,
,,,,,,$5f0e1d1b9289a50c450a6d93,2020-07-21_17h26.00.753,fisher_task,2020.1.3,Win32,60,-0.087037037,-0.290740741,1,0,0,1.43314,scale,,,,,,0.1234,0.1,0.3702,0.3,stimuli/lakes/106071_left.png,stimuli/lakes/106071_right.png,,,,0,111,111,71,1,,,,,
,,,,,,$5f0e1d1b9289a50c450a6d93,2020-07-21_17h26.00.753,fisher_task,2020.1.3,Win32,60,0.141666667,-0.305555556,1,0,0,1.1497,scale,,,,,,0.1234,0.1,0.3702,0.3,stimuli/lakes/103032_left.png,stimuli/lakes/103032_right.png,,,,0,112,112,32,1,,,,,
,,,,,,$5f0e1d1b9289a50c450a6d93,2020-07-21_17h26.00.753,fisher_task,2020.1.3,Win32,60,0.141666667,-0.305555556,1,0,0,0.76643,scale,,,,,,0.21373507,0.173205081,0.326485712,0.264575131,stimuli/lakes/303025_left.png,stimuli/lakes/303025_right.png,,,,0,113,113,25,1,,,,,
,,,,,,$5f0e1d1b9289a50c450a6d93,2020-07-21_17h26.00.753,fisher_task,2020.1.3,Win32,60,-0.096296296,-0.290740741,1,0,0,1.149695,scale,,,,,,0.174513954,0.141421356,0.349027907,0.282842712,stimuli/lakes/206081_left.png,stimuli/lakes/206081_right.png,,,,0,114,114,81,1,,,,,
,,,,,,$5f0e1d1b9289a50c450a6d93,2020-07-21_17h26.00.753,fisher_task,2020.1.3,Win32,60,0.076851852,-0.251851852,1,0,0,1.599235,scale,,,,,,0.2468,0.2,0.302267034,0.244948974,stimuli/lakes/406074_left.png,stimuli/lakes/406074_right.png,,,,0,115,115,74,1,,,,,
,,,,,,$5f0e1d1b9289a50c450a6d93,2020-07-21_17h26.00.753,fisher_task,2020.1.3,Win32,60,-0.130555556,-0.308333333,1,0,0,1.96634,scale,,,,,,0.174513954,0.141421356,0.349027907,0.282842712,stimuli/lakes/2080108_left.png,stimuli/lakes/2080108_right.png,,,,0,116,116,108,1,,,,,
,,,,,,$5f0e1d1b9289a50c450a6d93,2020-07-21_17h26.00.753,fisher_task,2020.1.3,Win32,60,-0.1,-0.255555556,1,0,0,1.149695,scale,,,,,,0.21373507,0.173205081,0.326485712,0.264575131,stimuli/lakes/3080110_left.png,stimuli/lakes/3080110_right.png,,,,0,117,117,110,1,,,,,
,,,,,,$5f0e1d1b9289a50c450a6d93,2020-07-21_17h26.00.753,fisher_task,2020.1.3,Win32,60,-0.173148148,-0.373148148,1,0,0,1.64983,scale,,,,,,0.21373507,0.173205081,0.326485712,0.264575131,stimuli/lakes/3070100_left.png,stimuli/lakes/3070100_right.png,,,,0,118,118,100,1,,,,,
,,,,,,$5f0e1d1b9289a50c450a6d93,2020-07-21_17h26.00.753,fisher_task,2020.1.3,Win32,60,0.167592593,-0.433333333,1,0,0,1.599665,scale,,,,,,0.2468,0.2,0.302267034,0.244948974,stimuli/lakes/40103_left.png,stimuli/lakes/40103_right.png,,,,0,119,119,3,1,,,,,
,,,,,,$5f0e1d1b9289a50c450a6d93,2020-07-21_17h26.00.753,fisher_task,2020.1.3,Win32,60,0.151851852,-0.306481481,1,0,0,1.56656,scale,,,,,,0.2468,0.2,0.302267034,0.244948974,stimuli/lakes/402015_left.png,stimuli/lakes/402015_right.png,,,,0,120,120,15,1,,,,,
,,,,,,$5f0e1d1b9289a50c450a6d93,2020-07-21_17h26.00.753,fisher_task,2020.1.3,Win32,60,-0.131481481,-0.285185185,1,0,0,1.582965,scale,,,,,,0.302267034,0.244948974,0.2468,0.2,stimuli/lakes/605066_left.png,stimuli/lakes/605066_right.png,,,,0,121,121,66,1,,,,,
,,,,,,$5f0e1d1b9289a50c450a6d93,2020-07-21_17h26.00.753,fisher_task,2020.1.3,Win32,60,-0.171296296,-0.439814815,1,0,0,1.31645,scale,,,,,,0.302267034,0.244948974,0.2468,0.2,stimuli/lakes/6080115_left.png,stimuli/lakes/6080115_right.png,,,,0,122,122,115,1,,,,,
,,,,,,$5f0e1d1b9289a50c450a6d93,2020-07-21_17h26.00.753,fisher_task,2020.1.3,Win32,60,-0.017592593,-0.258333333,1,0,0,2.5664,scale,,,,,,0.275930788,0.223606798,0.275930788,0.223606798,stimuli/lakes/506075_left.png,stimuli/lakes/506075_right.png,,,,0,123,123,75,1,,,,,
,,,,,,$5f0e1d1b9289a50c450a6d93,2020-07-21_17h26.00.753,fisher_task,2020.1.3,Win32,60,0.183333333,-0.380555556,1,0,0,1.733005,scale,,,,,,0.302267034,0.244948974,0.2468,0.2,stimuli/lakes/60106_left.png,stimuli/lakes/60106_right.png,,,,0,124,124,6,1,,,,,
,,,,,,$5f0e1d1b9289a50c450a6d93,2020-07-21_17h26.00.753,fisher_task,2020.1.3,Win32,60,0.130555556,-0.281481481,1,0,0,1.433165,scale,,,,,,0.349027907,0.282842712,0.174513954,0.141421356,stimuli/lakes/803039_left.png,stimuli/lakes/803039_right.png,,,,0,125,125,39,1,,,,,
,,,,,,$5f0e1d1b9289a50c450a6d93,2020-07-21_17h26.00.753,fisher_task,2020.1.3,Win32,60,-0.15,-0.362037037,1,0,0,1.59968,scale,,,,,,0.275930788,0.223606798,0.275930788,0.223606798,stimuli/lakes/507093_left.png,stimuli/lakes/507093_right.png,,,,0,126,126,93,1,,,,,
,,,,,,$5f0e1d1b9289a50c450a6d93,2020-07-21_17h26.00.753,fisher_task,2020.1.3,Win32,60,-0.139814815,-0.337962963,1,0,0,1.149135,scale,,,,,,0.2468,0.2,0.302267034,0.244948974,stimuli/lakes/407092_left.png,stimuli/lakes/407092_right.png,,,,0,127,127,92,1,,,,,
,,,,,,$5f0e1d1b9289a50c450a6d93,2020-07-21_17h26.00.753,fisher_task,2020.1.3,Win32,60,0.091666667,-0.277777778,1,0,0,2.16615,scale,,,,,,0.349027907,0.282842712,0.174513954,0.141421356,stimuli/lakes/804057_left.png,stimuli/lakes/804057_right.png,,,,0,128,128,57,1,,,,,
,,,,,,$5f0e1d1b9289a50c450a6d93,2020-07-21_17h26.00.753,fisher_task,2020.1.3,Win32,60,-0.111111111,-0.272222222,1,0,0,1.81623,scale,,,,,,0.1234,0.1,0.3702,0.3,stimuli/lakes/1080107_left.png,stimuli/lakes/1080107_right.png,,,,0,129,129,107,1,,,,,
,,,,,,$5f0e1d1b9289a50c450a6d93,2020-07-21_17h26.00.753,fisher_task,2020.1.3,Win32,60,,,,,,,,,,,,,,,,,,,,,,,,,,,,space,6.215255,space,28.04602
