keySpace.keys,instructions.thisRepN,instructions.thisTrialN,instructions.thisN,instructions.thisIndex,instructions.ran,participant,date,expName,psychopyVersion,OS,frameRate,mouse.x,mouse.y,mouse.leftButton,mouse.midButton,mouse.rightButton,mouse.time,mouse.clicked_name,training.thisRepN,training.thisTrialN,training.thisN,training.thisIndex,training.ran,widthBasketLeft,heightBasketLeft,widthBasketRight,heightBasketRight,leftLake,rightLake,space2.keys,space2.rt,space1.keys,trials.thisRepN,trials.thisTrialN,trials.thisN,trials.thisIndex,trials.ran,space1.rt,finalSpace1.keys,finalSpace1.rt,finalSpace2.keys,finalSpace2.rt
,0,0,0,0,1,$5d2b08784588590018cf70bb,2020-07-21_16h34.47.106,fisher_task,2020.1.3,Win32,60,,,,,,,,,,,,,,,,,,,,,,,,,,,,,,,
,,,,,,$5d2b08784588590018cf70bb,2020-07-21_16h34.47.106,fisher_task,2020.1.3,Win32,60,0.171875,-0.360677083,1,0,0,4.87881,scale,0,0,0,0,1,0.275930788,0.223606798,0.275930788,0.223606798,stimuli/training/20_left.png,stimuli/training/20_right.png,,,,,,,,,,,,,
,,,,,,$5d2b08784588590018cf70bb,2020-07-21_16h34.47.106,fisher_task,2020.1.3,Win32,60,-0.123697917,-0.298177083,1,0,0,1.76061,scale,0,1,1,1,1,0.275930788,0.223606798,0.275930788,0.223606798,stimuli/training/80_left.png,stimuli/training/80_right.png,,,,,,,,,,,,,
,,,,,,$5d2b08784588590018cf70bb,2020-07-21_16h34.47.106,fisher_task,2020.1.3,Win32,60,0.138020833,-0.313802083,1,0,0,2.511975,scale,0,2,2,2,1,0.174513954,0.141421356,0.349027907,0.282842712,stimuli/training/50_left.png,stimuli/training/50_right.png,,,,,,,,,,,,,
,,,,,,$5d2b08784588590018cf70bb,2020-07-21_16h34.47.106,fisher_task,2020.1.3,Win32,60,-0.09765625,-0.283854167,1,0,0,7.772695,scale,0,3,3,3,1,0.349027907,0.282842712,0.174513954,0.141421356,stimuli/training/50_left.png,stimuli/training/50_right.png,,,,,,,,,,,,,
,,,,,,$5d2b08784588590018cf70bb,2020-07-21_16h34.47.106,fisher_task,2020.1.3,Win32,60,-0.0078125,-0.251302083,1,0,0,2.914045,scale,0,4,4,4,1,0.275930788,0.223606798,0.275930788,0.223606798,stimuli/training/50_left.png,stimuli/training/50_right.png,,,,,,,,,,,,,
,,,,,,$5d2b08784588590018cf70bb,2020-07-21_16h34.47.106,fisher_task,2020.1.3,Win32,60,0.170572917,-0.384114583,1,0,0,2.71227,scale,0,5,5,5,1,0.174513954,0.141421356,0.349027907,0.282842712,stimuli/training/20_left.png,stimuli/training/20_right.png,,,,,,,,,,,,,
,,,,,,$5d2b08784588590018cf70bb,2020-07-21_16h34.47.106,fisher_task,2020.1.3,Win32,60,-0.17578125,-0.412760417,1,0,0,3.1632,scale,0,6,6,6,1,0.349027907,0.282842712,0.174513954,0.141421356,stimuli/training/80_left.png,stimuli/training/80_right.png,,,,,,,,,,,,,
,,,,,,$5d2b08784588590018cf70bb,2020-07-21_16h34.47.106,fisher_task,2020.1.3,Win32,60,0.131510417,-0.359375,1,0,0,2.06321,scale,0,7,7,7,1,0.1234,0.1,0.3702,0.3,stimuli/training/30_left.png,stimuli/training/30_right.png,,,,,,,,,,,,,
,,,,,,$5d2b08784588590018cf70bb,2020-07-21_16h34.47.106,fisher_task,2020.1.3,Win32,60,-0.166666667,-0.38671875,1,0,0,1.830215,scale,0,8,8,8,1,0.3702,0.3,0.1234,0.1,stimuli/training/70_left.png,stimuli/training/70_right.png,,,,,,,,,,,,,
,,,,,,$5d2b08784588590018cf70bb,2020-07-21_16h34.47.106,fisher_task,2020.1.3,Win32,60,-0.177083333,-0.419270833,1,0,0,3.161515,scale,0,9,9,9,1,0.326485712,0.264575131,0.21373507,0.173205081,stimuli/training/90_left.png,stimuli/training/90_right.png,,,,,,,,,,,,,
,,,,,,$5d2b08784588590018cf70bb,2020-07-21_16h34.47.106,fisher_task,2020.1.3,Win32,60,0.171875,-0.411458333,1,0,0,2.430995,scale,0,10,10,10,1,0.21373507,0.173205081,0.326485712,0.264575131,stimuli/training/10_left.png,stimuli/training/10_right.png,,,,,,,,,,,,,
,,,,,,$5d2b08784588590018cf70bb,2020-07-21_16h34.47.106,fisher_task,2020.1.3,Win32,60,0.1015625,-0.302083333,1,0,0,2.647085,scale,,,,,,0.1234,0.1,0.3702,0.3,stimuli/lakes/105059_left.png,stimuli/lakes/105059_right.png,space,7.746955,,0,0,0,59,1,,,,,
,,,,,,$5d2b08784588590018cf70bb,2020-07-21_16h34.47.106,fisher_task,2020.1.3,Win32,60,-0.1328125,-0.322916667,1,0,0,2.96187,scale,,,,,,0.275930788,0.223606798,0.275930788,0.223606798,stimuli/lakes/507093_left.png,stimuli/lakes/507093_right.png,,,,0,1,1,93,1,,,,,
,,,,,,$5d2b08784588590018cf70bb,2020-07-21_16h34.47.106,fisher_task,2020.1.3,Win32,60,0.006510417,-0.265625,1,0,0,3.644995,scale,,,,,,0.21373507,0.173205081,0.326485712,0.264575131,stimuli/lakes/306082_left.png,stimuli/lakes/306082_right.png,,,,0,2,2,82,1,,,,,
,,,,,,$5d2b08784588590018cf70bb,2020-07-21_16h34.47.106,fisher_task,2020.1.3,Win32,60,-0.166666667,-0.391927083,1,0,0,2.22821,scale,,,,,,0.326485712,0.264575131,0.21373507,0.173205081,stimuli/lakes/7090129_left.png,stimuli/lakes/7090129_right.png,,,,0,3,3,129,1,,,,,
,,,,,,$5d2b08784588590018cf70bb,2020-07-21_16h34.47.106,fisher_task,2020.1.3,Win32,60,0.00390625,-0.263020833,1,0,0,4.57563,scale,,,,,,0.174513954,0.141421356,0.349027907,0.282842712,stimuli/lakes/206072_left.png,stimuli/lakes/206072_right.png,,,,0,4,4,72,1,,,,,
,,,,,,$5d2b08784588590018cf70bb,2020-07-21_16h34.47.106,fisher_task,2020.1.3,Win32,60,-0.130208333,-0.319010417,1,0,0,2.129155,scale,,,,,,0.2468,0.2,0.302267034,0.244948974,stimuli/lakes/4090124_left.png,stimuli/lakes/4090124_right.png,,,,0,5,5,124,1,,,,,
,,,,,,$5d2b08784588590018cf70bb,2020-07-21_16h34.47.106,fisher_task,2020.1.3,Win32,60,-0.154947917,-0.399739583,1,0,0,2.711135,scale,,,,,,0.3702,0.3,0.1234,0.1,stimuli/lakes/9070106_left.png,stimuli/lakes/9070106_right.png,,,,0,6,6,106,1,,,,,
,,,,,,$5d2b08784588590018cf70bb,2020-07-21_16h34.47.106,fisher_task,2020.1.3,Win32,60,0.049479167,-0.247395833,1,0,0,6.79203,scale,,,,,,0.326485712,0.264575131,0.21373507,0.173205081,stimuli/lakes/70107_left.png,stimuli/lakes/70107_right.png,,,,0,7,7,7,1,,,,,
,,,,,,$5d2b08784588590018cf70bb,2020-07-21_16h34.47.106,fisher_task,2020.1.3,Win32,60,-0.143229167,-0.36328125,1,0,0,1.9137,scale,,,,,,0.326485712,0.264575131,0.21373507,0.173205081,stimuli/lakes/7070104_left.png,stimuli/lakes/7070104_right.png,,,,0,8,8,104,1,,,,,
,,,,,,$5d2b08784588590018cf70bb,2020-07-21_16h34.47.106,fisher_task,2020.1.3,Win32,60,0.14453125,-0.375,1,0,0,1.77892,scale,,,,,,0.2468,0.2,0.302267034,0.244948974,stimuli/lakes/402015_left.png,stimuli/lakes/402015_right.png,,,,0,9,9,15,1,,,,,
,,,,,,$5d2b08784588590018cf70bb,2020-07-21_16h34.47.106,fisher_task,2020.1.3,Win32,60,-0.005208333,-0.2734375,1,0,0,3.145005,scale,,,,,,0.2468,0.2,0.302267034,0.244948974,stimuli/lakes/405063_left.png,stimuli/lakes/405063_right.png,,,,0,10,10,63,1,,,,,
,,,,,,$5d2b08784588590018cf70bb,2020-07-21_16h34.47.106,fisher_task,2020.1.3,Win32,60,0.143229167,-0.380208333,1,0,0,1.795495,scale,,,,,,0.174513954,0.141421356,0.349027907,0.282842712,stimuli/lakes/203033_left.png,stimuli/lakes/203033_right.png,,,,0,11,11,33,1,,,,,
,,,,,,$5d2b08784588590018cf70bb,2020-07-21_16h34.47.106,fisher_task,2020.1.3,Win32,60,-0.125,-0.3203125,1,0,0,2.01268,scale,,,,,,0.302267034,0.244948974,0.2468,0.2,stimuli/lakes/606085_left.png,stimuli/lakes/606085_right.png,,,,0,12,12,85,1,,,,,
,,,,,,$5d2b08784588590018cf70bb,2020-07-21_16h34.47.106,fisher_task,2020.1.3,Win32,60,-0.154947917,-0.358072917,1,0,0,1.73139,scale,,,,,,0.302267034,0.244948974,0.2468,0.2,stimuli/lakes/6090126_left.png,stimuli/lakes/6090126_right.png,,,,0,13,13,126,1,,,,,
,,,,,,$5d2b08784588590018cf70bb,2020-07-21_16h34.47.106,fisher_task,2020.1.3,Win32,60,-0.001302083,-0.259114583,1,0,0,3.179665,scale,,,,,,0.349027907,0.282842712,0.174513954,0.141421356,stimuli/lakes/804057_left.png,stimuli/lakes/804057_right.png,,,,0,14,14,57,1,,,,,
,,,,,,$5d2b08784588590018cf70bb,2020-07-21_16h34.47.106,fisher_task,2020.1.3,Win32,60,0.00390625,-0.264322917,1,0,0,1.81444,scale,,,,,,0.349027907,0.282842712,0.174513954,0.141421356,stimuli/lakes/803039_left.png,stimuli/lakes/803039_right.png,,,,0,15,15,39,1,,,,,
,,,,,,$5d2b08784588590018cf70bb,2020-07-21_16h34.47.106,fisher_task,2020.1.3,Win32,60,-0.0078125,-0.265625,1,0,0,2.545785,scale,,,,,,0.2468,0.2,0.302267034,0.244948974,stimuli/lakes/406083_left.png,stimuli/lakes/406083_right.png,,,,0,16,16,83,1,,,,,
,,,,,,$5d2b08784588590018cf70bb,2020-07-21_16h34.47.106,fisher_task,2020.1.3,Win32,60,-0.002604167,-0.2578125,1,0,0,2.313935,scale,,,,,,0.21373507,0.173205081,0.326485712,0.264575131,stimuli/lakes/306073_left.png,stimuli/lakes/306073_right.png,,,,0,17,17,73,1,,,,,
,,,,,,$5d2b08784588590018cf70bb,2020-07-21_16h34.47.106,fisher_task,2020.1.3,Win32,60,0.002604167,-0.2578125,1,0,0,2.53028,scale,,,,,,0.302267034,0.244948974,0.2468,0.2,stimuli/lakes/604055_left.png,stimuli/lakes/604055_right.png,,,,0,18,18,55,1,,,,,
,,,,,,$5d2b08784588590018cf70bb,2020-07-21_16h34.47.106,fisher_task,2020.1.3,Win32,60,-0.049479167,-0.274739583,1,0,0,2.629995,scale,,,,,,0.21373507,0.173205081,0.326485712,0.264575131,stimuli/lakes/3090121_left.png,stimuli/lakes/3090121_right.png,,,,0,19,19,121,1,,,,,
,,,,,,$5d2b08784588590018cf70bb,2020-07-21_16h34.47.106,fisher_task,2020.1.3,Win32,60,0.046875,-0.270833333,1,0,0,2.114185,scale,,,,,,0.326485712,0.264575131,0.21373507,0.173205081,stimuli/lakes/70108_left.png,stimuli/lakes/70108_right.png,,,,0,20,20,8,1,,,,,
,,,,,,$5d2b08784588590018cf70bb,2020-07-21_16h34.47.106,fisher_task,2020.1.3,Win32,60,0.09765625,-0.283854167,1,0,0,2.92911,scale,,,,,,0.174513954,0.141421356,0.349027907,0.282842712,stimuli/lakes/205060_left.png,stimuli/lakes/205060_right.png,,,,0,21,21,60,1,,,,,
,,,,,,$5d2b08784588590018cf70bb,2020-07-21_16h34.47.106,fisher_task,2020.1.3,Win32,60,-0.014322917,-0.247395833,1,0,0,2.26384,scale,,,,,,0.302267034,0.244948974,0.2468,0.2,stimuli/lakes/605065_left.png,stimuli/lakes/605065_right.png,,,space,0,22,22,65,1,3.673725,,,,
,,,,,,$5d2b08784588590018cf70bb,2020-07-21_16h34.47.106,fisher_task,2020.1.3,Win32,60,0.03125,-0.256510417,1,0,0,2.11324,scale,,,,,,0.349027907,0.282842712,0.174513954,0.141421356,stimuli/lakes/802021_left.png,stimuli/lakes/802021_right.png,,,,0,23,23,21,1,,,,,
,,,,,,$5d2b08784588590018cf70bb,2020-07-21_16h34.47.106,fisher_task,2020.1.3,Win32,60,0.088541667,-0.276041667,1,0,0,1.89651,scale,,,,,,0.275930788,0.223606798,0.275930788,0.223606798,stimuli/lakes/503036_left.png,stimuli/lakes/503036_right.png,,,,0,24,24,36,1,,,,,
,,,,,,$5d2b08784588590018cf70bb,2020-07-21_16h34.47.106,fisher_task,2020.1.3,Win32,60,0.153645833,-0.338541667,1,0,0,1.615205,scale,,,,,,0.21373507,0.173205081,0.326485712,0.264575131,stimuli/lakes/302012_left.png,stimuli/lakes/302012_right.png,,,,0,25,25,12,1,,,,,
,,,,,,$5d2b08784588590018cf70bb,2020-07-21_16h34.47.106,fisher_task,2020.1.3,Win32,60,-0.001302083,-0.252604167,1,0,0,2.94584,scale,,,,,,0.1234,0.1,0.3702,0.3,stimuli/lakes/107089_left.png,stimuli/lakes/107089_right.png,,,,0,26,26,89,1,,,,,
,,,,,,$5d2b08784588590018cf70bb,2020-07-21_16h34.47.106,fisher_task,2020.1.3,Win32,60,0.001302083,-0.251302083,1,0,0,2.1644,scale,,,,,,0.349027907,0.282842712,0.174513954,0.141421356,stimuli/lakes/804048_left.png,stimuli/lakes/804048_right.png,,,,0,27,27,48,1,,,,,
,,,,,,$5d2b08784588590018cf70bb,2020-07-21_16h34.47.106,fisher_task,2020.1.3,Win32,60,-0.075520833,-0.296875,1,0,0,1.7464,scale,,,,,,0.302267034,0.244948974,0.2468,0.2,stimuli/lakes/6090127_left.png,stimuli/lakes/6090127_right.png,,,,0,28,28,127,1,,,,,
,,,,,,$5d2b08784588590018cf70bb,2020-07-21_16h34.47.106,fisher_task,2020.1.3,Win32,60,-0.018229167,-0.265625,1,0,0,2.213855,scale,,,,,,0.21373507,0.173205081,0.326485712,0.264575131,stimuli/lakes/3080110_left.png,stimuli/lakes/3080110_right.png,,,,0,29,29,110,1,,,,,
,,,,,,$5d2b08784588590018cf70bb,2020-07-21_16h34.47.106,fisher_task,2020.1.3,Win32,60,-0.16796875,-0.37890625,1,0,0,1.779815,scale,,,,,,0.349027907,0.282842712,0.174513954,0.141421356,stimuli/lakes/8070105_left.png,stimuli/lakes/8070105_right.png,,,,0,30,30,105,1,,,,,
,,,,,,$5d2b08784588590018cf70bb,2020-07-21_16h34.47.106,fisher_task,2020.1.3,Win32,60,0.10546875,-0.283854167,1,0,0,1.54693,scale,,,,,,0.21373507,0.173205081,0.326485712,0.264575131,stimuli/lakes/304052_left.png,stimuli/lakes/304052_right.png,,,,0,31,31,52,1,,,,,
,,,,,,$5d2b08784588590018cf70bb,2020-07-21_16h34.47.106,fisher_task,2020.1.3,Win32,60,-0.001302083,-0.274739583,1,0,0,3.561065,scale,,,,,,0.3702,0.3,0.1234,0.1,stimuli/lakes/903040_left.png,stimuli/lakes/903040_right.png,,,,0,32,32,40,1,,,,,
,,,,,,$5d2b08784588590018cf70bb,2020-07-21_16h34.47.106,fisher_task,2020.1.3,Win32,60,-0.1015625,-0.279947917,1,0,0,1.66334,scale,,,,,,0.275930788,0.223606798,0.275930788,0.223606798,stimuli/lakes/5070102_left.png,stimuli/lakes/5070102_right.png,,,,0,33,33,102,1,,,,,
,,,,,,$5d2b08784588590018cf70bb,2020-07-21_16h34.47.106,fisher_task,2020.1.3,Win32,60,0.010416667,-0.26171875,1,0,0,3.477735,scale,,,,,,0.302267034,0.244948974,0.2468,0.2,stimuli/lakes/604046_left.png,stimuli/lakes/604046_right.png,,,,0,34,34,46,1,,,,,
,,,,,,$5d2b08784588590018cf70bb,2020-07-21_16h34.47.106,fisher_task,2020.1.3,Win32,60,0.063802083,-0.279947917,1,0,0,3.71221,scale,,,,,,0.275930788,0.223606798,0.275930788,0.223606798,stimuli/lakes/502016_left.png,stimuli/lakes/502016_right.png,,,,0,35,35,16,1,,,,,
,,,,,,$5d2b08784588590018cf70bb,2020-07-21_16h34.47.106,fisher_task,2020.1.3,Win32,60,-0.154947917,-0.381510417,1,0,0,1.814055,scale,,,,,,0.3702,0.3,0.1234,0.1,stimuli/lakes/906079_left.png,stimuli/lakes/906079_right.png,,,,0,36,36,79,1,,,,,
,,,,,,$5d2b08784588590018cf70bb,2020-07-21_16h34.47.106,fisher_task,2020.1.3,Win32,60,-0.002604167,-0.265625,1,0,0,2.064695,scale,,,,,,0.174513954,0.141421356,0.349027907,0.282842712,stimuli/lakes/207099_left.png,stimuli/lakes/207099_right.png,,,,0,37,37,99,1,,,,,
,,,,,,$5d2b08784588590018cf70bb,2020-07-21_16h34.47.106,fisher_task,2020.1.3,Win32,60,-0.087239583,-0.270833333,1,0,0,1.764575,scale,,,,,,0.275930788,0.223606798,0.275930788,0.223606798,stimuli/lakes/506075_left.png,stimuli/lakes/506075_right.png,,,,0,38,38,75,1,,,,,
,,,,,,$5d2b08784588590018cf70bb,2020-07-21_16h34.47.106,fisher_task,2020.1.3,Win32,60,-0.165364583,-0.385416667,1,0,0,1.631285,scale,,,,,,0.349027907,0.282842712,0.174513954,0.141421356,stimuli/lakes/8080118_left.png,stimuli/lakes/8080118_right.png,,,,0,39,39,118,1,,,,,
,,,,,,$5d2b08784588590018cf70bb,2020-07-21_16h34.47.106,fisher_task,2020.1.3,Win32,60,-0.005208333,-0.276041667,1,0,0,1.563895,scale,,,,,,0.21373507,0.173205081,0.326485712,0.264575131,stimuli/lakes/3090122_left.png,stimuli/lakes/3090122_right.png,,,,0,40,40,122,1,,,,,
,,,,,,$5d2b08784588590018cf70bb,2020-07-21_16h34.47.106,fisher_task,2020.1.3,Win32,60,-0.130208333,-0.3046875,1,0,0,2.877505,scale,,,,,,0.326485712,0.264575131,0.21373507,0.173205081,stimuli/lakes/707095_left.png,stimuli/lakes/707095_right.png,,,,0,41,41,95,1,,,,,
,,,,,,$5d2b08784588590018cf70bb,2020-07-21_16h34.47.106,fisher_task,2020.1.3,Win32,60,0.130208333,-0.34375,1,0,0,1.59767,scale,,,,,,0.21373507,0.173205081,0.326485712,0.264575131,stimuli/lakes/303025_left.png,stimuli/lakes/303025_right.png,,,,0,42,42,25,1,,,,,
,,,,,,$5d2b08784588590018cf70bb,2020-07-21_16h34.47.106,fisher_task,2020.1.3,Win32,60,0.114583333,-0.29296875,1,0,0,1.93037,scale,,,,,,0.2468,0.2,0.302267034,0.244948974,stimuli/lakes/404044_left.png,stimuli/lakes/404044_right.png,,,,0,43,43,44,1,,,,,
,,,,,,$5d2b08784588590018cf70bb,2020-07-21_16h34.47.106,fisher_task,2020.1.3,Win32,60,0.151041667,-0.37890625,1,0,0,1.33071,scale,,,,,,0.1234,0.1,0.3702,0.3,stimuli/lakes/103032_left.png,stimuli/lakes/103032_right.png,,,space,0,44,44,32,1,3.026665,,,,
,,,,,,$5d2b08784588590018cf70bb,2020-07-21_16h34.47.106,fisher_task,2020.1.3,Win32,60,-0.01171875,-0.24609375,1,0,0,1.7797,scale,,,,,,0.2468,0.2,0.302267034,0.244948974,stimuli/lakes/4080112_left.png,stimuli/lakes/4080112_right.png,,,,0,45,45,112,1,,,,,
,,,,,,$5d2b08784588590018cf70bb,2020-07-21_16h34.47.106,fisher_task,2020.1.3,Win32,60,0.06640625,-0.26953125,1,0,0,1.430235,scale,,,,,,0.275930788,0.223606798,0.275930788,0.223606798,stimuli/lakes/503027_left.png,stimuli/lakes/503027_right.png,,,,0,46,46,27,1,,,,,
,,,,,,$5d2b08784588590018cf70bb,2020-07-21_16h34.47.106,fisher_task,2020.1.3,Win32,60,-0.0703125,-0.283854167,1,0,0,1.430915,scale,,,,,,0.302267034,0.244948974,0.2468,0.2,stimuli/lakes/607094_left.png,stimuli/lakes/607094_right.png,,,,0,47,47,94,1,,,,,
,,,,,,$5d2b08784588590018cf70bb,2020-07-21_16h34.47.106,fisher_task,2020.1.3,Win32,60,0.098958333,-0.287760417,1,0,0,2.26409,scale,,,,,,0.1234,0.1,0.3702,0.3,stimuli/lakes/104050_left.png,stimuli/lakes/104050_right.png,,,,0,48,48,50,1,,,,,
,,,,,,$5d2b08784588590018cf70bb,2020-07-21_16h34.47.106,fisher_task,2020.1.3,Win32,60,0.006510417,-0.260416667,1,0,0,1.59894,scale,,,,,,0.2468,0.2,0.302267034,0.244948974,stimuli/lakes/4090123_left.png,stimuli/lakes/4090123_right.png,,,,0,49,49,123,1,,,,,
,,,,,,$5d2b08784588590018cf70bb,2020-07-21_16h34.47.106,fisher_task,2020.1.3,Win32,60,-0.018229167,-0.26171875,1,0,0,1.84657,scale,,,,,,0.21373507,0.173205081,0.326485712,0.264575131,stimuli/lakes/3070100_left.png,stimuli/lakes/3070100_right.png,,,,0,50,50,100,1,,,,,
,,,,,,$5d2b08784588590018cf70bb,2020-07-21_16h34.47.106,fisher_task,2020.1.3,Win32,60,0.078125,-0.2890625,1,0,0,1.36404,scale,,,,,,0.174513954,0.141421356,0.349027907,0.282842712,stimuli/lakes/203024_left.png,stimuli/lakes/203024_right.png,,,,0,51,51,24,1,,,,,
,,,,,,$5d2b08784588590018cf70bb,2020-07-21_16h34.47.106,fisher_task,2020.1.3,Win32,60,0.09765625,-0.3125,1,0,0,1.28054,scale,,,,,,0.21373507,0.173205081,0.326485712,0.264575131,stimuli/lakes/30100_left.png,stimuli/lakes/30100_right.png,,,,0,52,52,0,1,,,,,
,,,,,,$5d2b08784588590018cf70bb,2020-07-21_16h34.47.106,fisher_task,2020.1.3,Win32,60,0.095052083,-0.278645833,1,0,0,2.845575,scale,,,,,,0.21373507,0.173205081,0.326485712,0.264575131,stimuli/lakes/305061_left.png,stimuli/lakes/305061_right.png,,,,0,53,53,61,1,,,,,
,,,,,,$5d2b08784588590018cf70bb,2020-07-21_16h34.47.106,fisher_task,2020.1.3,Win32,60,-0.059895833,-0.272135417,1,0,0,1.43094,scale,,,,,,0.275930788,0.223606798,0.275930788,0.223606798,stimuli/lakes/5090125_left.png,stimuli/lakes/5090125_right.png,,,,0,54,54,125,1,,,,,
,,,,,,$5d2b08784588590018cf70bb,2020-07-21_16h34.47.106,fisher_task,2020.1.3,Win32,60,0.013020833,-0.259114583,1,0,0,1.92974,scale,,,,,,0.3702,0.3,0.1234,0.1,stimuli/lakes/903031_left.png,stimuli/lakes/903031_right.png,,,,0,55,55,31,1,,,,,
,,,,,,$5d2b08784588590018cf70bb,2020-07-21_16h34.47.106,fisher_task,2020.1.3,Win32,60,-0.140625,-0.360677083,1,0,0,1.382425,scale,,,,,,0.3702,0.3,0.1234,0.1,stimuli/lakes/907097_left.png,stimuli/lakes/907097_right.png,,,,0,56,56,97,1,,,,,
,,,,,,$5d2b08784588590018cf70bb,2020-07-21_16h34.47.106,fisher_task,2020.1.3,Win32,60,-0.143229167,-0.317708333,1,0,0,1.380425,scale,,,,,,0.302267034,0.244948974,0.2468,0.2,stimuli/lakes/606076_left.png,stimuli/lakes/606076_right.png,,,,0,57,57,76,1,,,,,
,,,,,,$5d2b08784588590018cf70bb,2020-07-21_16h34.47.106,fisher_task,2020.1.3,Win32,60,0.006510417,-0.240885417,1,0,0,1.74607,scale,,,,,,0.326485712,0.264575131,0.21373507,0.173205081,stimuli/lakes/703029_left.png,stimuli/lakes/703029_right.png,,,,0,58,58,29,1,,,,,
,,,,,,$5d2b08784588590018cf70bb,2020-07-21_16h34.47.106,fisher_task,2020.1.3,Win32,60,0.15234375,-0.345052083,1,0,0,1.54754,scale,,,,,,0.174513954,0.141421356,0.349027907,0.282842712,stimuli/lakes/202011_left.png,stimuli/lakes/202011_right.png,,,,0,59,59,11,1,,,,,
,,,,,,$5d2b08784588590018cf70bb,2020-07-21_16h34.47.106,fisher_task,2020.1.3,Win32,60,-0.032552083,-0.248697917,1,0,0,1.98083,scale,,,,,,0.275930788,0.223606798,0.275930788,0.223606798,stimuli/lakes/506084_left.png,stimuli/lakes/506084_right.png,,,,0,60,60,84,1,,,,,
,,,,,,$5d2b08784588590018cf70bb,2020-07-21_16h34.47.106,fisher_task,2020.1.3,Win32,60,0.002604167,-0.240885417,1,0,0,1.764235,scale,,,,,,0.3702,0.3,0.1234,0.1,stimuli/lakes/902022_left.png,stimuli/lakes/902022_right.png,,,,0,61,61,22,1,,,,,
,,,,,,$5d2b08784588590018cf70bb,2020-07-21_16h34.47.106,fisher_task,2020.1.3,Win32,60,0.087239583,-0.291666667,1,0,0,1.597925,scale,,,,,,0.174513954,0.141421356,0.349027907,0.282842712,stimuli/lakes/204051_left.png,stimuli/lakes/204051_right.png,,,,0,62,62,51,1,,,,,
,,,,,,$5d2b08784588590018cf70bb,2020-07-21_16h34.47.106,fisher_task,2020.1.3,Win32,60,0.005208333,-0.256510417,1,0,0,2.02881,scale,,,,,,0.1234,0.1,0.3702,0.3,stimuli/lakes/107098_left.png,stimuli/lakes/107098_right.png,,,,0,63,63,98,1,,,,,
,,,,,,$5d2b08784588590018cf70bb,2020-07-21_16h34.47.106,fisher_task,2020.1.3,Win32,60,0.03515625,-0.252604167,1,0,0,3.028605,scale,,,,,,0.275930788,0.223606798,0.275930788,0.223606798,stimuli/lakes/504054_left.png,stimuli/lakes/504054_right.png,,,,0,64,64,54,1,,,,,
,,,,,,$5d2b08784588590018cf70bb,2020-07-21_16h34.47.106,fisher_task,2020.1.3,Win32,60,-0.05859375,-0.247395833,1,0,0,2.612015,scale,,,,,,0.349027907,0.282842712,0.174513954,0.141421356,stimuli/lakes/805069_left.png,stimuli/lakes/805069_right.png,,,,0,65,65,69,1,,,,,
,,,,,,$5d2b08784588590018cf70bb,2020-07-21_16h34.47.106,fisher_task,2020.1.3,Win32,60,0.006510417,-0.259114583,1,0,0,4.16104,scale,,,,,,0.349027907,0.282842712,0.174513954,0.141421356,stimuli/lakes/80109_left.png,stimuli/lakes/80109_right.png,,,space,0,66,66,9,1,2.47378,,,,
,,,,,,$5d2b08784588590018cf70bb,2020-07-21_16h34.47.106,fisher_task,2020.1.3,Win32,60,0,-0.256510417,1,0,0,2.911755,scale,,,,,,0.326485712,0.264575131,0.21373507,0.173205081,stimuli/lakes/705067_left.png,stimuli/lakes/705067_right.png,,,,0,67,67,67,1,,,,,
,,,,,,$5d2b08784588590018cf70bb,2020-07-21_16h34.47.106,fisher_task,2020.1.3,Win32,60,0,-0.263020833,1,0,0,1.99898,scale,,,,,,0.174513954,0.141421356,0.349027907,0.282842712,stimuli/lakes/2080108_left.png,stimuli/lakes/2080108_right.png,,,,0,68,68,108,1,,,,,
,,,,,,$5d2b08784588590018cf70bb,2020-07-21_16h34.47.106,fisher_task,2020.1.3,Win32,60,-0.03515625,-0.2734375,1,0,0,2.04687,scale,,,,,,0.326485712,0.264575131,0.21373507,0.173205081,stimuli/lakes/706077_left.png,stimuli/lakes/706077_right.png,,,,0,69,69,77,1,,,,,
,,,,,,$5d2b08784588590018cf70bb,2020-07-21_16h34.47.106,fisher_task,2020.1.3,Win32,60,0.061197917,-0.28515625,1,0,0,1.413525,scale,,,,,,0.1234,0.1,0.3702,0.3,stimuli/lakes/103023_left.png,stimuli/lakes/103023_right.png,,,,0,70,70,23,1,,,,,
,,,,,,$5d2b08784588590018cf70bb,2020-07-21_16h34.47.106,fisher_task,2020.1.3,Win32,60,-0.009114583,-0.276041667,1,0,0,2.760945,scale,,,,,,0.1234,0.1,0.3702,0.3,stimuli/lakes/1090119_left.png,stimuli/lakes/1090119_right.png,,,,0,71,71,119,1,,,,,
,,,,,,$5d2b08784588590018cf70bb,2020-07-21_16h34.47.106,fisher_task,2020.1.3,Win32,60,-0.00390625,-0.274739583,1,0,0,2.66494,scale,,,,,,0.2468,0.2,0.302267034,0.244948974,stimuli/lakes/405064_left.png,stimuli/lakes/405064_right.png,,,,0,72,72,64,1,,,,,
,,,,,,$5d2b08784588590018cf70bb,2020-07-21_16h34.47.106,fisher_task,2020.1.3,Win32,60,-0.002604167,-0.260416667,1,0,0,1.861425,scale,,,,,,0.174513954,0.141421356,0.349027907,0.282842712,stimuli/lakes/2090120_left.png,stimuli/lakes/2090120_right.png,,,,0,73,73,120,1,,,,,
,,,,,,$5d2b08784588590018cf70bb,2020-07-21_16h34.47.106,fisher_task,2020.1.3,Win32,60,-0.154947917,-0.369791667,1,0,0,1.263555,scale,,,,,,0.326485712,0.264575131,0.21373507,0.173205081,stimuli/lakes/7080117_left.png,stimuli/lakes/7080117_right.png,,,,0,74,74,117,1,,,,,
,,,,,,$5d2b08784588590018cf70bb,2020-07-21_16h34.47.106,fisher_task,2020.1.3,Win32,60,-0.140625,-0.325520833,1,0,0,1.578425,scale,,,,,,0.3702,0.3,0.1234,0.1,stimuli/lakes/906088_left.png,stimuli/lakes/906088_right.png,,,,0,75,75,88,1,,,,,
,,,,,,$5d2b08784588590018cf70bb,2020-07-21_16h34.47.106,fisher_task,2020.1.3,Win32,60,-0.002604167,-0.247395833,1,0,0,1.69665,scale,,,,,,0.21373507,0.173205081,0.326485712,0.264575131,stimuli/lakes/307091_left.png,stimuli/lakes/307091_right.png,,,,0,76,76,91,1,,,,,
,,,,,,$5d2b08784588590018cf70bb,2020-07-21_16h34.47.106,fisher_task,2020.1.3,Win32,60,-0.104166667,-0.31640625,1,0,0,1.23232,scale,,,,,,0.349027907,0.282842712,0.174513954,0.141421356,stimuli/lakes/806087_left.png,stimuli/lakes/806087_right.png,,,,0,77,77,87,1,,,,,
,,,,,,$5d2b08784588590018cf70bb,2020-07-21_16h34.47.106,fisher_task,2020.1.3,Win32,60,-0.110677083,-0.290364583,1,0,0,1.530645,scale,,,,,,0.302267034,0.244948974,0.2468,0.2,stimuli/lakes/6080114_left.png,stimuli/lakes/6080114_right.png,,,,0,78,78,114,1,,,,,
,,,,,,$5d2b08784588590018cf70bb,2020-07-21_16h34.47.106,fisher_task,2020.1.3,Win32,60,0.065104167,-0.287760417,1,0,0,1.879625,scale,,,,,,0.275930788,0.223606798,0.275930788,0.223606798,stimuli/lakes/50104_left.png,stimuli/lakes/50104_right.png,,,,0,79,79,4,1,,,,,
,,,,,,$5d2b08784588590018cf70bb,2020-07-21_16h34.47.106,fisher_task,2020.1.3,Win32,60,-0.002604167,-0.251302083,1,0,0,2.029195,scale,,,,,,0.302267034,0.244948974,0.2468,0.2,stimuli/lakes/60106_left.png,stimuli/lakes/60106_right.png,,,,0,80,80,6,1,,,,,
,,,,,,$5d2b08784588590018cf70bb,2020-07-21_16h34.47.106,fisher_task,2020.1.3,Win32,60,0.130208333,-0.313802083,1,0,0,1.297885,scale,,,,,,0.21373507,0.173205081,0.326485712,0.264575131,stimuli/lakes/30101_left.png,stimuli/lakes/30101_right.png,,,,0,81,81,1,1,,,,,
,,,,,,$5d2b08784588590018cf70bb,2020-07-21_16h34.47.106,fisher_task,2020.1.3,Win32,60,0.001302083,-0.252604167,1,0,0,3.57819,scale,,,,,,0.302267034,0.244948974,0.2468,0.2,stimuli/lakes/603028_left.png,stimuli/lakes/603028_right.png,,,,0,82,82,28,1,,,,,
,,,,,,$5d2b08784588590018cf70bb,2020-07-21_16h34.47.106,fisher_task,2020.1.3,Win32,60,0.002604167,-0.2734375,1,0,0,1.62965,scale,,,,,,0.302267034,0.244948974,0.2468,0.2,stimuli/lakes/603037_left.png,stimuli/lakes/603037_right.png,,,,0,83,83,37,1,,,,,
,,,,,,$5d2b08784588590018cf70bb,2020-07-21_16h34.47.106,fisher_task,2020.1.3,Win32,60,-0.0546875,-0.263020833,1,0,0,1.862445,scale,,,,,,0.326485712,0.264575131,0.21373507,0.173205081,stimuli/lakes/706086_left.png,stimuli/lakes/706086_right.png,,,,0,84,84,86,1,,,,,
,,,,,,$5d2b08784588590018cf70bb,2020-07-21_16h34.47.106,fisher_task,2020.1.3,Win32,60,-0.009114583,-0.25390625,1,0,0,1.53053,scale,,,,,,0.3702,0.3,0.1234,0.1,stimuli/lakes/904049_left.png,stimuli/lakes/904049_right.png,,,,0,85,85,49,1,,,,,
,,,,,,$5d2b08784588590018cf70bb,2020-07-21_16h34.47.106,fisher_task,2020.1.3,Win32,60,-0.001302083,-0.239583333,1,0,0,2.1956,scale,,,,,,0.1234,0.1,0.3702,0.3,stimuli/lakes/1080107_left.png,stimuli/lakes/1080107_right.png,,,,0,86,86,107,1,,,,,
,,,,,,$5d2b08784588590018cf70bb,2020-07-21_16h34.47.106,fisher_task,2020.1.3,Win32,60,0.078125,-0.274739583,1,0,0,1.448725,scale,,,,,,0.21373507,0.173205081,0.326485712,0.264575131,stimuli/lakes/302013_left.png,stimuli/lakes/302013_right.png,,,,0,87,87,13,1,,,,,
,,,,,,$5d2b08784588590018cf70bb,2020-07-21_16h34.47.106,fisher_task,2020.1.3,Win32,60,0.001302083,-0.247395833,1,0,0,1.948325,scale,,,,,,0.326485712,0.264575131,0.21373507,0.173205081,stimuli/lakes/704056_left.png,stimuli/lakes/704056_right.png,,,space,0,88,88,56,1,2.29025,,,,
,,,,,,$5d2b08784588590018cf70bb,2020-07-21_16h34.47.106,fisher_task,2020.1.3,Win32,60,-0.001302083,-0.247395833,1,0,0,0.94662,scale,,,,,,0.326485712,0.264575131,0.21373507,0.173205081,stimuli/lakes/704047_left.png,stimuli/lakes/704047_right.png,,,,0,89,89,47,1,,,,,
,,,,,,$5d2b08784588590018cf70bb,2020-07-21_16h34.47.106,fisher_task,2020.1.3,Win32,60,-0.001302083,-0.247395833,1,0,0,1.87867,scale,,,,,,0.2468,0.2,0.302267034,0.244948974,stimuli/lakes/4080111_left.png,stimuli/lakes/4080111_right.png,,,,0,90,90,111,1,,,,,
,,,,,,$5d2b08784588590018cf70bb,2020-07-21_16h34.47.106,fisher_task,2020.1.3,Win32,60,-0.001302083,-0.247395833,1,0,0,0.9953,scale,,,,,,0.174513954,0.141421356,0.349027907,0.282842712,stimuli/lakes/207090_left.png,stimuli/lakes/207090_right.png,,,,0,91,91,90,1,,,,,
,,,,,,$5d2b08784588590018cf70bb,2020-07-21_16h34.47.106,fisher_task,2020.1.3,Win32,60,-0.001302083,-0.247395833,1,0,0,3.329155,scale,,,,,,0.1234,0.1,0.3702,0.3,stimuli/lakes/106071_left.png,stimuli/lakes/106071_right.png,,,,0,92,92,71,1,,,,,
,,,,,,$5d2b08784588590018cf70bb,2020-07-21_16h34.47.106,fisher_task,2020.1.3,Win32,60,-0.001302083,-0.247395833,1,0,0,1.34615,scale,,,,,,0.326485712,0.264575131,0.21373507,0.173205081,stimuli/lakes/702019_left.png,stimuli/lakes/702019_right.png,,,,0,93,93,19,1,,,,,
,,,,,,$5d2b08784588590018cf70bb,2020-07-21_16h34.47.106,fisher_task,2020.1.3,Win32,60,-0.001302083,-0.247395833,1,0,0,1.113595,scale,,,,,,0.2468,0.2,0.302267034,0.244948974,stimuli/lakes/402014_left.png,stimuli/lakes/402014_right.png,,,,0,94,94,14,1,,,,,
,,,,,,$5d2b08784588590018cf70bb,2020-07-21_16h34.47.106,fisher_task,2020.1.3,Win32,60,-0.032552083,-0.24609375,1,0,0,2.49331,scale,,,,,,0.3702,0.3,0.1234,0.1,stimuli/lakes/904058_left.png,stimuli/lakes/904058_right.png,,,,0,95,95,58,1,,,,,
,,,,,,$5d2b08784588590018cf70bb,2020-07-21_16h34.47.106,fisher_task,2020.1.3,Win32,60,-0.0078125,-0.24609375,1,0,0,3.71225,scale,,,,,,0.174513954,0.141421356,0.349027907,0.282842712,stimuli/lakes/206081_left.png,stimuli/lakes/206081_right.png,,,,0,96,96,81,1,,,,,
,,,,,,$5d2b08784588590018cf70bb,2020-07-21_16h34.47.106,fisher_task,2020.1.3,Win32,60,0.078125,-0.255208333,1,0,0,2.030525,scale,,,,,,0.2468,0.2,0.302267034,0.244948974,stimuli/lakes/403035_left.png,stimuli/lakes/403035_right.png,,,,0,97,97,35,1,,,,,
,,,,,,$5d2b08784588590018cf70bb,2020-07-21_16h34.47.106,fisher_task,2020.1.3,Win32,60,0.071614583,-0.2734375,1,0,0,1.43051,scale,,,,,,0.2468,0.2,0.302267034,0.244948974,stimuli/lakes/40103_left.png,stimuli/lakes/40103_right.png,,,,0,98,98,3,1,,,,,
,,,,,,$5d2b08784588590018cf70bb,2020-07-21_16h34.47.106,fisher_task,2020.1.3,Win32,60,-0.07421875,-0.272135417,1,0,0,1.48099,scale,,,,,,0.326485712,0.264575131,0.21373507,0.173205081,stimuli/lakes/705068_left.png,stimuli/lakes/705068_right.png,,,,0,99,99,68,1,,,,,
,,,,,,$5d2b08784588590018cf70bb,2020-07-21_16h34.47.106,fisher_task,2020.1.3,Win32,60,-0.108072917,-0.311197917,1,0,0,1.463385,scale,,,,,,0.326485712,0.264575131,0.21373507,0.173205081,stimuli/lakes/7090128_left.png,stimuli/lakes/7090128_right.png,,,,0,100,100,128,1,,,,,
,,,,,,$5d2b08784588590018cf70bb,2020-07-21_16h34.47.106,fisher_task,2020.1.3,Win32,60,0.122395833,-0.290364583,1,0,0,1.847905,scale,,,,,,0.1234,0.1,0.3702,0.3,stimuli/lakes/104041_left.png,stimuli/lakes/104041_right.png,,,,0,101,101,41,1,,,,,
,,,,,,$5d2b08784588590018cf70bb,2020-07-21_16h34.47.106,fisher_task,2020.1.3,Win32,60,0.002604167,-0.2734375,1,0,0,1.7984,scale,,,,,,0.3702,0.3,0.1234,0.1,stimuli/lakes/901010_left.png,stimuli/lakes/901010_right.png,,,,0,102,102,10,1,,,,,
,,,,,,$5d2b08784588590018cf70bb,2020-07-21_16h34.47.106,fisher_task,2020.1.3,Win32,60,0.111979167,-0.290364583,1,0,0,1.66316,scale,,,,,,0.2468,0.2,0.302267034,0.244948974,stimuli/lakes/403026_left.png,stimuli/lakes/403026_right.png,,,,0,103,103,26,1,,,,,
,,,,,,$5d2b08784588590018cf70bb,2020-07-21_16h34.47.106,fisher_task,2020.1.3,Win32,60,0.001302083,-0.25390625,1,0,0,1.74469,scale,,,,,,0.2468,0.2,0.302267034,0.244948974,stimuli/lakes/4070101_left.png,stimuli/lakes/4070101_right.png,,,,0,104,104,101,1,,,,,
,,,,,,$5d2b08784588590018cf70bb,2020-07-21_16h34.47.106,fisher_task,2020.1.3,Win32,60,-0.049479167,-0.278645833,1,0,0,1.48133,scale,,,,,,0.302267034,0.244948974,0.2468,0.2,stimuli/lakes/605066_left.png,stimuli/lakes/605066_right.png,,,,0,105,105,66,1,,,,,
,,,,,,$5d2b08784588590018cf70bb,2020-07-21_16h34.47.106,fisher_task,2020.1.3,Win32,60,0.065104167,-0.279947917,1,0,0,1.77997,scale,,,,,,0.2468,0.2,0.302267034,0.244948974,stimuli/lakes/406074_left.png,stimuli/lakes/406074_right.png,,,,0,106,106,74,1,,,,,
,,,,,,$5d2b08784588590018cf70bb,2020-07-21_16h34.47.106,fisher_task,2020.1.3,Win32,60,0,-0.263020833,1,0,0,2.43018,scale,,,,,,0.1234,0.1,0.3702,0.3,stimuli/lakes/106080_left.png,stimuli/lakes/106080_right.png,,,,0,107,107,80,1,,,,,
,,,,,,$5d2b08784588590018cf70bb,2020-07-21_16h34.47.106,fisher_task,2020.1.3,Win32,60,-0.041666667,-0.26953125,1,0,0,2.079505,scale,,,,,,0.302267034,0.244948974,0.2468,0.2,stimuli/lakes/6080115_left.png,stimuli/lakes/6080115_right.png,,,,0,108,108,115,1,,,,,
,,,,,,$5d2b08784588590018cf70bb,2020-07-21_16h34.47.106,fisher_task,2020.1.3,Win32,60,0.036458333,-0.2734375,1,0,0,6.058365,scale,,,,,,0.2468,0.2,0.302267034,0.244948974,stimuli/lakes/404053_left.png,stimuli/lakes/404053_right.png,,,,0,109,109,53,1,,,,,
,,,,,,$5d2b08784588590018cf70bb,2020-07-21_16h34.47.106,fisher_task,2020.1.3,Win32,60,-0.006510417,-0.259114583,1,0,0,3.71091,scale,,,,,,0.326485712,0.264575131,0.21373507,0.173205081,stimuli/lakes/703038_left.png,stimuli/lakes/703038_right.png,,,space,0,110,110,38,1,1.59355,,,,
,,,,,,$5d2b08784588590018cf70bb,2020-07-21_16h34.47.106,fisher_task,2020.1.3,Win32,60,-0.080729167,-0.25,1,0,0,1.715065,scale,,,,,,0.275930788,0.223606798,0.275930788,0.223606798,stimuli/lakes/5080113_left.png,stimuli/lakes/5080113_right.png,,,,0,111,111,113,1,,,,,
,,,,,,$5d2b08784588590018cf70bb,2020-07-21_16h34.47.106,fisher_task,2020.1.3,Win32,60,0,-0.255208333,1,0,0,2.562075,scale,,,,,,0.326485712,0.264575131,0.21373507,0.173205081,stimuli/lakes/702020_left.png,stimuli/lakes/702020_right.png,,,,0,112,112,20,1,,,,,
,,,,,,$5d2b08784588590018cf70bb,2020-07-21_16h34.47.106,fisher_task,2020.1.3,Win32,60,0.07421875,-0.272135417,1,0,0,1.31537,scale,,,,,,0.21373507,0.173205081,0.326485712,0.264575131,stimuli/lakes/304043_left.png,stimuli/lakes/304043_right.png,,,,0,113,113,43,1,,,,,
,,,,,,$5d2b08784588590018cf70bb,2020-07-21_16h34.47.106,fisher_task,2020.1.3,Win32,60,0.05078125,-0.276041667,1,0,0,1.19802,scale,,,,,,0.174513954,0.141421356,0.349027907,0.282842712,stimuli/lakes/204042_left.png,stimuli/lakes/204042_right.png,,,,0,114,114,42,1,,,,,
,,,,,,$5d2b08784588590018cf70bb,2020-07-21_16h34.47.106,fisher_task,2020.1.3,Win32,60,0.092447917,-0.28125,1,0,0,1.41344,scale,,,,,,0.2468,0.2,0.302267034,0.244948974,stimuli/lakes/40102_left.png,stimuli/lakes/40102_right.png,,,,0,115,115,2,1,,,,,
,,,,,,$5d2b08784588590018cf70bb,2020-07-21_16h34.47.106,fisher_task,2020.1.3,Win32,60,-0.14453125,-0.3203125,1,0,0,1.265115,scale,,,,,,0.326485712,0.264575131,0.21373507,0.173205081,stimuli/lakes/7080116_left.png,stimuli/lakes/7080116_right.png,,,,0,116,116,116,1,,,,,
,,,,,,$5d2b08784588590018cf70bb,2020-07-21_16h34.47.106,fisher_task,2020.1.3,Win32,60,0.118489583,-0.30859375,1,0,0,1.36519,scale,,,,,,0.21373507,0.173205081,0.326485712,0.264575131,stimuli/lakes/303034_left.png,stimuli/lakes/303034_right.png,,,,0,117,117,34,1,,,,,
,,,,,,$5d2b08784588590018cf70bb,2020-07-21_16h34.47.106,fisher_task,2020.1.3,Win32,60,0.002604167,-0.244791667,1,0,0,1.413895,scale,,,,,,0.349027907,0.282842712,0.174513954,0.141421356,stimuli/lakes/803030_left.png,stimuli/lakes/803030_right.png,,,,0,118,118,30,1,,,,,
,,,,,,$5d2b08784588590018cf70bb,2020-07-21_16h34.47.106,fisher_task,2020.1.3,Win32,60,-0.0078125,-0.26171875,1,0,0,1.24859,scale,,,,,,0.2468,0.2,0.302267034,0.244948974,stimuli/lakes/407092_left.png,stimuli/lakes/407092_right.png,,,,0,119,119,92,1,,,,,
,,,,,,$5d2b08784588590018cf70bb,2020-07-21_16h34.47.106,fisher_task,2020.1.3,Win32,60,-0.127604167,-0.311197917,1,0,0,2.0308,scale,,,,,,0.349027907,0.282842712,0.174513954,0.141421356,stimuli/lakes/807096_left.png,stimuli/lakes/807096_right.png,,,,0,120,120,96,1,,,,,
,,,,,,$5d2b08784588590018cf70bb,2020-07-21_16h34.47.106,fisher_task,2020.1.3,Win32,60,-0.010416667,-0.247395833,1,0,0,3.22579,scale,,,,,,0.302267034,0.244948974,0.2468,0.2,stimuli/lakes/602018_left.png,stimuli/lakes/602018_right.png,,,,0,121,121,18,1,,,,,
,,,,,,$5d2b08784588590018cf70bb,2020-07-21_16h34.47.106,fisher_task,2020.1.3,Win32,60,0.037760417,-0.252604167,1,0,0,2.06013,scale,,,,,,0.21373507,0.173205081,0.326485712,0.264575131,stimuli/lakes/305062_left.png,stimuli/lakes/305062_right.png,,,,0,122,122,62,1,,,,,
,,,,,,$5d2b08784588590018cf70bb,2020-07-21_16h34.47.106,fisher_task,2020.1.3,Win32,60,-0.001302083,-0.259114583,1,0,0,1.863705,scale,,,,,,0.302267034,0.244948974,0.2468,0.2,stimuli/lakes/60105_left.png,stimuli/lakes/60105_right.png,,,,0,123,123,5,1,,,,,
,,,,,,$5d2b08784588590018cf70bb,2020-07-21_16h34.47.106,fisher_task,2020.1.3,Win32,60,-0.111979167,-0.309895833,1,0,0,1.5303,scale,,,,,,0.302267034,0.244948974,0.2468,0.2,stimuli/lakes/6070103_left.png,stimuli/lakes/6070103_right.png,,,,0,124,124,103,1,,,,,
,,,,,,$5d2b08784588590018cf70bb,2020-07-21_16h34.47.106,fisher_task,2020.1.3,Win32,60,-0.104166667,-0.296875,1,0,0,1.564815,scale,,,,,,0.3702,0.3,0.1234,0.1,stimuli/lakes/905070_left.png,stimuli/lakes/905070_right.png,,,,0,125,125,70,1,,,,,
,,,,,,$5d2b08784588590018cf70bb,2020-07-21_16h34.47.106,fisher_task,2020.1.3,Win32,60,-0.09375,-0.28515625,1,0,0,1.297375,scale,,,,,,0.349027907,0.282842712,0.174513954,0.141421356,stimuli/lakes/806078_left.png,stimuli/lakes/806078_right.png,,,,0,126,126,78,1,,,,,
,,,,,,$5d2b08784588590018cf70bb,2020-07-21_16h34.47.106,fisher_task,2020.1.3,Win32,60,0.036458333,-0.256510417,1,0,0,1.79703,scale,,,,,,0.275930788,0.223606798,0.275930788,0.223606798,stimuli/lakes/504045_left.png,stimuli/lakes/504045_right.png,,,,0,127,127,45,1,,,,,
,,,,,,$5d2b08784588590018cf70bb,2020-07-21_16h34.47.106,fisher_task,2020.1.3,Win32,60,-0.001302083,-0.28125,1,0,0,1.298465,scale,,,,,,0.21373507,0.173205081,0.326485712,0.264575131,stimuli/lakes/3080109_left.png,stimuli/lakes/3080109_right.png,,,,0,128,128,109,1,,,,,
,,,,,,$5d2b08784588590018cf70bb,2020-07-21_16h34.47.106,fisher_task,2020.1.3,Win32,60,-0.002604167,-0.28125,1,0,0,1.13073,scale,,,,,,0.302267034,0.244948974,0.2468,0.2,stimuli/lakes/602017_left.png,stimuli/lakes/602017_right.png,,,,0,129,129,17,1,,,,,
,,,,,,$5d2b08784588590018cf70bb,2020-07-21_16h34.47.106,fisher_task,2020.1.3,Win32,60,,,,,,,,,,,,,,,,,,,,,,,,,,,,space,7.95296,space,86.337125
