keySpace.keys,instructions.thisRepN,instructions.thisTrialN,instructions.thisN,instructions.thisIndex,instructions.ran,participant,date,expName,psychopyVersion,OS,frameRate,mouse.x,mouse.y,mouse.leftButton,mouse.midButton,mouse.rightButton,mouse.time,mouse.clicked_name,training.thisRepN,training.thisTrialN,training.thisN,training.thisIndex,training.ran,widthBasketLeft,heightBasketLeft,widthBasketRight,heightBasketRight,leftLake,rightLake,space2.keys,space2.rt,space1.keys,trials.thisRepN,trials.thisTrialN,trials.thisN,trials.thisIndex,trials.ran,space1.rt,finalSpace1.keys,finalSpace1.rt,finalSpace2.keys,finalSpace2.rt
,0,0,0,0,1,$5b902fc6877eab0001d7b449,2020-07-21_17h09.24.642,fisher_task,2020.1.3,Win32,60,,,,,,,,,,,,,,,,,,,,,,,,,,,,,,,
,,,,,,$5b902fc6877eab0001d7b449,2020-07-21_17h09.24.642,fisher_task,2020.1.3,Win32,60,0.180989583,-0.37109375,1,0,0,3.565765,scale,0,0,0,0,1,0.275930788,0.223606798,0.275930788,0.223606798,stimuli/training/20_left.png,stimuli/training/20_right.png,,,,,,,,,,,,,
,,,,,,$5b902fc6877eab0001d7b449,2020-07-21_17h09.24.642,fisher_task,2020.1.3,Win32,60,-0.188802083,-0.373697917,1,0,0,2.016895,scale,0,1,1,1,1,0.275930788,0.223606798,0.275930788,0.223606798,stimuli/training/80_left.png,stimuli/training/80_right.png,,,,,,,,,,,,,
,,,,,,$5b902fc6877eab0001d7b449,2020-07-21_17h09.24.642,fisher_task,2020.1.3,Win32,60,0.153645833,-0.305989583,1,0,0,2.41573,scale,0,2,2,2,1,0.174513954,0.141421356,0.349027907,0.282842712,stimuli/training/50_left.png,stimuli/training/50_right.png,,,,,,,,,,,,,
,,,,,,$5b902fc6877eab0001d7b449,2020-07-21_17h09.24.642,fisher_task,2020.1.3,Win32,60,-0.169270833,-0.329427083,1,0,0,1.56649,scale,0,3,3,3,1,0.349027907,0.282842712,0.174513954,0.141421356,stimuli/training/50_left.png,stimuli/training/50_right.png,,,,,,,,,,,,,
,,,,,,$5b902fc6877eab0001d7b449,2020-07-21_17h09.24.642,fisher_task,2020.1.3,Win32,60,-0.005208333,-0.23046875,1,0,0,1.734705,scale,0,4,4,4,1,0.275930788,0.223606798,0.275930788,0.223606798,stimuli/training/50_left.png,stimuli/training/50_right.png,,,,,,,,,,,,,
,,,,,,$5b902fc6877eab0001d7b449,2020-07-21_17h09.24.642,fisher_task,2020.1.3,Win32,60,0.19140625,-0.376302083,1,0,0,1.016415,scale,0,5,5,5,1,0.174513954,0.141421356,0.349027907,0.282842712,stimuli/training/20_left.png,stimuli/training/20_right.png,,,,,,,,,,,,,
,,,,,,$5b902fc6877eab0001d7b449,2020-07-21_17h09.24.642,fisher_task,2020.1.3,Win32,60,-0.190104167,-0.395833333,1,0,0,1.234265,scale,0,6,6,6,1,0.349027907,0.282842712,0.174513954,0.141421356,stimuli/training/80_left.png,stimuli/training/80_right.png,,,,,,,,,,,,,
,,,,,,$5b902fc6877eab0001d7b449,2020-07-21_17h09.24.642,fisher_task,2020.1.3,Win32,60,0.19921875,-0.365885417,1,0,0,1.18275,scale,0,7,7,7,1,0.1234,0.1,0.3702,0.3,stimuli/training/30_left.png,stimuli/training/30_right.png,,,,,,,,,,,,,
,,,,,,$5b902fc6877eab0001d7b449,2020-07-21_17h09.24.642,fisher_task,2020.1.3,Win32,60,-0.177083333,-0.365885417,1,0,0,1.63298,scale,0,8,8,8,1,0.3702,0.3,0.1234,0.1,stimuli/training/70_left.png,stimuli/training/70_right.png,,,,,,,,,,,,,
,,,,,,$5b902fc6877eab0001d7b449,2020-07-21_17h09.24.642,fisher_task,2020.1.3,Win32,60,-0.1875,-0.399739583,1,0,0,1.299505,scale,0,9,9,9,1,0.326485712,0.264575131,0.21373507,0.173205081,stimuli/training/90_left.png,stimuli/training/90_right.png,,,,,,,,,,,,,
,,,,,,$5b902fc6877eab0001d7b449,2020-07-21_17h09.24.642,fisher_task,2020.1.3,Win32,60,0.200520833,-0.40625,1,0,0,1.29975,scale,0,10,10,10,1,0.21373507,0.173205081,0.326485712,0.264575131,stimuli/training/10_left.png,stimuli/training/10_right.png,,,,,,,,,,,,,
,,,,,,$5b902fc6877eab0001d7b449,2020-07-21_17h09.24.642,fisher_task,2020.1.3,Win32,60,0.186197917,-0.384114583,1,0,0,1.81433,scale,,,,,,0.2468,0.2,0.302267034,0.244948974,stimuli/lakes/403026_left.png,stimuli/lakes/403026_right.png,space,4.338525,,0,0,0,26,1,,,,,
,,,,,,$5b902fc6877eab0001d7b449,2020-07-21_17h09.24.642,fisher_task,2020.1.3,Win32,60,-0.182291667,-0.390625,1,0,0,1.4665,scale,,,,,,0.349027907,0.282842712,0.174513954,0.141421356,stimuli/lakes/8070105_left.png,stimuli/lakes/8070105_right.png,,,,0,1,1,105,1,,,,,
,,,,,,$5b902fc6877eab0001d7b449,2020-07-21_17h09.24.642,fisher_task,2020.1.3,Win32,60,0.184895833,-0.401041667,1,0,0,1.34988,scale,,,,,,0.275930788,0.223606798,0.275930788,0.223606798,stimuli/lakes/50104_left.png,stimuli/lakes/50104_right.png,,,,0,2,2,4,1,,,,,
,,,,,,$5b902fc6877eab0001d7b449,2020-07-21_17h09.24.642,fisher_task,2020.1.3,Win32,60,0.16796875,-0.329427083,1,0,0,2.06663,scale,,,,,,0.174513954,0.141421356,0.349027907,0.282842712,stimuli/lakes/204042_left.png,stimuli/lakes/204042_right.png,,,,0,3,3,42,1,,,,,
,,,,,,$5b902fc6877eab0001d7b449,2020-07-21_17h09.24.642,fisher_task,2020.1.3,Win32,60,-0.188802083,-0.395833333,1,0,0,1.402235,scale,,,,,,0.302267034,0.244948974,0.2468,0.2,stimuli/lakes/6090127_left.png,stimuli/lakes/6090127_right.png,,,,0,4,4,127,1,,,,,
,,,,,,$5b902fc6877eab0001d7b449,2020-07-21_17h09.24.642,fisher_task,2020.1.3,Win32,60,-0.149739583,-0.298177083,1,0,0,1.632065,scale,,,,,,0.275930788,0.223606798,0.275930788,0.223606798,stimuli/lakes/506084_left.png,stimuli/lakes/506084_right.png,,,,0,5,5,84,1,,,,,
,,,,,,$5b902fc6877eab0001d7b449,2020-07-21_17h09.24.642,fisher_task,2020.1.3,Win32,60,0.015625,-0.239583333,1,0,0,1.533045,scale,,,,,,0.3702,0.3,0.1234,0.1,stimuli/lakes/903031_left.png,stimuli/lakes/903031_right.png,,,,0,6,6,31,1,,,,,
,,,,,,$5b902fc6877eab0001d7b449,2020-07-21_17h09.24.642,fisher_task,2020.1.3,Win32,60,-0.141927083,-0.3046875,1,0,0,1.982865,scale,,,,,,0.174513954,0.141421356,0.349027907,0.282842712,stimuli/lakes/206081_left.png,stimuli/lakes/206081_right.png,,,,0,7,7,81,1,,,,,
,,,,,,$5b902fc6877eab0001d7b449,2020-07-21_17h09.24.642,fisher_task,2020.1.3,Win32,60,0.1796875,-0.337239583,1,0,0,1.69955,scale,,,,,,0.275930788,0.223606798,0.275930788,0.223606798,stimuli/lakes/504045_left.png,stimuli/lakes/504045_right.png,,,,0,8,8,45,1,,,,,
,,,,,,$5b902fc6877eab0001d7b449,2020-07-21_17h09.24.642,fisher_task,2020.1.3,Win32,60,-0.04296875,-0.2265625,1,0,0,2.38223,scale,,,,,,0.2468,0.2,0.302267034,0.244948974,stimuli/lakes/4090123_left.png,stimuli/lakes/4090123_right.png,,,,0,9,9,123,1,,,,,
,,,,,,$5b902fc6877eab0001d7b449,2020-07-21_17h09.24.642,fisher_task,2020.1.3,Win32,60,-0.114583333,-0.26171875,1,0,0,2.08275,scale,,,,,,0.302267034,0.244948974,0.2468,0.2,stimuli/lakes/605066_left.png,stimuli/lakes/605066_right.png,,,,0,10,10,66,1,,,,,
,,,,,,$5b902fc6877eab0001d7b449,2020-07-21_17h09.24.642,fisher_task,2020.1.3,Win32,60,0.072916667,-0.24609375,1,0,0,1.932915,scale,,,,,,0.302267034,0.244948974,0.2468,0.2,stimuli/lakes/604055_left.png,stimuli/lakes/604055_right.png,,,,0,11,11,55,1,,,,,
,,,,,,$5b902fc6877eab0001d7b449,2020-07-21_17h09.24.642,fisher_task,2020.1.3,Win32,60,0.180989583,-0.393229167,1,0,0,1.332755,scale,,,,,,0.21373507,0.173205081,0.326485712,0.264575131,stimuli/lakes/30101_left.png,stimuli/lakes/30101_right.png,,,,0,12,12,1,1,,,,,
,,,,,,$5b902fc6877eab0001d7b449,2020-07-21_17h09.24.642,fisher_task,2020.1.3,Win32,60,-0.11328125,-0.264322917,1,0,0,1.74981,scale,,,,,,0.275930788,0.223606798,0.275930788,0.223606798,stimuli/lakes/506075_left.png,stimuli/lakes/506075_right.png,,,,0,13,13,75,1,,,,,
,,,,,,$5b902fc6877eab0001d7b449,2020-07-21_17h09.24.642,fisher_task,2020.1.3,Win32,60,-0.190104167,-0.372395833,1,0,0,1.36661,scale,,,,,,0.275930788,0.223606798,0.275930788,0.223606798,stimuli/lakes/5090125_left.png,stimuli/lakes/5090125_right.png,,,,0,14,14,125,1,,,,,
,,,,,,$5b902fc6877eab0001d7b449,2020-07-21_17h09.24.642,fisher_task,2020.1.3,Win32,60,0.092447917,-0.255208333,1,0,0,2.149545,scale,,,,,,0.302267034,0.244948974,0.2468,0.2,stimuli/lakes/602018_left.png,stimuli/lakes/602018_right.png,,,,0,15,15,18,1,,,,,
,,,,,,$5b902fc6877eab0001d7b449,2020-07-21_17h09.24.642,fisher_task,2020.1.3,Win32,60,-0.076822917,-0.2421875,1,0,0,1.69978,scale,,,,,,0.21373507,0.173205081,0.326485712,0.264575131,stimuli/lakes/307091_left.png,stimuli/lakes/307091_right.png,,,,0,16,16,91,1,,,,,
,,,,,,$5b902fc6877eab0001d7b449,2020-07-21_17h09.24.642,fisher_task,2020.1.3,Win32,60,-0.109375,-0.2578125,1,0,0,1.94983,scale,,,,,,0.275930788,0.223606798,0.275930788,0.223606798,stimuli/lakes/507093_left.png,stimuli/lakes/507093_right.png,,,,0,17,17,93,1,,,,,
,,,,,,$5b902fc6877eab0001d7b449,2020-07-21_17h09.24.642,fisher_task,2020.1.3,Win32,60,-0.1640625,-0.325520833,1,0,0,1.04978,scale,,,,,,0.275930788,0.223606798,0.275930788,0.223606798,stimuli/lakes/5070102_left.png,stimuli/lakes/5070102_right.png,,,,0,18,18,102,1,,,,,
,,,,,,$5b902fc6877eab0001d7b449,2020-07-21_17h09.24.642,fisher_task,2020.1.3,Win32,60,0.0625,-0.23828125,1,0,0,1.61594,scale,,,,,,0.2468,0.2,0.302267034,0.244948974,stimuli/lakes/406083_left.png,stimuli/lakes/406083_right.png,,,,0,19,19,83,1,,,,,
,,,,,,$5b902fc6877eab0001d7b449,2020-07-21_17h09.24.642,fisher_task,2020.1.3,Win32,60,0.153645833,-0.338541667,1,0,0,1.217985,scale,,,,,,0.2468,0.2,0.302267034,0.244948974,stimuli/lakes/402014_left.png,stimuli/lakes/402014_right.png,,,,0,20,20,14,1,,,,,
,,,,,,$5b902fc6877eab0001d7b449,2020-07-21_17h09.24.642,fisher_task,2020.1.3,Win32,60,-0.138020833,-0.31640625,1,0,0,1.11646,scale,,,,,,0.302267034,0.244948974,0.2468,0.2,stimuli/lakes/606085_left.png,stimuli/lakes/606085_right.png,,,,0,21,21,85,1,,,,,
,,,,,,$5b902fc6877eab0001d7b449,2020-07-21_17h09.24.642,fisher_task,2020.1.3,Win32,60,0.158854167,-0.33984375,1,0,0,1.28309,scale,,,,,,0.21373507,0.173205081,0.326485712,0.264575131,stimuli/lakes/303025_left.png,stimuli/lakes/303025_right.png,,,space,0,22,22,25,1,60.71012,,,,
,,,,,,$5b902fc6877eab0001d7b449,2020-07-21_17h09.24.642,fisher_task,2020.1.3,Win32,60,-0.010416667,-0.216145833,1,0,0,1.13292,scale,,,,,,0.326485712,0.264575131,0.21373507,0.173205081,stimuli/lakes/70107_left.png,stimuli/lakes/70107_right.png,,,,0,23,23,7,1,,,,,
,,,,,,$5b902fc6877eab0001d7b449,2020-07-21_17h09.24.642,fisher_task,2020.1.3,Win32,60,0.208333333,-0.364583333,1,0,0,1.2173,scale,,,,,,0.21373507,0.173205081,0.326485712,0.264575131,stimuli/lakes/30100_left.png,stimuli/lakes/30100_right.png,,,,0,24,24,0,1,,,,,
,,,,,,$5b902fc6877eab0001d7b449,2020-07-21_17h09.24.642,fisher_task,2020.1.3,Win32,60,0.140625,-0.298177083,1,0,0,0.98214,scale,,,,,,0.174513954,0.141421356,0.349027907,0.282842712,stimuli/lakes/203033_left.png,stimuli/lakes/203033_right.png,,,,0,25,25,33,1,,,,,
,,,,,,$5b902fc6877eab0001d7b449,2020-07-21_17h09.24.642,fisher_task,2020.1.3,Win32,60,0.170572917,-0.358072917,1,0,0,0.88365,scale,,,,,,0.2468,0.2,0.302267034,0.244948974,stimuli/lakes/40102_left.png,stimuli/lakes/40102_right.png,,,,0,26,26,2,1,,,,,
,,,,,,$5b902fc6877eab0001d7b449,2020-07-21_17h09.24.642,fisher_task,2020.1.3,Win32,60,0.10546875,-0.2734375,1,0,0,1.966315,scale,,,,,,0.21373507,0.173205081,0.326485712,0.264575131,stimuli/lakes/305062_left.png,stimuli/lakes/305062_right.png,,,,0,27,27,62,1,,,,,
,,,,,,$5b902fc6877eab0001d7b449,2020-07-21_17h09.24.642,fisher_task,2020.1.3,Win32,60,-0.145833333,-0.330729167,1,0,0,1.34997,scale,,,,,,0.3702,0.3,0.1234,0.1,stimuli/lakes/9070106_left.png,stimuli/lakes/9070106_right.png,,,,0,28,28,106,1,,,,,
,,,,,,$5b902fc6877eab0001d7b449,2020-07-21_17h09.24.642,fisher_task,2020.1.3,Win32,60,-0.002604167,-0.234375,1,0,0,1.132835,scale,,,,,,0.349027907,0.282842712,0.174513954,0.141421356,stimuli/lakes/803030_left.png,stimuli/lakes/803030_right.png,,,,0,29,29,30,1,,,,,
,,,,,,$5b902fc6877eab0001d7b449,2020-07-21_17h09.24.642,fisher_task,2020.1.3,Win32,60,0.033854167,-0.265625,1,0,0,1.03291,scale,,,,,,0.349027907,0.282842712,0.174513954,0.141421356,stimuli/lakes/802021_left.png,stimuli/lakes/802021_right.png,,,,0,30,30,21,1,,,,,
,,,,,,$5b902fc6877eab0001d7b449,2020-07-21_17h09.24.642,fisher_task,2020.1.3,Win32,60,0.01953125,-0.23828125,1,0,0,1.117065,scale,,,,,,0.174513954,0.141421356,0.349027907,0.282842712,stimuli/lakes/207090_left.png,stimuli/lakes/207090_right.png,,,,0,31,31,90,1,,,,,
,,,,,,$5b902fc6877eab0001d7b449,2020-07-21_17h09.24.642,fisher_task,2020.1.3,Win32,60,-0.010416667,-0.220052083,1,0,0,1.049835,scale,,,,,,0.174513954,0.141421356,0.349027907,0.282842712,stimuli/lakes/207099_left.png,stimuli/lakes/207099_right.png,,,,0,32,32,99,1,,,,,
,,,,,,$5b902fc6877eab0001d7b449,2020-07-21_17h09.24.642,fisher_task,2020.1.3,Win32,60,0,-0.2265625,1,0,0,1.41659,scale,,,,,,0.1234,0.1,0.3702,0.3,stimuli/lakes/1080107_left.png,stimuli/lakes/1080107_right.png,,,,0,33,33,107,1,,,,,
,,,,,,$5b902fc6877eab0001d7b449,2020-07-21_17h09.24.642,fisher_task,2020.1.3,Win32,60,0.040364583,-0.231770833,1,0,0,1.549295,scale,,,,,,0.3702,0.3,0.1234,0.1,stimuli/lakes/902022_left.png,stimuli/lakes/902022_right.png,,,,0,34,34,22,1,,,,,
,,,,,,$5b902fc6877eab0001d7b449,2020-07-21_17h09.24.642,fisher_task,2020.1.3,Win32,60,-0.087239583,-0.24609375,1,0,0,1.966445,scale,,,,,,0.349027907,0.282842712,0.174513954,0.141421356,stimuli/lakes/804057_left.png,stimuli/lakes/804057_right.png,,,,0,35,35,57,1,,,,,
,,,,,,$5b902fc6877eab0001d7b449,2020-07-21_17h09.24.642,fisher_task,2020.1.3,Win32,60,0.01171875,-0.236979167,1,0,0,1.28313,scale,,,,,,0.302267034,0.244948974,0.2468,0.2,stimuli/lakes/60105_left.png,stimuli/lakes/60105_right.png,,,,0,36,36,5,1,,,,,
,,,,,,$5b902fc6877eab0001d7b449,2020-07-21_17h09.24.642,fisher_task,2020.1.3,Win32,60,0.01171875,-0.23046875,1,0,0,1.25009,scale,,,,,,0.21373507,0.173205081,0.326485712,0.264575131,stimuli/lakes/3090122_left.png,stimuli/lakes/3090122_right.png,,,,0,37,37,122,1,,,,,
,,,,,,$5b902fc6877eab0001d7b449,2020-07-21_17h09.24.642,fisher_task,2020.1.3,Win32,60,-0.018229167,-0.233072917,1,0,0,1.633325,scale,,,,,,0.3702,0.3,0.1234,0.1,stimuli/lakes/903040_left.png,stimuli/lakes/903040_right.png,,,,0,38,38,40,1,,,,,
,,,,,,$5b902fc6877eab0001d7b449,2020-07-21_17h09.24.642,fisher_task,2020.1.3,Win32,60,0.0078125,-0.23046875,1,0,0,1.16649,scale,,,,,,0.2468,0.2,0.302267034,0.244948974,stimuli/lakes/4080111_left.png,stimuli/lakes/4080111_right.png,,,,0,39,39,111,1,,,,,
,,,,,,$5b902fc6877eab0001d7b449,2020-07-21_17h09.24.642,fisher_task,2020.1.3,Win32,60,-0.161458333,-0.325520833,1,0,0,0.966375,scale,,,,,,0.275930788,0.223606798,0.275930788,0.223606798,stimuli/lakes/5080113_left.png,stimuli/lakes/5080113_right.png,,,,0,40,40,113,1,,,,,
,,,,,,$5b902fc6877eab0001d7b449,2020-07-21_17h09.24.642,fisher_task,2020.1.3,Win32,60,-0.061197917,-0.259114583,1,0,0,1.483215,scale,,,,,,0.326485712,0.264575131,0.21373507,0.173205081,stimuli/lakes/703029_left.png,stimuli/lakes/703029_right.png,,,,0,41,41,29,1,,,,,
,,,,,,$5b902fc6877eab0001d7b449,2020-07-21_17h09.24.642,fisher_task,2020.1.3,Win32,60,0.061197917,-0.247395833,1,0,0,1.299915,scale,,,,,,0.1234,0.1,0.3702,0.3,stimuli/lakes/106071_left.png,stimuli/lakes/106071_right.png,,,,0,42,42,71,1,,,,,
,,,,,,$5b902fc6877eab0001d7b449,2020-07-21_17h09.24.642,fisher_task,2020.1.3,Win32,60,0.0625,-0.25,1,0,0,1.133005,scale,,,,,,0.1234,0.1,0.3702,0.3,stimuli/lakes/105059_left.png,stimuli/lakes/105059_right.png,,,,0,43,43,59,1,,,,,
,,,,,,$5b902fc6877eab0001d7b449,2020-07-21_17h09.24.642,fisher_task,2020.1.3,Win32,60,-0.036458333,-0.248697917,1,0,0,1.33301,scale,,,,,,0.302267034,0.244948974,0.2468,0.2,stimuli/lakes/60106_left.png,stimuli/lakes/60106_right.png,,,space,0,44,44,6,1,4.860885,,,,
,,,,,,$5b902fc6877eab0001d7b449,2020-07-21_17h09.24.642,fisher_task,2020.1.3,Win32,60,0.009114583,-0.221354167,1,0,0,0.98317,scale,,,,,,0.3702,0.3,0.1234,0.1,stimuli/lakes/901010_left.png,stimuli/lakes/901010_right.png,,,,0,45,45,10,1,,,,,
,,,,,,$5b902fc6877eab0001d7b449,2020-07-21_17h09.24.642,fisher_task,2020.1.3,Win32,60,-0.018229167,-0.239583333,1,0,0,1.0508,scale,,,,,,0.2468,0.2,0.302267034,0.244948974,stimuli/lakes/4090124_left.png,stimuli/lakes/4090124_right.png,,,,0,46,46,124,1,,,,,
,,,,,,$5b902fc6877eab0001d7b449,2020-07-21_17h09.24.642,fisher_task,2020.1.3,Win32,60,0.059895833,-0.25390625,1,0,0,1.36585,scale,,,,,,0.349027907,0.282842712,0.174513954,0.141421356,stimuli/lakes/80109_left.png,stimuli/lakes/80109_right.png,,,,0,47,47,9,1,,,,,
,,,,,,$5b902fc6877eab0001d7b449,2020-07-21_17h09.24.642,fisher_task,2020.1.3,Win32,60,-0.147135417,-0.3359375,1,0,0,1.383055,scale,,,,,,0.3702,0.3,0.1234,0.1,stimuli/lakes/905070_left.png,stimuli/lakes/905070_right.png,,,,0,48,48,70,1,,,,,
,,,,,,$5b902fc6877eab0001d7b449,2020-07-21_17h09.24.642,fisher_task,2020.1.3,Win32,60,0.1640625,-0.338541667,1,0,0,1.44967,scale,,,,,,0.21373507,0.173205081,0.326485712,0.264575131,stimuli/lakes/303034_left.png,stimuli/lakes/303034_right.png,,,,0,49,49,34,1,,,,,
,,,,,,$5b902fc6877eab0001d7b449,2020-07-21_17h09.24.642,fisher_task,2020.1.3,Win32,60,0.178385417,-0.397135417,1,0,0,0.93269,scale,,,,,,0.1234,0.1,0.3702,0.3,stimuli/lakes/104050_left.png,stimuli/lakes/104050_right.png,,,,0,50,50,50,1,,,,,
,,,,,,$5b902fc6877eab0001d7b449,2020-07-21_17h09.24.642,fisher_task,2020.1.3,Win32,60,0.135416667,-0.295572917,1,0,0,1.182245,scale,,,,,,0.21373507,0.173205081,0.326485712,0.264575131,stimuli/lakes/305061_left.png,stimuli/lakes/305061_right.png,,,,0,51,51,61,1,,,,,
,,,,,,$5b902fc6877eab0001d7b449,2020-07-21_17h09.24.642,fisher_task,2020.1.3,Win32,60,-0.080729167,-0.239583333,1,0,0,1.29964,scale,,,,,,0.326485712,0.264575131,0.21373507,0.173205081,stimuli/lakes/702020_left.png,stimuli/lakes/702020_right.png,,,,0,52,52,20,1,,,,,
,,,,,,$5b902fc6877eab0001d7b449,2020-07-21_17h09.24.642,fisher_task,2020.1.3,Win32,60,-0.170572917,-0.346354167,1,0,0,1.41639,scale,,,,,,0.3702,0.3,0.1234,0.1,stimuli/lakes/907097_left.png,stimuli/lakes/907097_right.png,,,,0,53,53,97,1,,,,,
,,,,,,$5b902fc6877eab0001d7b449,2020-07-21_17h09.24.642,fisher_task,2020.1.3,Win32,60,-0.1640625,-0.328125,1,0,0,1.23317,scale,,,,,,0.302267034,0.244948974,0.2468,0.2,stimuli/lakes/6070103_left.png,stimuli/lakes/6070103_right.png,,,,0,54,54,103,1,,,,,
,,,,,,$5b902fc6877eab0001d7b449,2020-07-21_17h09.24.642,fisher_task,2020.1.3,Win32,60,0.161458333,-0.356770833,1,0,0,1.21633,scale,,,,,,0.174513954,0.141421356,0.349027907,0.282842712,stimuli/lakes/204051_left.png,stimuli/lakes/204051_right.png,,,,0,55,55,51,1,,,,,
,,,,,,$5b902fc6877eab0001d7b449,2020-07-21_17h09.24.642,fisher_task,2020.1.3,Win32,60,0.0234375,-0.272135417,1,0,0,1.233445,scale,,,,,,0.21373507,0.173205081,0.326485712,0.264575131,stimuli/lakes/3080109_left.png,stimuli/lakes/3080109_right.png,,,,0,56,56,109,1,,,,,
,,,,,,$5b902fc6877eab0001d7b449,2020-07-21_17h09.24.642,fisher_task,2020.1.3,Win32,60,0.05078125,-0.247395833,1,0,0,1.233235,scale,,,,,,0.275930788,0.223606798,0.275930788,0.223606798,stimuli/lakes/504054_left.png,stimuli/lakes/504054_right.png,,,,0,57,57,54,1,,,,,
,,,,,,$5b902fc6877eab0001d7b449,2020-07-21_17h09.24.642,fisher_task,2020.1.3,Win32,60,-0.109375,-0.274739583,1,0,0,1.5331,scale,,,,,,0.326485712,0.264575131,0.21373507,0.173205081,stimuli/lakes/705067_left.png,stimuli/lakes/705067_right.png,,,,0,58,58,67,1,,,,,
,,,,,,$5b902fc6877eab0001d7b449,2020-07-21_17h09.24.642,fisher_task,2020.1.3,Win32,60,-0.12109375,-0.317708333,1,0,0,0.89982,scale,,,,,,0.349027907,0.282842712,0.174513954,0.141421356,stimuli/lakes/806087_left.png,stimuli/lakes/806087_right.png,,,,0,59,59,87,1,,,,,
,,,,,,$5b902fc6877eab0001d7b449,2020-07-21_17h09.24.642,fisher_task,2020.1.3,Win32,60,-0.194010417,-0.360677083,1,0,0,0.966865,scale,,,,,,0.3702,0.3,0.1234,0.1,stimuli/lakes/906079_left.png,stimuli/lakes/906079_right.png,,,,0,60,60,79,1,,,,,
,,,,,,$5b902fc6877eab0001d7b449,2020-07-21_17h09.24.642,fisher_task,2020.1.3,Win32,60,-0.143229167,-0.307291667,1,0,0,1.300225,scale,,,,,,0.326485712,0.264575131,0.21373507,0.173205081,stimuli/lakes/706086_left.png,stimuli/lakes/706086_right.png,,,,0,61,61,86,1,,,,,
,,,,,,$5b902fc6877eab0001d7b449,2020-07-21_17h09.24.642,fisher_task,2020.1.3,Win32,60,0.115885417,-0.264322917,1,0,0,1.26638,scale,,,,,,0.1234,0.1,0.3702,0.3,stimuli/lakes/107098_left.png,stimuli/lakes/107098_right.png,,,,0,62,62,98,1,,,,,
,,,,,,$5b902fc6877eab0001d7b449,2020-07-21_17h09.24.642,fisher_task,2020.1.3,Win32,60,0.131510417,-0.291666667,1,0,0,0.899495,scale,,,,,,0.2468,0.2,0.302267034,0.244948974,stimuli/lakes/404053_left.png,stimuli/lakes/404053_right.png,,,,0,63,63,53,1,,,,,
,,,,,,$5b902fc6877eab0001d7b449,2020-07-21_17h09.24.642,fisher_task,2020.1.3,Win32,60,-0.0390625,-0.23828125,1,0,0,1.18328,scale,,,,,,0.326485712,0.264575131,0.21373507,0.173205081,stimuli/lakes/70108_left.png,stimuli/lakes/70108_right.png,,,,0,64,64,8,1,,,,,
,,,,,,$5b902fc6877eab0001d7b449,2020-07-21_17h09.24.642,fisher_task,2020.1.3,Win32,60,0,-0.23046875,1,0,0,1.18315,scale,,,,,,0.2468,0.2,0.302267034,0.244948974,stimuli/lakes/4080112_left.png,stimuli/lakes/4080112_right.png,,,,0,65,65,112,1,,,,,
,,,,,,$5b902fc6877eab0001d7b449,2020-07-21_17h09.24.642,fisher_task,2020.1.3,Win32,60,-0.169270833,-0.364583333,1,0,0,1.400515,scale,,,,,,0.326485712,0.264575131,0.21373507,0.173205081,stimuli/lakes/7080117_left.png,stimuli/lakes/7080117_right.png,,,space,0,66,66,117,1,2.54386,,,,
,,,,,,$5b902fc6877eab0001d7b449,2020-07-21_17h09.24.642,fisher_task,2020.1.3,Win32,60,-0.1640625,-0.328125,1,0,0,1.19954,scale,,,,,,0.349027907,0.282842712,0.174513954,0.141421356,stimuli/lakes/806078_left.png,stimuli/lakes/806078_right.png,,,,0,67,67,78,1,,,,,
,,,,,,$5b902fc6877eab0001d7b449,2020-07-21_17h09.24.642,fisher_task,2020.1.3,Win32,60,0.149739583,-0.352864583,1,0,0,0.89967,scale,,,,,,0.174513954,0.141421356,0.349027907,0.282842712,stimuli/lakes/202011_left.png,stimuli/lakes/202011_right.png,,,,0,68,68,11,1,,,,,
,,,,,,$5b902fc6877eab0001d7b449,2020-07-21_17h09.24.642,fisher_task,2020.1.3,Win32,60,0.161458333,-0.328125,1,0,0,0.983,scale,,,,,,0.174513954,0.141421356,0.349027907,0.282842712,stimuli/lakes/205060_left.png,stimuli/lakes/205060_right.png,,,,0,69,69,60,1,,,,,
,,,,,,$5b902fc6877eab0001d7b449,2020-07-21_17h09.24.642,fisher_task,2020.1.3,Win32,60,-0.182291667,-0.345052083,1,0,0,0.999905,scale,,,,,,0.3702,0.3,0.1234,0.1,stimuli/lakes/906088_left.png,stimuli/lakes/906088_right.png,,,,0,70,70,88,1,,,,,
,,,,,,$5b902fc6877eab0001d7b449,2020-07-21_17h09.24.642,fisher_task,2020.1.3,Win32,60,0.154947917,-0.359375,1,0,0,1.38286,scale,,,,,,0.1234,0.1,0.3702,0.3,stimuli/lakes/103023_left.png,stimuli/lakes/103023_right.png,,,,0,71,71,23,1,,,,,
,,,,,,$5b902fc6877eab0001d7b449,2020-07-21_17h09.24.642,fisher_task,2020.1.3,Win32,60,-0.109375,-0.286458333,1,0,0,1.24933,scale,,,,,,0.3702,0.3,0.1234,0.1,stimuli/lakes/904058_left.png,stimuli/lakes/904058_right.png,,,,0,72,72,58,1,,,,,
,,,,,,$5b902fc6877eab0001d7b449,2020-07-21_17h09.24.642,fisher_task,2020.1.3,Win32,60,0.084635417,-0.26171875,1,0,0,1.23328,scale,,,,,,0.275930788,0.223606798,0.275930788,0.223606798,stimuli/lakes/503027_left.png,stimuli/lakes/503027_right.png,,,,0,73,73,27,1,,,,,
,,,,,,$5b902fc6877eab0001d7b449,2020-07-21_17h09.24.642,fisher_task,2020.1.3,Win32,60,0.069010417,-0.26953125,1,0,0,1.21659,scale,,,,,,0.3702,0.3,0.1234,0.1,stimuli/lakes/904049_left.png,stimuli/lakes/904049_right.png,,,,0,74,74,49,1,,,,,
,,,,,,$5b902fc6877eab0001d7b449,2020-07-21_17h09.24.642,fisher_task,2020.1.3,Win32,60,-0.015625,-0.25,1,0,0,1.535415,scale,,,,,,0.326485712,0.264575131,0.21373507,0.173205081,stimuli/lakes/702019_left.png,stimuli/lakes/702019_right.png,,,,0,75,75,19,1,,,,,
,,,,,,$5b902fc6877eab0001d7b449,2020-07-21_17h09.24.642,fisher_task,2020.1.3,Win32,60,-0.109375,-0.266927083,1,0,0,0.9835,scale,,,,,,0.349027907,0.282842712,0.174513954,0.141421356,stimuli/lakes/804048_left.png,stimuli/lakes/804048_right.png,,,,0,76,76,48,1,,,,,
,,,,,,$5b902fc6877eab0001d7b449,2020-07-21_17h09.24.642,fisher_task,2020.1.3,Win32,60,0.06640625,-0.2578125,1,0,0,1.11503,scale,,,,,,0.1234,0.1,0.3702,0.3,stimuli/lakes/106080_left.png,stimuli/lakes/106080_right.png,,,,0,77,77,80,1,,,,,
,,,,,,$5b902fc6877eab0001d7b449,2020-07-21_17h09.24.642,fisher_task,2020.1.3,Win32,60,0.018229167,-0.227864583,1,0,0,1.06637,scale,,,,,,0.21373507,0.173205081,0.326485712,0.264575131,stimuli/lakes/3080110_left.png,stimuli/lakes/3080110_right.png,,,,0,78,78,110,1,,,,,
,,,,,,$5b902fc6877eab0001d7b449,2020-07-21_17h09.24.642,fisher_task,2020.1.3,Win32,60,-0.1328125,-0.294270833,1,0,0,1.665925,scale,,,,,,0.349027907,0.282842712,0.174513954,0.141421356,stimuli/lakes/805069_left.png,stimuli/lakes/805069_right.png,,,,0,79,79,69,1,,,,,
,,,,,,$5b902fc6877eab0001d7b449,2020-07-21_17h09.24.642,fisher_task,2020.1.3,Win32,60,0.015625,-0.233072917,1,0,0,1.216285,scale,,,,,,0.21373507,0.173205081,0.326485712,0.264575131,stimuli/lakes/3090121_left.png,stimuli/lakes/3090121_right.png,,,,0,80,80,121,1,,,,,
,,,,,,$5b902fc6877eab0001d7b449,2020-07-21_17h09.24.642,fisher_task,2020.1.3,Win32,60,0.127604167,-0.30859375,1,0,0,1.08337,scale,,,,,,0.21373507,0.173205081,0.326485712,0.264575131,stimuli/lakes/302013_left.png,stimuli/lakes/302013_right.png,,,,0,81,81,13,1,,,,,
,,,,,,$5b902fc6877eab0001d7b449,2020-07-21_17h09.24.642,fisher_task,2020.1.3,Win32,60,-0.154947917,-0.346354167,1,0,0,1.09958,scale,,,,,,0.349027907,0.282842712,0.174513954,0.141421356,stimuli/lakes/807096_left.png,stimuli/lakes/807096_right.png,,,,0,82,82,96,1,,,,,
,,,,,,$5b902fc6877eab0001d7b449,2020-07-21_17h09.24.642,fisher_task,2020.1.3,Win32,60,-0.15234375,-0.34765625,1,0,0,1.49573,scale,,,,,,0.302267034,0.244948974,0.2468,0.2,stimuli/lakes/605065_left.png,stimuli/lakes/605065_right.png,,,,0,83,83,65,1,,,,,
,,,,,,$5b902fc6877eab0001d7b449,2020-07-21_17h09.24.642,fisher_task,2020.1.3,Win32,60,-0.180989583,-0.369791667,1,0,0,1.04886,scale,,,,,,0.326485712,0.264575131,0.21373507,0.173205081,stimuli/lakes/7090129_left.png,stimuli/lakes/7090129_right.png,,,,0,84,84,129,1,,,,,
,,,,,,$5b902fc6877eab0001d7b449,2020-07-21_17h09.24.642,fisher_task,2020.1.3,Win32,60,-0.186197917,-0.32421875,1,0,0,0.999875,scale,,,,,,0.326485712,0.264575131,0.21373507,0.173205081,stimuli/lakes/707095_left.png,stimuli/lakes/707095_right.png,,,,0,85,85,95,1,,,,,
,,,,,,$5b902fc6877eab0001d7b449,2020-07-21_17h09.24.642,fisher_task,2020.1.3,Win32,60,0.153645833,-0.354166667,1,0,0,1.1332,scale,,,,,,0.1234,0.1,0.3702,0.3,stimuli/lakes/103032_left.png,stimuli/lakes/103032_right.png,,,,0,86,86,32,1,,,,,
,,,,,,$5b902fc6877eab0001d7b449,2020-07-21_17h09.24.642,fisher_task,2020.1.3,Win32,60,0.009114583,-0.227864583,1,0,0,1.049895,scale,,,,,,0.326485712,0.264575131,0.21373507,0.173205081,stimuli/lakes/704056_left.png,stimuli/lakes/704056_right.png,,,,0,87,87,56,1,,,,,
,,,,,,$5b902fc6877eab0001d7b449,2020-07-21_17h09.24.642,fisher_task,2020.1.3,Win32,60,-0.127604167,-0.30859375,1,0,0,1.715865,scale,,,,,,0.326485712,0.264575131,0.21373507,0.173205081,stimuli/lakes/704047_left.png,stimuli/lakes/704047_right.png,,,space,0,88,88,47,1,264.46332,,,,
,,,,,,$5b902fc6877eab0001d7b449,2020-07-21_17h09.24.642,fisher_task,2020.1.3,Win32,60,-0.162760417,-0.3359375,1,0,0,0.866165,scale,,,,,,0.326485712,0.264575131,0.21373507,0.173205081,stimuli/lakes/706077_left.png,stimuli/lakes/706077_right.png,,,,0,89,89,77,1,,,,,
,,,,,,$5b902fc6877eab0001d7b449,2020-07-21_17h09.24.642,fisher_task,2020.1.3,Win32,60,-0.166666667,-0.34375,1,0,0,1.05035,scale,,,,,,0.326485712,0.264575131,0.21373507,0.173205081,stimuli/lakes/7070104_left.png,stimuli/lakes/7070104_right.png,,,,0,90,90,104,1,,,,,
,,,,,,$5b902fc6877eab0001d7b449,2020-07-21_17h09.24.642,fisher_task,2020.1.3,Win32,60,-0.1875,-0.341145833,1,0,0,0.816,scale,,,,,,0.349027907,0.282842712,0.174513954,0.141421356,stimuli/lakes/8080118_left.png,stimuli/lakes/8080118_right.png,,,,0,91,91,118,1,,,,,
,,,,,,$5b902fc6877eab0001d7b449,2020-07-21_17h09.24.642,fisher_task,2020.1.3,Win32,60,0.0859375,-0.255208333,1,0,0,1.31666,scale,,,,,,0.2468,0.2,0.302267034,0.244948974,stimuli/lakes/407092_left.png,stimuli/lakes/407092_right.png,,,,0,92,92,92,1,,,,,
,,,,,,$5b902fc6877eab0001d7b449,2020-07-21_17h09.24.642,fisher_task,2020.1.3,Win32,60,0.118489583,-0.303385417,1,0,0,1.150065,scale,,,,,,0.275930788,0.223606798,0.275930788,0.223606798,stimuli/lakes/503036_left.png,stimuli/lakes/503036_right.png,,,,0,93,93,36,1,,,,,
,,,,,,$5b902fc6877eab0001d7b449,2020-07-21_17h09.24.642,fisher_task,2020.1.3,Win32,60,-0.134114583,-0.279947917,1,0,0,1.16641,scale,,,,,,0.302267034,0.244948974,0.2468,0.2,stimuli/lakes/603028_left.png,stimuli/lakes/603028_right.png,,,,0,94,94,28,1,,,,,
,,,,,,$5b902fc6877eab0001d7b449,2020-07-21_17h09.24.642,fisher_task,2020.1.3,Win32,60,0.171875,-0.337239583,1,0,0,1.13336,scale,,,,,,0.21373507,0.173205081,0.326485712,0.264575131,stimuli/lakes/304052_left.png,stimuli/lakes/304052_right.png,,,,0,95,95,52,1,,,,,
,,,,,,$5b902fc6877eab0001d7b449,2020-07-21_17h09.24.642,fisher_task,2020.1.3,Win32,60,0.162760417,-0.311197917,1,0,0,1.250205,scale,,,,,,0.21373507,0.173205081,0.326485712,0.264575131,stimuli/lakes/306082_left.png,stimuli/lakes/306082_right.png,,,,0,96,96,82,1,,,,,
,,,,,,$5b902fc6877eab0001d7b449,2020-07-21_17h09.24.642,fisher_task,2020.1.3,Win32,60,0.110677083,-0.274739583,1,0,0,1.249835,scale,,,,,,0.2468,0.2,0.302267034,0.244948974,stimuli/lakes/4070101_left.png,stimuli/lakes/4070101_right.png,,,,0,97,97,101,1,,,,,
,,,,,,$5b902fc6877eab0001d7b449,2020-07-21_17h09.24.642,fisher_task,2020.1.3,Win32,60,-0.08984375,-0.244791667,1,0,0,1.18374,scale,,,,,,0.349027907,0.282842712,0.174513954,0.141421356,stimuli/lakes/803039_left.png,stimuli/lakes/803039_right.png,,,,0,98,98,39,1,,,,,
,,,,,,$5b902fc6877eab0001d7b449,2020-07-21_17h09.24.642,fisher_task,2020.1.3,Win32,60,0.0390625,-0.233072917,1,0,0,1.08356,scale,,,,,,0.2468,0.2,0.302267034,0.244948974,stimuli/lakes/406074_left.png,stimuli/lakes/406074_right.png,,,,0,99,99,74,1,,,,,
,,,,,,$5b902fc6877eab0001d7b449,2020-07-21_17h09.24.642,fisher_task,2020.1.3,Win32,60,0.08203125,-0.2421875,1,0,0,1.0329,scale,,,,,,0.2468,0.2,0.302267034,0.244948974,stimuli/lakes/405063_left.png,stimuli/lakes/405063_right.png,,,,0,100,100,63,1,,,,,
,,,,,,$5b902fc6877eab0001d7b449,2020-07-21_17h09.24.642,fisher_task,2020.1.3,Win32,60,0.131510417,-0.317708333,1,0,0,1.234095,scale,,,,,,0.174513954,0.141421356,0.349027907,0.282842712,stimuli/lakes/203024_left.png,stimuli/lakes/203024_right.png,,,,0,101,101,24,1,,,,,
,,,,,,$5b902fc6877eab0001d7b449,2020-07-21_17h09.24.642,fisher_task,2020.1.3,Win32,60,0.158854167,-0.326822917,1,0,0,1.335165,scale,,,,,,0.2468,0.2,0.302267034,0.244948974,stimuli/lakes/405064_left.png,stimuli/lakes/405064_right.png,,,,0,102,102,64,1,,,,,
,,,,,,$5b902fc6877eab0001d7b449,2020-07-21_17h09.24.642,fisher_task,2020.1.3,Win32,60,-0.147135417,-0.307291667,1,0,0,1.7832,scale,,,,,,0.302267034,0.244948974,0.2468,0.2,stimuli/lakes/607094_left.png,stimuli/lakes/607094_right.png,,,,0,103,103,94,1,,,,,
,,,,,,$5b902fc6877eab0001d7b449,2020-07-21_17h09.24.642,fisher_task,2020.1.3,Win32,60,-0.147135417,-0.2890625,1,0,0,1.14989,scale,,,,,,0.326485712,0.264575131,0.21373507,0.173205081,stimuli/lakes/703038_left.png,stimuli/lakes/703038_right.png,,,,0,104,104,38,1,,,,,
,,,,,,$5b902fc6877eab0001d7b449,2020-07-21_17h09.24.642,fisher_task,2020.1.3,Win32,60,-0.161458333,-0.345052083,1,0,0,0.99987,scale,,,,,,0.302267034,0.244948974,0.2468,0.2,stimuli/lakes/6080114_left.png,stimuli/lakes/6080114_right.png,,,,0,105,105,114,1,,,,,
,,,,,,$5b902fc6877eab0001d7b449,2020-07-21_17h09.24.642,fisher_task,2020.1.3,Win32,60,0.01171875,-0.23046875,1,0,0,1.2996,scale,,,,,,0.1234,0.1,0.3702,0.3,stimuli/lakes/1090119_left.png,stimuli/lakes/1090119_right.png,,,,0,106,106,119,1,,,,,
,,,,,,$5b902fc6877eab0001d7b449,2020-07-21_17h09.24.642,fisher_task,2020.1.3,Win32,60,0.143229167,-0.3046875,1,0,0,1.01644,scale,,,,,,0.21373507,0.173205081,0.326485712,0.264575131,stimuli/lakes/302012_left.png,stimuli/lakes/302012_right.png,,,,0,107,107,12,1,,,,,
,,,,,,$5b902fc6877eab0001d7b449,2020-07-21_17h09.24.642,fisher_task,2020.1.3,Win32,60,-0.024739583,-0.236979167,1,0,0,1.50002,scale,,,,,,0.302267034,0.244948974,0.2468,0.2,stimuli/lakes/603037_left.png,stimuli/lakes/603037_right.png,,,,0,108,108,37,1,,,,,
,,,,,,$5b902fc6877eab0001d7b449,2020-07-21_17h09.24.642,fisher_task,2020.1.3,Win32,60,0.182291667,-0.356770833,1,0,0,1.14932,scale,,,,,,0.2468,0.2,0.302267034,0.244948974,stimuli/lakes/40103_left.png,stimuli/lakes/40103_right.png,,,,0,109,109,3,1,,,,,
,,,,,,$5b902fc6877eab0001d7b449,2020-07-21_17h09.24.642,fisher_task,2020.1.3,Win32,60,0.126302083,-0.287760417,1,0,0,0.950315,scale,,,,,,0.2468,0.2,0.302267034,0.244948974,stimuli/lakes/403035_left.png,stimuli/lakes/403035_right.png,,,space,0,110,110,35,1,4.850835,,,,
,,,,,,$5b902fc6877eab0001d7b449,2020-07-21_17h09.24.642,fisher_task,2020.1.3,Win32,60,0.149739583,-0.329427083,1,0,0,0.783305,scale,,,,,,0.2468,0.2,0.302267034,0.244948974,stimuli/lakes/402015_left.png,stimuli/lakes/402015_right.png,,,,0,111,111,15,1,,,,,
,,,,,,$5b902fc6877eab0001d7b449,2020-07-21_17h09.24.642,fisher_task,2020.1.3,Win32,60,-0.149739583,-0.309895833,1,0,0,0.99855,scale,,,,,,0.302267034,0.244948974,0.2468,0.2,stimuli/lakes/606076_left.png,stimuli/lakes/606076_right.png,,,,0,112,112,76,1,,,,,
,,,,,,$5b902fc6877eab0001d7b449,2020-07-21_17h09.24.642,fisher_task,2020.1.3,Win32,60,0.16796875,-0.35546875,1,0,0,1.08242,scale,,,,,,0.21373507,0.173205081,0.326485712,0.264575131,stimuli/lakes/304043_left.png,stimuli/lakes/304043_right.png,,,,0,113,113,43,1,,,,,
,,,,,,$5b902fc6877eab0001d7b449,2020-07-21_17h09.24.642,fisher_task,2020.1.3,Win32,60,0.154947917,-0.319010417,1,0,0,1.13576,scale,,,,,,0.2468,0.2,0.302267034,0.244948974,stimuli/lakes/404044_left.png,stimuli/lakes/404044_right.png,,,,0,114,114,44,1,,,,,
,,,,,,$5b902fc6877eab0001d7b449,2020-07-21_17h09.24.642,fisher_task,2020.1.3,Win32,60,0.169270833,-0.346354167,1,0,0,0.899845,scale,,,,,,0.1234,0.1,0.3702,0.3,stimuli/lakes/104041_left.png,stimuli/lakes/104041_right.png,,,,0,115,115,41,1,,,,,
,,,,,,$5b902fc6877eab0001d7b449,2020-07-21_17h09.24.642,fisher_task,2020.1.3,Win32,60,0.153645833,-0.291666667,1,0,0,1.18352,scale,,,,,,0.174513954,0.141421356,0.349027907,0.282842712,stimuli/lakes/206072_left.png,stimuli/lakes/206072_right.png,,,,0,116,116,72,1,,,,,
,,,,,,$5b902fc6877eab0001d7b449,2020-07-21_17h09.24.642,fisher_task,2020.1.3,Win32,60,-0.1484375,-0.333333333,1,0,0,1.3009,scale,,,,,,0.326485712,0.264575131,0.21373507,0.173205081,stimuli/lakes/705068_left.png,stimuli/lakes/705068_right.png,,,,0,117,117,68,1,,,,,
,,,,,,$5b902fc6877eab0001d7b449,2020-07-21_17h09.24.642,fisher_task,2020.1.3,Win32,60,-0.182291667,-0.390625,1,0,0,1.032525,scale,,,,,,0.326485712,0.264575131,0.21373507,0.173205081,stimuli/lakes/7090128_left.png,stimuli/lakes/7090128_right.png,,,,0,118,118,128,1,,,,,
,,,,,,$5b902fc6877eab0001d7b449,2020-07-21_17h09.24.642,fisher_task,2020.1.3,Win32,60,0.131510417,-0.2890625,1,0,0,1.13328,scale,,,,,,0.174513954,0.141421356,0.349027907,0.282842712,stimuli/lakes/2080108_left.png,stimuli/lakes/2080108_right.png,,,,0,119,119,108,1,,,,,
,,,,,,$5b902fc6877eab0001d7b449,2020-07-21_17h09.24.642,fisher_task,2020.1.3,Win32,60,-0.138020833,-0.279947917,1,0,0,1.08443,scale,,,,,,0.302267034,0.244948974,0.2468,0.2,stimuli/lakes/604046_left.png,stimuli/lakes/604046_right.png,,,,0,120,120,46,1,,,,,
,,,,,,$5b902fc6877eab0001d7b449,2020-07-21_17h09.24.642,fisher_task,2020.1.3,Win32,60,-0.157552083,-0.32421875,1,0,0,0.93454,scale,,,,,,0.302267034,0.244948974,0.2468,0.2,stimuli/lakes/6080115_left.png,stimuli/lakes/6080115_right.png,,,,0,121,121,115,1,,,,,
,,,,,,$5b902fc6877eab0001d7b449,2020-07-21_17h09.24.642,fisher_task,2020.1.3,Win32,60,0.1484375,-0.307291667,1,0,0,1.11431,scale,,,,,,0.21373507,0.173205081,0.326485712,0.264575131,stimuli/lakes/306073_left.png,stimuli/lakes/306073_right.png,,,,0,122,122,73,1,,,,,
,,,,,,$5b902fc6877eab0001d7b449,2020-07-21_17h09.24.642,fisher_task,2020.1.3,Win32,60,0.147135417,-0.303385417,1,0,0,0.949735,scale,,,,,,0.1234,0.1,0.3702,0.3,stimuli/lakes/107089_left.png,stimuli/lakes/107089_right.png,,,,0,123,123,89,1,,,,,
,,,,,,$5b902fc6877eab0001d7b449,2020-07-21_17h09.24.642,fisher_task,2020.1.3,Win32,60,0.069010417,-0.256510417,1,0,0,1.23167,scale,,,,,,0.174513954,0.141421356,0.349027907,0.282842712,stimuli/lakes/2090120_left.png,stimuli/lakes/2090120_right.png,,,,0,124,124,120,1,,,,,
,,,,,,$5b902fc6877eab0001d7b449,2020-07-21_17h09.24.642,fisher_task,2020.1.3,Win32,60,-0.138020833,-0.3203125,1,0,0,0.866505,scale,,,,,,0.326485712,0.264575131,0.21373507,0.173205081,stimuli/lakes/7080116_left.png,stimuli/lakes/7080116_right.png,,,,0,125,125,116,1,,,,,
,,,,,,$5b902fc6877eab0001d7b449,2020-07-21_17h09.24.642,fisher_task,2020.1.3,Win32,60,-0.1015625,-0.25390625,1,0,0,0.8999,scale,,,,,,0.302267034,0.244948974,0.2468,0.2,stimuli/lakes/602017_left.png,stimuli/lakes/602017_right.png,,,,0,126,126,17,1,,,,,
,,,,,,$5b902fc6877eab0001d7b449,2020-07-21_17h09.24.642,fisher_task,2020.1.3,Win32,60,0.190104167,-0.40234375,1,0,0,1.55082,scale,,,,,,0.275930788,0.223606798,0.275930788,0.223606798,stimuli/lakes/502016_left.png,stimuli/lakes/502016_right.png,,,,0,127,127,16,1,,,,,
,,,,,,$5b902fc6877eab0001d7b449,2020-07-21_17h09.24.642,fisher_task,2020.1.3,Win32,60,0.09765625,-0.25390625,1,0,0,1.0845,scale,,,,,,0.21373507,0.173205081,0.326485712,0.264575131,stimuli/lakes/3070100_left.png,stimuli/lakes/3070100_right.png,,,,0,128,128,100,1,,,,,
,,,,,,$5b902fc6877eab0001d7b449,2020-07-21_17h09.24.642,fisher_task,2020.1.3,Win32,60,-0.16015625,-0.341145833,1,0,0,1.066675,scale,,,,,,0.302267034,0.244948974,0.2468,0.2,stimuli/lakes/6090126_left.png,stimuli/lakes/6090126_right.png,,,,0,129,129,126,1,,,,,
,,,,,,$5b902fc6877eab0001d7b449,2020-07-21_17h09.24.642,fisher_task,2020.1.3,Win32,60,,,,,,,,,,,,,,,,,,,,,,,,,,,,space,5.144285,space,41.27705
