keySpace.keys,keySpace.rt,instructions.thisRepN,instructions.thisTrialN,instructions.thisN,instructions.thisIndex,instructions.ran,participant,date,expName,psychopyVersion,OS,frameRate,mouse.x,mouse.y,mouse.leftButton,mouse.midButton,mouse.rightButton,mouse.time,mouse.clicked_name,training.thisRepN,training.thisTrialN,training.thisN,training.thisIndex,training.ran,widthBasketLeft,heightBasketLeft,widthBasketRight,heightBasketRight,leftLake,rightLake,space2.keys,space2.rt,space1.keys,trials.thisRepN,trials.thisTrialN,trials.thisN,trials.thisIndex,trials.ran,space1.rt,finalSpace1.keys,finalSpace1.rt,finalSpace2.keys,finalSpace2.rt
space,3.50349,0,0,0,0,1,$5da753d65c6987001335a067,2020-07-21_17h09.25.073,fisher_task,2020.1.3,Win32,60,,,,,,,,,,,,,,,,,,,,,,,,,,,,,,,
,,1,0,1,0,1,$5da753d65c6987001335a067,2020-07-21_17h09.25.073,fisher_task,2020.1.3,Win32,60,,,,,,,,,,,,,,,,,,,,,,,,,,,,,,,
,,,,,,,$5da753d65c6987001335a067,2020-07-21_17h09.25.073,fisher_task,2020.1.3,Win32,60,0.098958333,-0.287760417,1,0,0,3.13394,scale,0,0,0,0,1,0.275930788,0.223606798,0.275930788,0.223606798,stimuli/training/20_left.png,stimuli/training/20_right.png,,,,,,,,,,,,,
,,,,,,,$5da753d65c6987001335a067,2020-07-21_17h09.25.073,fisher_task,2020.1.3,Win32,60,-0.145833333,-0.3671875,1,0,0,2.815885,scale,0,1,1,1,1,0.275930788,0.223606798,0.275930788,0.223606798,stimuli/training/80_left.png,stimuli/training/80_right.png,,,,,,,,,,,,,
,,,,,,,$5da753d65c6987001335a067,2020-07-21_17h09.25.073,fisher_task,2020.1.3,Win32,60,0.102864583,-0.294270833,1,0,0,2.4161,scale,0,2,2,2,1,0.174513954,0.141421356,0.349027907,0.282842712,stimuli/training/50_left.png,stimuli/training/50_right.png,,,,,,,,,,,,,
,,,,,,,$5da753d65c6987001335a067,2020-07-21_17h09.25.073,fisher_task,2020.1.3,Win32,60,-0.09765625,-0.2890625,1,0,0,3.034165,scale,0,3,3,3,1,0.349027907,0.282842712,0.174513954,0.141421356,stimuli/training/50_left.png,stimuli/training/50_right.png,,,,,,,,,,,,,
,,,,,,,$5da753d65c6987001335a067,2020-07-21_17h09.25.073,fisher_task,2020.1.3,Win32,60,-0.002604167,-0.264322917,1,0,0,2.24757,scale,0,4,4,4,1,0.275930788,0.223606798,0.275930788,0.223606798,stimuli/training/50_left.png,stimuli/training/50_right.png,,,,,,,,,,,,,
,,,,,,,$5da753d65c6987001335a067,2020-07-21_17h09.25.073,fisher_task,2020.1.3,Win32,60,0.174479167,-0.39453125,1,0,0,2.149425,scale,0,5,5,5,1,0.174513954,0.141421356,0.349027907,0.282842712,stimuli/training/20_left.png,stimuli/training/20_right.png,,,,,,,,,,,,,
,,,,,,,$5da753d65c6987001335a067,2020-07-21_17h09.25.073,fisher_task,2020.1.3,Win32,60,-0.1640625,-0.389322917,1,0,0,1.56631,scale,0,6,6,6,1,0.349027907,0.282842712,0.174513954,0.141421356,stimuli/training/80_left.png,stimuli/training/80_right.png,,,,,,,,,,,,,
,,,,,,,$5da753d65c6987001335a067,2020-07-21_17h09.25.073,fisher_task,2020.1.3,Win32,60,0.178385417,-0.377604167,1,0,0,1.634415,scale,0,7,7,7,1,0.1234,0.1,0.3702,0.3,stimuli/training/30_left.png,stimuli/training/30_right.png,,,,,,,,,,,,,
,,,,,,,$5da753d65c6987001335a067,2020-07-21_17h09.25.073,fisher_task,2020.1.3,Win32,60,-0.165364583,-0.41796875,1,0,0,1.715385,scale,0,8,8,8,1,0.3702,0.3,0.1234,0.1,stimuli/training/70_left.png,stimuli/training/70_right.png,,,,,,,,,,,,,
,,,,,,,$5da753d65c6987001335a067,2020-07-21_17h09.25.073,fisher_task,2020.1.3,Win32,60,-0.157552083,-0.415364583,1,0,0,1.515355,scale,0,9,9,9,1,0.326485712,0.264575131,0.21373507,0.173205081,stimuli/training/90_left.png,stimuli/training/90_right.png,,,,,,,,,,,,,
,,,,,,,$5da753d65c6987001335a067,2020-07-21_17h09.25.073,fisher_task,2020.1.3,Win32,60,0.171875,-0.421875,1,0,0,1.683205,scale,0,10,10,10,1,0.21373507,0.173205081,0.326485712,0.264575131,stimuli/training/10_left.png,stimuli/training/10_right.png,,,,,,,,,,,,,
,,,,,,,$5da753d65c6987001335a067,2020-07-21_17h09.25.073,fisher_task,2020.1.3,Win32,60,-0.139322917,-0.348958333,1,0,0,1.78215,scale,,,,,,0.3702,0.3,0.1234,0.1,stimuli/lakes/906079_left.png,stimuli/lakes/906079_right.png,space,5.35217,,0,0,0,79,1,,,,,
,,,,,,,$5da753d65c6987001335a067,2020-07-21_17h09.25.073,fisher_task,2020.1.3,Win32,60,-0.15625,-0.365885417,1,0,0,1.60043,scale,,,,,,0.326485712,0.264575131,0.21373507,0.173205081,stimuli/lakes/706077_left.png,stimuli/lakes/706077_right.png,,,,0,1,1,77,1,,,,,
,,,,,,,$5da753d65c6987001335a067,2020-07-21_17h09.25.073,fisher_task,2020.1.3,Win32,60,-0.110677083,-0.303385417,1,0,0,1.88238,scale,,,,,,0.326485712,0.264575131,0.21373507,0.173205081,stimuli/lakes/705067_left.png,stimuli/lakes/705067_right.png,,,,0,2,2,67,1,,,,,
,,,,,,,$5da753d65c6987001335a067,2020-07-21_17h09.25.073,fisher_task,2020.1.3,Win32,60,-0.006510417,-0.25,1,0,0,1.982985,scale,,,,,,0.349027907,0.282842712,0.174513954,0.141421356,stimuli/lakes/803039_left.png,stimuli/lakes/803039_right.png,,,,0,3,3,39,1,,,,,
,,,,,,,$5da753d65c6987001335a067,2020-07-21_17h09.25.073,fisher_task,2020.1.3,Win32,60,0.05859375,-0.252604167,1,0,0,2.01603,scale,,,,,,0.174513954,0.141421356,0.349027907,0.282842712,stimuli/lakes/205060_left.png,stimuli/lakes/205060_right.png,,,,0,4,4,60,1,,,,,
,,,,,,,$5da753d65c6987001335a067,2020-07-21_17h09.25.073,fisher_task,2020.1.3,Win32,60,-0.001302083,-0.263020833,1,0,0,2.35044,scale,,,,,,0.21373507,0.173205081,0.326485712,0.264575131,stimuli/lakes/3090122_left.png,stimuli/lakes/3090122_right.png,,,,0,5,5,122,1,,,,,
,,,,,,,$5da753d65c6987001335a067,2020-07-21_17h09.25.073,fisher_task,2020.1.3,Win32,60,-0.11328125,-0.2890625,1,0,0,1.79836,scale,,,,,,0.275930788,0.223606798,0.275930788,0.223606798,stimuli/lakes/5090125_left.png,stimuli/lakes/5090125_right.png,,,,0,6,6,125,1,,,,,
,,,,,,,$5da753d65c6987001335a067,2020-07-21_17h09.25.073,fisher_task,2020.1.3,Win32,60,0.014322917,-0.274739583,1,0,0,1.966605,scale,,,,,,0.302267034,0.244948974,0.2468,0.2,stimuli/lakes/602018_left.png,stimuli/lakes/602018_right.png,,,,0,7,7,18,1,,,,,
,,,,,,,$5da753d65c6987001335a067,2020-07-21_17h09.25.073,fisher_task,2020.1.3,Win32,60,0.014322917,-0.274739583,1,0,0,1.648945,scale,,,,,,0.21373507,0.173205081,0.326485712,0.264575131,stimuli/lakes/306082_left.png,stimuli/lakes/306082_right.png,,,,0,8,8,82,1,,,,,
,,,,,,,$5da753d65c6987001335a067,2020-07-21_17h09.25.073,fisher_task,2020.1.3,Win32,60,0.014322917,-0.274739583,1,0,0,1.215535,scale,,,,,,0.21373507,0.173205081,0.326485712,0.264575131,stimuli/lakes/3070100_left.png,stimuli/lakes/3070100_right.png,,,,0,9,9,100,1,,,,,
,,,,,,,$5da753d65c6987001335a067,2020-07-21_17h09.25.073,fisher_task,2020.1.3,Win32,60,-0.005208333,-0.274739583,1,0,0,1.64964,scale,,,,,,0.1234,0.1,0.3702,0.3,stimuli/lakes/106080_left.png,stimuli/lakes/106080_right.png,,,,0,10,10,80,1,,,,,
,,,,,,,$5da753d65c6987001335a067,2020-07-21_17h09.25.073,fisher_task,2020.1.3,Win32,60,-0.06640625,-0.278645833,1,0,0,1.68263,scale,,,,,,0.302267034,0.244948974,0.2468,0.2,stimuli/lakes/605066_left.png,stimuli/lakes/605066_right.png,,,,0,11,11,66,1,,,,,
,,,,,,,$5da753d65c6987001335a067,2020-07-21_17h09.25.073,fisher_task,2020.1.3,Win32,60,0.05078125,-0.26953125,1,0,0,1.716035,scale,,,,,,0.275930788,0.223606798,0.275930788,0.223606798,stimuli/lakes/504054_left.png,stimuli/lakes/504054_right.png,,,,0,12,12,54,1,,,,,
,,,,,,,$5da753d65c6987001335a067,2020-07-21_17h09.25.073,fisher_task,2020.1.3,Win32,60,-0.026041667,-0.268229167,1,0,0,2.04848,scale,,,,,,0.21373507,0.173205081,0.326485712,0.264575131,stimuli/lakes/3080110_left.png,stimuli/lakes/3080110_right.png,,,,0,13,13,110,1,,,,,
,,,,,,,$5da753d65c6987001335a067,2020-07-21_17h09.25.073,fisher_task,2020.1.3,Win32,60,0.01171875,-0.270833333,1,0,0,1.616985,scale,,,,,,0.326485712,0.264575131,0.21373507,0.173205081,stimuli/lakes/704056_left.png,stimuli/lakes/704056_right.png,,,,0,14,14,56,1,,,,,
,,,,,,,$5da753d65c6987001335a067,2020-07-21_17h09.25.073,fisher_task,2020.1.3,Win32,60,0.067708333,-0.276041667,1,0,0,1.36618,scale,,,,,,0.275930788,0.223606798,0.275930788,0.223606798,stimuli/lakes/503027_left.png,stimuli/lakes/503027_right.png,,,,0,15,15,27,1,,,,,
,,,,,,,$5da753d65c6987001335a067,2020-07-21_17h09.25.073,fisher_task,2020.1.3,Win32,60,0,-0.266927083,1,0,0,1.282965,scale,,,,,,0.349027907,0.282842712,0.174513954,0.141421356,stimuli/lakes/80109_left.png,stimuli/lakes/80109_right.png,,,,0,16,16,9,1,,,,,
,,,,,,,$5da753d65c6987001335a067,2020-07-21_17h09.25.073,fisher_task,2020.1.3,Win32,60,0.01953125,-0.265625,1,0,0,1.249565,scale,,,,,,0.349027907,0.282842712,0.174513954,0.141421356,stimuli/lakes/803030_left.png,stimuli/lakes/803030_right.png,,,,0,17,17,30,1,,,,,
,,,,,,,$5da753d65c6987001335a067,2020-07-21_17h09.25.073,fisher_task,2020.1.3,Win32,60,0.045572917,-0.265625,1,0,0,1.315125,scale,,,,,,0.326485712,0.264575131,0.21373507,0.173205081,stimuli/lakes/70108_left.png,stimuli/lakes/70108_right.png,,,,0,18,18,8,1,,,,,
,,,,,,,$5da753d65c6987001335a067,2020-07-21_17h09.25.073,fisher_task,2020.1.3,Win32,60,-0.049479167,-0.266927083,1,0,0,1.833445,scale,,,,,,0.349027907,0.282842712,0.174513954,0.141421356,stimuli/lakes/805069_left.png,stimuli/lakes/805069_right.png,,,,0,19,19,69,1,,,,,
,,,,,,,$5da753d65c6987001335a067,2020-07-21_17h09.25.073,fisher_task,2020.1.3,Win32,60,0.118489583,-0.303385417,1,0,0,1.115,scale,,,,,,0.2468,0.2,0.302267034,0.244948974,stimuli/lakes/402014_left.png,stimuli/lakes/402014_right.png,,,,0,20,20,14,1,,,,,
,,,,,,,$5da753d65c6987001335a067,2020-07-21_17h09.25.073,fisher_task,2020.1.3,Win32,60,0.151041667,-0.356770833,1,0,0,1.11519,scale,,,,,,0.2468,0.2,0.302267034,0.244948974,stimuli/lakes/40102_left.png,stimuli/lakes/40102_right.png,,,,0,21,21,2,1,,,,,
,,,,,,,$5da753d65c6987001335a067,2020-07-21_17h09.25.073,fisher_task,2020.1.3,Win32,60,-0.075520833,-0.291666667,1,0,0,1.666105,scale,,,,,,0.275930788,0.223606798,0.275930788,0.223606798,stimuli/lakes/5070102_left.png,stimuli/lakes/5070102_right.png,,,space,0,22,22,102,1,2.667245,,,,
,,,,,,,$5da753d65c6987001335a067,2020-07-21_17h09.25.073,fisher_task,2020.1.3,Win32,60,-0.14453125,-0.34375,1,0,0,1.16622,scale,,,,,,0.302267034,0.244948974,0.2468,0.2,stimuli/lakes/6080115_left.png,stimuli/lakes/6080115_right.png,,,,0,23,23,115,1,,,,,
,,,,,,,$5da753d65c6987001335a067,2020-07-21_17h09.25.073,fisher_task,2020.1.3,Win32,60,0.127604167,-0.283854167,1,0,0,0.94878,scale,,,,,,0.2468,0.2,0.302267034,0.244948974,stimuli/lakes/404044_left.png,stimuli/lakes/404044_right.png,,,,0,24,24,44,1,,,,,
,,,,,,,$5da753d65c6987001335a067,2020-07-21_17h09.25.073,fisher_task,2020.1.3,Win32,60,-0.126302083,-0.315104167,1,0,0,1.183215,scale,,,,,,0.302267034,0.244948974,0.2468,0.2,stimuli/lakes/606085_left.png,stimuli/lakes/606085_right.png,,,,0,25,25,85,1,,,,,
,,,,,,,$5da753d65c6987001335a067,2020-07-21_17h09.25.073,fisher_task,2020.1.3,Win32,60,-0.018229167,-0.251302083,1,0,0,1.18278,scale,,,,,,0.2468,0.2,0.302267034,0.244948974,stimuli/lakes/4080112_left.png,stimuli/lakes/4080112_right.png,,,,0,26,26,112,1,,,,,
,,,,,,,$5da753d65c6987001335a067,2020-07-21_17h09.25.073,fisher_task,2020.1.3,Win32,60,-0.1484375,-0.337239583,1,0,0,1.13311,scale,,,,,,0.326485712,0.264575131,0.21373507,0.173205081,stimuli/lakes/7080116_left.png,stimuli/lakes/7080116_right.png,,,,0,27,27,116,1,,,,,
,,,,,,,$5da753d65c6987001335a067,2020-07-21_17h09.25.073,fisher_task,2020.1.3,Win32,60,0.157552083,-0.313802083,1,0,0,1.384245,scale,,,,,,0.21373507,0.173205081,0.326485712,0.264575131,stimuli/lakes/304052_left.png,stimuli/lakes/304052_right.png,,,,0,28,28,52,1,,,,,
,,,,,,,$5da753d65c6987001335a067,2020-07-21_17h09.25.073,fisher_task,2020.1.3,Win32,60,-0.1484375,-0.403645833,1,0,0,1.23265,scale,,,,,,0.326485712,0.264575131,0.21373507,0.173205081,stimuli/lakes/7090128_left.png,stimuli/lakes/7090128_right.png,,,,0,29,29,128,1,,,,,
,,,,,,,$5da753d65c6987001335a067,2020-07-21_17h09.25.073,fisher_task,2020.1.3,Win32,60,-0.002604167,-0.27734375,1,0,0,1.632525,scale,,,,,,0.326485712,0.264575131,0.21373507,0.173205081,stimuli/lakes/702019_left.png,stimuli/lakes/702019_right.png,,,,0,30,30,19,1,,,,,
,,,,,,,$5da753d65c6987001335a067,2020-07-21_17h09.25.073,fisher_task,2020.1.3,Win32,60,-0.154947917,-0.346354167,1,0,0,1.048685,scale,,,,,,0.3702,0.3,0.1234,0.1,stimuli/lakes/907097_left.png,stimuli/lakes/907097_right.png,,,,0,31,31,97,1,,,,,
,,,,,,,$5da753d65c6987001335a067,2020-07-21_17h09.25.073,fisher_task,2020.1.3,Win32,60,0.1171875,-0.295572917,1,0,0,1.332805,scale,,,,,,0.1234,0.1,0.3702,0.3,stimuli/lakes/105059_left.png,stimuli/lakes/105059_right.png,,,,0,32,32,59,1,,,,,
,,,,,,,$5da753d65c6987001335a067,2020-07-21_17h09.25.073,fisher_task,2020.1.3,Win32,60,0.0390625,-0.256510417,1,0,0,2.032925,scale,,,,,,0.21373507,0.173205081,0.326485712,0.264575131,stimuli/lakes/306073_left.png,stimuli/lakes/306073_right.png,,,,0,33,33,73,1,,,,,
,,,,,,,$5da753d65c6987001335a067,2020-07-21_17h09.25.073,fisher_task,2020.1.3,Win32,60,0.010416667,-0.252604167,1,0,0,1.4485,scale,,,,,,0.21373507,0.173205081,0.326485712,0.264575131,stimuli/lakes/305062_left.png,stimuli/lakes/305062_right.png,,,,0,34,34,62,1,,,,,
,,,,,,,$5da753d65c6987001335a067,2020-07-21_17h09.25.073,fisher_task,2020.1.3,Win32,60,-0.020833333,-0.2578125,1,0,0,1.316915,scale,,,,,,0.275930788,0.223606798,0.275930788,0.223606798,stimuli/lakes/5080113_left.png,stimuli/lakes/5080113_right.png,,,,0,35,35,113,1,,,,,
,,,,,,,$5da753d65c6987001335a067,2020-07-21_17h09.25.073,fisher_task,2020.1.3,Win32,60,0.16796875,-0.33203125,1,0,0,1.349525,scale,,,,,,0.21373507,0.173205081,0.326485712,0.264575131,stimuli/lakes/302012_left.png,stimuli/lakes/302012_right.png,,,,0,36,36,12,1,,,,,
,,,,,,,$5da753d65c6987001335a067,2020-07-21_17h09.25.073,fisher_task,2020.1.3,Win32,60,-0.0078125,-0.282552083,1,0,0,1.532405,scale,,,,,,0.174513954,0.141421356,0.349027907,0.282842712,stimuli/lakes/2090120_left.png,stimuli/lakes/2090120_right.png,,,,0,37,37,120,1,,,,,
,,,,,,,$5da753d65c6987001335a067,2020-07-21_17h09.25.073,fisher_task,2020.1.3,Win32,60,-0.01953125,-0.279947917,1,0,0,1.08364,scale,,,,,,0.21373507,0.173205081,0.326485712,0.264575131,stimuli/lakes/3090121_left.png,stimuli/lakes/3090121_right.png,,,,0,38,38,121,1,,,,,
,,,,,,,$5da753d65c6987001335a067,2020-07-21_17h09.25.073,fisher_task,2020.1.3,Win32,60,0.028645833,-0.255208333,1,0,0,1.90215,scale,,,,,,0.326485712,0.264575131,0.21373507,0.173205081,stimuli/lakes/704047_left.png,stimuli/lakes/704047_right.png,,,,0,39,39,47,1,,,,,
,,,,,,,$5da753d65c6987001335a067,2020-07-21_17h09.25.073,fisher_task,2020.1.3,Win32,60,0.006510417,-0.252604167,1,0,0,1.66461,scale,,,,,,0.302267034,0.244948974,0.2468,0.2,stimuli/lakes/604055_left.png,stimuli/lakes/604055_right.png,,,,0,40,40,55,1,,,,,
,,,,,,,$5da753d65c6987001335a067,2020-07-21_17h09.25.073,fisher_task,2020.1.3,Win32,60,0.045572917,-0.24609375,1,0,0,1.33299,scale,,,,,,0.174513954,0.141421356,0.349027907,0.282842712,stimuli/lakes/206081_left.png,stimuli/lakes/206081_right.png,,,,0,41,41,81,1,,,,,
,,,,,,,$5da753d65c6987001335a067,2020-07-21_17h09.25.073,fisher_task,2020.1.3,Win32,60,0.141927083,-0.328125,1,0,0,1.333395,scale,,,,,,0.1234,0.1,0.3702,0.3,stimuli/lakes/103032_left.png,stimuli/lakes/103032_right.png,,,,0,42,42,32,1,,,,,
,,,,,,,$5da753d65c6987001335a067,2020-07-21_17h09.25.073,fisher_task,2020.1.3,Win32,60,0.09765625,-0.279947917,1,0,0,1.5656,scale,,,,,,0.275930788,0.223606798,0.275930788,0.223606798,stimuli/lakes/503036_left.png,stimuli/lakes/503036_right.png,,,,0,43,43,36,1,,,,,
,,,,,,,$5da753d65c6987001335a067,2020-07-21_17h09.25.073,fisher_task,2020.1.3,Win32,60,-0.010416667,-0.2734375,1,0,0,1.20005,scale,,,,,,0.2468,0.2,0.302267034,0.244948974,stimuli/lakes/406074_left.png,stimuli/lakes/406074_right.png,,,space,0,44,44,74,1,3.57087,,,,
,,,,,,,$5da753d65c6987001335a067,2020-07-21_17h09.25.073,fisher_task,2020.1.3,Win32,60,-0.002604167,-0.260416667,1,0,0,0.9983,scale,,,,,,0.1234,0.1,0.3702,0.3,stimuli/lakes/1080107_left.png,stimuli/lakes/1080107_right.png,,,,0,45,45,107,1,,,,,
,,,,,,,$5da753d65c6987001335a067,2020-07-21_17h09.25.073,fisher_task,2020.1.3,Win32,60,0.005208333,-0.260416667,1,0,0,1.06687,scale,,,,,,0.302267034,0.244948974,0.2468,0.2,stimuli/lakes/602017_left.png,stimuli/lakes/602017_right.png,,,,0,46,46,17,1,,,,,
,,,,,,,$5da753d65c6987001335a067,2020-07-21_17h09.25.073,fisher_task,2020.1.3,Win32,60,0.063802083,-0.266927083,1,0,0,1.26606,scale,,,,,,0.275930788,0.223606798,0.275930788,0.223606798,stimuli/lakes/502016_left.png,stimuli/lakes/502016_right.png,,,,0,47,47,16,1,,,,,
,,,,,,,$5da753d65c6987001335a067,2020-07-21_17h09.25.073,fisher_task,2020.1.3,Win32,60,-0.080729167,-0.276041667,1,0,0,1.48359,scale,,,,,,0.3702,0.3,0.1234,0.1,stimuli/lakes/906088_left.png,stimuli/lakes/906088_right.png,,,,0,48,48,88,1,,,,,
,,,,,,,$5da753d65c6987001335a067,2020-07-21_17h09.25.073,fisher_task,2020.1.3,Win32,60,-0.022135417,-0.26953125,1,0,0,1.515405,scale,,,,,,0.1234,0.1,0.3702,0.3,stimuli/lakes/1090119_left.png,stimuli/lakes/1090119_right.png,,,,0,49,49,119,1,,,,,
,,,,,,,$5da753d65c6987001335a067,2020-07-21_17h09.25.073,fisher_task,2020.1.3,Win32,60,0.115885417,-0.299479167,1,0,0,1.68339,scale,,,,,,0.174513954,0.141421356,0.349027907,0.282842712,stimuli/lakes/203033_left.png,stimuli/lakes/203033_right.png,,,,0,50,50,33,1,,,,,
,,,,,,,$5da753d65c6987001335a067,2020-07-21_17h09.25.073,fisher_task,2020.1.3,Win32,60,-0.157552083,-0.345052083,1,0,0,1.498725,scale,,,,,,0.326485712,0.264575131,0.21373507,0.173205081,stimuli/lakes/7090129_left.png,stimuli/lakes/7090129_right.png,,,,0,51,51,129,1,,,,,
,,,,,,,$5da753d65c6987001335a067,2020-07-21_17h09.25.073,fisher_task,2020.1.3,Win32,60,-0.018229167,-0.272135417,1,0,0,1.499095,scale,,,,,,0.2468,0.2,0.302267034,0.244948974,stimuli/lakes/4080111_left.png,stimuli/lakes/4080111_right.png,,,,0,52,52,111,1,,,,,
,,,,,,,$5da753d65c6987001335a067,2020-07-21_17h09.25.073,fisher_task,2020.1.3,Win32,60,0.0078125,-0.266927083,1,0,0,1.065365,scale,,,,,,0.174513954,0.141421356,0.349027907,0.282842712,stimuli/lakes/206072_left.png,stimuli/lakes/206072_right.png,,,,0,53,53,72,1,,,,,
,,,,,,,$5da753d65c6987001335a067,2020-07-21_17h09.25.073,fisher_task,2020.1.3,Win32,60,-0.140625,-0.3203125,1,0,0,1.199845,scale,,,,,,0.302267034,0.244948974,0.2468,0.2,stimuli/lakes/605065_left.png,stimuli/lakes/605065_right.png,,,,0,54,54,65,1,,,,,
,,,,,,,$5da753d65c6987001335a067,2020-07-21_17h09.25.073,fisher_task,2020.1.3,Win32,60,0.001302083,-0.268229167,1,0,0,1.333675,scale,,,,,,0.302267034,0.244948974,0.2468,0.2,stimuli/lakes/603028_left.png,stimuli/lakes/603028_right.png,,,,0,55,55,28,1,,,,,
,,,,,,,$5da753d65c6987001335a067,2020-07-21_17h09.25.073,fisher_task,2020.1.3,Win32,60,-0.057291667,-0.268229167,1,0,0,1.28273,scale,,,,,,0.302267034,0.244948974,0.2468,0.2,stimuli/lakes/607094_left.png,stimuli/lakes/607094_right.png,,,,0,56,56,94,1,,,,,
,,,,,,,$5da753d65c6987001335a067,2020-07-21_17h09.25.073,fisher_task,2020.1.3,Win32,60,-0.01171875,-0.270833333,1,0,0,1.349785,scale,,,,,,0.3702,0.3,0.1234,0.1,stimuli/lakes/902022_left.png,stimuli/lakes/902022_right.png,,,,0,57,57,22,1,,,,,
,,,,,,,$5da753d65c6987001335a067,2020-07-21_17h09.25.073,fisher_task,2020.1.3,Win32,60,-0.02734375,-0.270833333,1,0,0,1.24888,scale,,,,,,0.3702,0.3,0.1234,0.1,stimuli/lakes/905070_left.png,stimuli/lakes/905070_right.png,,,,0,58,58,70,1,,,,,
,,,,,,,$5da753d65c6987001335a067,2020-07-21_17h09.25.073,fisher_task,2020.1.3,Win32,60,-0.005208333,-0.264322917,1,0,0,1.315195,scale,,,,,,0.2468,0.2,0.302267034,0.244948974,stimuli/lakes/4070101_left.png,stimuli/lakes/4070101_right.png,,,,0,59,59,101,1,,,,,
,,,,,,,$5da753d65c6987001335a067,2020-07-21_17h09.25.073,fisher_task,2020.1.3,Win32,60,-0.005208333,-0.264322917,1,0,0,0.94659,scale,,,,,,0.3702,0.3,0.1234,0.1,stimuli/lakes/901010_left.png,stimuli/lakes/901010_right.png,,,,0,60,60,10,1,,,,,
,,,,,,,$5da753d65c6987001335a067,2020-07-21_17h09.25.073,fisher_task,2020.1.3,Win32,60,0.009114583,-0.264322917,1,0,0,1.083485,scale,,,,,,0.2468,0.2,0.302267034,0.244948974,stimuli/lakes/405063_left.png,stimuli/lakes/405063_right.png,,,,0,61,61,63,1,,,,,
,,,,,,,$5da753d65c6987001335a067,2020-07-21_17h09.25.073,fisher_task,2020.1.3,Win32,60,-0.131510417,-0.325520833,1,0,0,1.282915,scale,,,,,,0.349027907,0.282842712,0.174513954,0.141421356,stimuli/lakes/8080118_left.png,stimuli/lakes/8080118_right.png,,,,0,62,62,118,1,,,,,
,,,,,,,$5da753d65c6987001335a067,2020-07-21_17h09.25.073,fisher_task,2020.1.3,Win32,60,0.001302083,-0.26953125,1,0,0,1.633455,scale,,,,,,0.326485712,0.264575131,0.21373507,0.173205081,stimuli/lakes/703038_left.png,stimuli/lakes/703038_right.png,,,,0,63,63,38,1,,,,,
,,,,,,,$5da753d65c6987001335a067,2020-07-21_17h09.25.073,fisher_task,2020.1.3,Win32,60,-0.114583333,-0.315104167,1,0,0,1.199625,scale,,,,,,0.302267034,0.244948974,0.2468,0.2,stimuli/lakes/6090127_left.png,stimuli/lakes/6090127_right.png,,,,0,64,64,127,1,,,,,
,,,,,,,$5da753d65c6987001335a067,2020-07-21_17h09.25.073,fisher_task,2020.1.3,Win32,60,-0.009114583,-0.259114583,1,0,0,1.4499,scale,,,,,,0.1234,0.1,0.3702,0.3,stimuli/lakes/107089_left.png,stimuli/lakes/107089_right.png,,,,0,65,65,89,1,,,,,
,,,,,,,$5da753d65c6987001335a067,2020-07-21_17h09.25.073,fisher_task,2020.1.3,Win32,60,-0.15625,-0.34765625,1,0,0,1.34865,scale,,,,,,0.349027907,0.282842712,0.174513954,0.141421356,stimuli/lakes/807096_left.png,stimuli/lakes/807096_right.png,,,space,0,66,66,96,1,2.056765,,,,
,,,,,,,$5da753d65c6987001335a067,2020-07-21_17h09.25.073,fisher_task,2020.1.3,Win32,60,-0.147135417,-0.365885417,1,0,0,1.23257,scale,,,,,,0.326485712,0.264575131,0.21373507,0.173205081,stimuli/lakes/707095_left.png,stimuli/lakes/707095_right.png,,,,0,67,67,95,1,,,,,
,,,,,,,$5da753d65c6987001335a067,2020-07-21_17h09.25.073,fisher_task,2020.1.3,Win32,60,-0.145833333,-0.390625,1,0,0,1.298755,scale,,,,,,0.302267034,0.244948974,0.2468,0.2,stimuli/lakes/6090126_left.png,stimuli/lakes/6090126_right.png,,,,0,68,68,126,1,,,,,
,,,,,,,$5da753d65c6987001335a067,2020-07-21_17h09.25.073,fisher_task,2020.1.3,Win32,60,0.001302083,-0.259114583,1,0,0,1.61649,scale,,,,,,0.3702,0.3,0.1234,0.1,stimuli/lakes/904058_left.png,stimuli/lakes/904058_right.png,,,,0,69,69,58,1,,,,,
,,,,,,,$5da753d65c6987001335a067,2020-07-21_17h09.25.073,fisher_task,2020.1.3,Win32,60,0.022135417,-0.263020833,1,0,0,1.49979,scale,,,,,,0.21373507,0.173205081,0.326485712,0.264575131,stimuli/lakes/305061_left.png,stimuli/lakes/305061_right.png,,,,0,70,70,61,1,,,,,
,,,,,,,$5da753d65c6987001335a067,2020-07-21_17h09.25.073,fisher_task,2020.1.3,Win32,60,0.096354167,-0.276041667,1,0,0,1.0831,scale,,,,,,0.2468,0.2,0.302267034,0.244948974,stimuli/lakes/404053_left.png,stimuli/lakes/404053_right.png,,,,0,71,71,53,1,,,,,
,,,,,,,$5da753d65c6987001335a067,2020-07-21_17h09.25.073,fisher_task,2020.1.3,Win32,60,0.03125,-0.264322917,1,0,0,1.515925,scale,,,,,,0.1234,0.1,0.3702,0.3,stimuli/lakes/106071_left.png,stimuli/lakes/106071_right.png,,,,0,72,72,71,1,,,,,
,,,,,,,$5da753d65c6987001335a067,2020-07-21_17h09.25.073,fisher_task,2020.1.3,Win32,60,0.130208333,-0.309895833,1,0,0,1.56619,scale,,,,,,0.174513954,0.141421356,0.349027907,0.282842712,stimuli/lakes/204042_left.png,stimuli/lakes/204042_right.png,,,,0,73,73,42,1,,,,,
,,,,,,,$5da753d65c6987001335a067,2020-07-21_17h09.25.073,fisher_task,2020.1.3,Win32,60,0.016927083,-0.265625,1,0,0,1.55022,scale,,,,,,0.3702,0.3,0.1234,0.1,stimuli/lakes/904049_left.png,stimuli/lakes/904049_right.png,,,,0,74,74,49,1,,,,,
,,,,,,,$5da753d65c6987001335a067,2020-07-21_17h09.25.073,fisher_task,2020.1.3,Win32,60,0.143229167,-0.319010417,1,0,0,1.11769,scale,,,,,,0.1234,0.1,0.3702,0.3,stimuli/lakes/103023_left.png,stimuli/lakes/103023_right.png,,,,0,75,75,23,1,,,,,
,,,,,,,$5da753d65c6987001335a067,2020-07-21_17h09.25.073,fisher_task,2020.1.3,Win32,60,-0.110677083,-0.30078125,1,0,0,1.49775,scale,,,,,,0.302267034,0.244948974,0.2468,0.2,stimuli/lakes/6070103_left.png,stimuli/lakes/6070103_right.png,,,,0,76,76,103,1,,,,,
,,,,,,,$5da753d65c6987001335a067,2020-07-21_17h09.25.073,fisher_task,2020.1.3,Win32,60,-0.110677083,-0.30078125,1,0,0,1.178125,scale,,,,,,0.349027907,0.282842712,0.174513954,0.141421356,stimuli/lakes/806078_left.png,stimuli/lakes/806078_right.png,,,,0,77,77,78,1,,,,,
,,,,,,,$5da753d65c6987001335a067,2020-07-21_17h09.25.073,fisher_task,2020.1.3,Win32,60,0.154947917,-0.356770833,1,0,0,1.28249,scale,,,,,,0.2468,0.2,0.302267034,0.244948974,stimuli/lakes/402015_left.png,stimuli/lakes/402015_right.png,,,,0,78,78,15,1,,,,,
,,,,,,,$5da753d65c6987001335a067,2020-07-21_17h09.25.073,fisher_task,2020.1.3,Win32,60,0.13671875,-0.397135417,1,0,0,1.44967,scale,,,,,,0.21373507,0.173205081,0.326485712,0.264575131,stimuli/lakes/30101_left.png,stimuli/lakes/30101_right.png,,,,0,79,79,1,1,,,,,
,,,,,,,$5da753d65c6987001335a067,2020-07-21_17h09.25.073,fisher_task,2020.1.3,Win32,60,-0.069010417,-0.272135417,1,0,0,1.665885,scale,,,,,,0.275930788,0.223606798,0.275930788,0.223606798,stimuli/lakes/506084_left.png,stimuli/lakes/506084_right.png,,,,0,80,80,84,1,,,,,
,,,,,,,$5da753d65c6987001335a067,2020-07-21_17h09.25.073,fisher_task,2020.1.3,Win32,60,0.032552083,-0.27734375,1,0,0,1.26554,scale,,,,,,0.302267034,0.244948974,0.2468,0.2,stimuli/lakes/60105_left.png,stimuli/lakes/60105_right.png,,,,0,81,81,5,1,,,,,
,,,,,,,$5da753d65c6987001335a067,2020-07-21_17h09.25.073,fisher_task,2020.1.3,Win32,60,0.001302083,-0.260416667,1,0,0,1.1996,scale,,,,,,0.302267034,0.244948974,0.2468,0.2,stimuli/lakes/60106_left.png,stimuli/lakes/60106_right.png,,,,0,82,82,6,1,,,,,
,,,,,,,$5da753d65c6987001335a067,2020-07-21_17h09.25.073,fisher_task,2020.1.3,Win32,60,0.12109375,-0.31640625,1,0,0,1.131075,scale,,,,,,0.174513954,0.141421356,0.349027907,0.282842712,stimuli/lakes/203024_left.png,stimuli/lakes/203024_right.png,,,,0,83,83,24,1,,,,,
,,,,,,,$5da753d65c6987001335a067,2020-07-21_17h09.25.073,fisher_task,2020.1.3,Win32,60,-0.135416667,-0.34375,1,0,0,1.416265,scale,,,,,,0.326485712,0.264575131,0.21373507,0.173205081,stimuli/lakes/7070104_left.png,stimuli/lakes/7070104_right.png,,,,0,84,84,104,1,,,,,
,,,,,,,$5da753d65c6987001335a067,2020-07-21_17h09.25.073,fisher_task,2020.1.3,Win32,60,0.127604167,-0.28125,1,0,0,1.285585,scale,,,,,,0.2468,0.2,0.302267034,0.244948974,stimuli/lakes/403035_left.png,stimuli/lakes/403035_right.png,,,,0,85,85,35,1,,,,,
,,,,,,,$5da753d65c6987001335a067,2020-07-21_17h09.25.073,fisher_task,2020.1.3,Win32,60,-0.170572917,-0.360677083,1,0,0,1.14999,scale,,,,,,0.326485712,0.264575131,0.21373507,0.173205081,stimuli/lakes/7080117_left.png,stimuli/lakes/7080117_right.png,,,,0,86,86,117,1,,,,,
,,,,,,,$5da753d65c6987001335a067,2020-07-21_17h09.25.073,fisher_task,2020.1.3,Win32,60,-0.170572917,-0.360677083,1,0,0,1.083805,scale,,,,,,0.275930788,0.223606798,0.275930788,0.223606798,stimuli/lakes/507093_left.png,stimuli/lakes/507093_right.png,,,,0,87,87,93,1,,,,,
,,,,,,,$5da753d65c6987001335a067,2020-07-21_17h09.25.073,fisher_task,2020.1.3,Win32,60,0.123697917,-0.309895833,1,0,0,1.26579,scale,,,,,,0.21373507,0.173205081,0.326485712,0.264575131,stimuli/lakes/304043_left.png,stimuli/lakes/304043_right.png,,,space,0,88,88,43,1,1.970535,,,,
,,,,,,,$5da753d65c6987001335a067,2020-07-21_17h09.25.073,fisher_task,2020.1.3,Win32,60,-0.0078125,-0.26171875,1,0,0,1.332955,scale,,,,,,0.302267034,0.244948974,0.2468,0.2,stimuli/lakes/604046_left.png,stimuli/lakes/604046_right.png,,,,0,89,89,46,1,,,,,
,,,,,,,$5da753d65c6987001335a067,2020-07-21_17h09.25.073,fisher_task,2020.1.3,Win32,60,0.151041667,-0.295572917,1,0,0,1.133485,scale,,,,,,0.21373507,0.173205081,0.326485712,0.264575131,stimuli/lakes/303025_left.png,stimuli/lakes/303025_right.png,,,,0,90,90,25,1,,,,,
,,,,,,,$5da753d65c6987001335a067,2020-07-21_17h09.25.073,fisher_task,2020.1.3,Win32,60,-0.180989583,-0.354166667,1,0,0,1.448225,scale,,,,,,0.2468,0.2,0.302267034,0.244948974,stimuli/lakes/4090123_left.png,stimuli/lakes/4090123_right.png,,,,0,91,91,123,1,,,,,
,,,,,,,$5da753d65c6987001335a067,2020-07-21_17h09.25.073,fisher_task,2020.1.3,Win32,60,0.016927083,-0.274739583,1,0,0,1.432715,scale,,,,,,0.21373507,0.173205081,0.326485712,0.264575131,stimuli/lakes/307091_left.png,stimuli/lakes/307091_right.png,,,,0,92,92,91,1,,,,,
,,,,,,,$5da753d65c6987001335a067,2020-07-21_17h09.25.073,fisher_task,2020.1.3,Win32,60,0.013020833,-0.26953125,1,0,0,1.099865,scale,,,,,,0.349027907,0.282842712,0.174513954,0.141421356,stimuli/lakes/802021_left.png,stimuli/lakes/802021_right.png,,,,0,93,93,21,1,,,,,
,,,,,,,$5da753d65c6987001335a067,2020-07-21_17h09.25.073,fisher_task,2020.1.3,Win32,60,-0.06640625,-0.270833333,1,0,0,1.19981,scale,,,,,,0.302267034,0.244948974,0.2468,0.2,stimuli/lakes/606076_left.png,stimuli/lakes/606076_right.png,,,,0,94,94,76,1,,,,,
,,,,,,,$5da753d65c6987001335a067,2020-07-21_17h09.25.073,fisher_task,2020.1.3,Win32,60,0.063802083,-0.255208333,1,0,0,1.231175,scale,,,,,,0.302267034,0.244948974,0.2468,0.2,stimuli/lakes/603037_left.png,stimuli/lakes/603037_right.png,,,,0,95,95,37,1,,,,,
,,,,,,,$5da753d65c6987001335a067,2020-07-21_17h09.25.073,fisher_task,2020.1.3,Win32,60,-0.001302083,-0.251302083,1,0,0,1.183025,scale,,,,,,0.3702,0.3,0.1234,0.1,stimuli/lakes/903040_left.png,stimuli/lakes/903040_right.png,,,,0,96,96,40,1,,,,,
,,,,,,,$5da753d65c6987001335a067,2020-07-21_17h09.25.073,fisher_task,2020.1.3,Win32,60,0.079427083,-0.286458333,1,0,0,1.03213,scale,,,,,,0.21373507,0.173205081,0.326485712,0.264575131,stimuli/lakes/30100_left.png,stimuli/lakes/30100_right.png,,,,0,97,97,0,1,,,,,
,,,,,,,$5da753d65c6987001335a067,2020-07-21_17h09.25.073,fisher_task,2020.1.3,Win32,60,0.0859375,-0.291666667,1,0,0,1.14969,scale,,,,,,0.275930788,0.223606798,0.275930788,0.223606798,stimuli/lakes/50104_left.png,stimuli/lakes/50104_right.png,,,,0,98,98,4,1,,,,,
,,,,,,,$5da753d65c6987001335a067,2020-07-21_17h09.25.073,fisher_task,2020.1.3,Win32,60,-0.010416667,-0.2734375,1,0,0,1.198915,scale,,,,,,0.174513954,0.141421356,0.349027907,0.282842712,stimuli/lakes/207090_left.png,stimuli/lakes/207090_right.png,,,,0,99,99,90,1,,,,,
,,,,,,,$5da753d65c6987001335a067,2020-07-21_17h09.25.073,fisher_task,2020.1.3,Win32,60,-0.016927083,-0.260416667,1,0,0,1.15006,scale,,,,,,0.2468,0.2,0.302267034,0.244948974,stimuli/lakes/406083_left.png,stimuli/lakes/406083_right.png,,,,0,100,100,83,1,,,,,
,,,,,,,$5da753d65c6987001335a067,2020-07-21_17h09.25.073,fisher_task,2020.1.3,Win32,60,-0.04296875,-0.260416667,1,0,0,1.33321,scale,,,,,,0.2468,0.2,0.302267034,0.244948974,stimuli/lakes/4090124_left.png,stimuli/lakes/4090124_right.png,,,,0,101,101,124,1,,,,,
,,,,,,,$5da753d65c6987001335a067,2020-07-21_17h09.25.073,fisher_task,2020.1.3,Win32,60,-0.001302083,-0.26171875,1,0,0,2.066,scale,,,,,,0.326485712,0.264575131,0.21373507,0.173205081,stimuli/lakes/70107_left.png,stimuli/lakes/70107_right.png,,,,0,102,102,7,1,,,,,
,,,,,,,$5da753d65c6987001335a067,2020-07-21_17h09.25.073,fisher_task,2020.1.3,Win32,60,-0.049479167,-0.26171875,1,0,0,1.04943,scale,,,,,,0.349027907,0.282842712,0.174513954,0.141421356,stimuli/lakes/804048_left.png,stimuli/lakes/804048_right.png,,,,0,103,103,48,1,,,,,
,,,,,,,$5da753d65c6987001335a067,2020-07-21_17h09.25.073,fisher_task,2020.1.3,Win32,60,0.049479167,-0.28125,1,0,0,1.033075,scale,,,,,,0.2468,0.2,0.302267034,0.244948974,stimuli/lakes/40103_left.png,stimuli/lakes/40103_right.png,,,,0,104,104,3,1,,,,,
,,,,,,,$5da753d65c6987001335a067,2020-07-21_17h09.25.073,fisher_task,2020.1.3,Win32,60,0.005208333,-0.26953125,1,0,0,1.932875,scale,,,,,,0.275930788,0.223606798,0.275930788,0.223606798,stimuli/lakes/504045_left.png,stimuli/lakes/504045_right.png,,,,0,105,105,45,1,,,,,
,,,,,,,$5da753d65c6987001335a067,2020-07-21_17h09.25.073,fisher_task,2020.1.3,Win32,60,0,-0.265625,1,0,0,1.00045,scale,,,,,,0.174513954,0.141421356,0.349027907,0.282842712,stimuli/lakes/207099_left.png,stimuli/lakes/207099_right.png,,,,0,106,106,99,1,,,,,
,,,,,,,$5da753d65c6987001335a067,2020-07-21_17h09.25.073,fisher_task,2020.1.3,Win32,60,-0.122395833,-0.3046875,1,0,0,1.31614,scale,,,,,,0.3702,0.3,0.1234,0.1,stimuli/lakes/9070106_left.png,stimuli/lakes/9070106_right.png,,,,0,107,107,106,1,,,,,
,,,,,,,$5da753d65c6987001335a067,2020-07-21_17h09.25.073,fisher_task,2020.1.3,Win32,60,-0.026041667,-0.265625,1,0,0,1.16495,scale,,,,,,0.3702,0.3,0.1234,0.1,stimuli/lakes/903031_left.png,stimuli/lakes/903031_right.png,,,,0,108,108,31,1,,,,,
,,,,,,,$5da753d65c6987001335a067,2020-07-21_17h09.25.073,fisher_task,2020.1.3,Win32,60,-0.072916667,-0.274739583,1,0,0,1.73252,scale,,,,,,0.174513954,0.141421356,0.349027907,0.282842712,stimuli/lakes/2080108_left.png,stimuli/lakes/2080108_right.png,,,,0,109,109,108,1,,,,,
,,,,,,,$5da753d65c6987001335a067,2020-07-21_17h09.25.073,fisher_task,2020.1.3,Win32,60,0.052083333,-0.270833333,1,0,0,1.766475,scale,,,,,,0.1234,0.1,0.3702,0.3,stimuli/lakes/104041_left.png,stimuli/lakes/104041_right.png,,,space,0,110,110,41,1,1.648445,,,,
,,,,,,,$5da753d65c6987001335a067,2020-07-21_17h09.25.073,fisher_task,2020.1.3,Win32,60,0.018229167,-0.255208333,1,0,0,1.0669,scale,,,,,,0.21373507,0.173205081,0.326485712,0.264575131,stimuli/lakes/3080109_left.png,stimuli/lakes/3080109_right.png,,,,0,111,111,109,1,,,,,
,,,,,,,$5da753d65c6987001335a067,2020-07-21_17h09.25.073,fisher_task,2020.1.3,Win32,60,-0.02734375,-0.25390625,1,0,0,0.967175,scale,,,,,,0.326485712,0.264575131,0.21373507,0.173205081,stimuli/lakes/702020_left.png,stimuli/lakes/702020_right.png,,,,0,112,112,20,1,,,,,
,,,,,,,$5da753d65c6987001335a067,2020-07-21_17h09.25.073,fisher_task,2020.1.3,Win32,60,-0.067708333,-0.26171875,1,0,0,1.15019,scale,,,,,,0.349027907,0.282842712,0.174513954,0.141421356,stimuli/lakes/806087_left.png,stimuli/lakes/806087_right.png,,,,0,113,113,87,1,,,,,
,,,,,,,$5da753d65c6987001335a067,2020-07-21_17h09.25.073,fisher_task,2020.1.3,Win32,60,-0.069010417,-0.26171875,1,0,0,1.44988,scale,,,,,,0.275930788,0.223606798,0.275930788,0.223606798,stimuli/lakes/506075_left.png,stimuli/lakes/506075_right.png,,,,0,114,114,75,1,,,,,
,,,,,,,$5da753d65c6987001335a067,2020-07-21_17h09.25.073,fisher_task,2020.1.3,Win32,60,0.091145833,-0.259114583,1,0,0,0.999705,scale,,,,,,0.21373507,0.173205081,0.326485712,0.264575131,stimuli/lakes/303034_left.png,stimuli/lakes/303034_right.png,,,,0,115,115,34,1,,,,,
,,,,,,,$5da753d65c6987001335a067,2020-07-21_17h09.25.073,fisher_task,2020.1.3,Win32,60,-0.100260417,-0.2890625,1,0,0,1.135995,scale,,,,,,0.326485712,0.264575131,0.21373507,0.173205081,stimuli/lakes/705068_left.png,stimuli/lakes/705068_right.png,,,,0,116,116,68,1,,,,,
,,,,,,,$5da753d65c6987001335a067,2020-07-21_17h09.25.073,fisher_task,2020.1.3,Win32,60,0.052083333,-0.2890625,1,0,0,1.014205,scale,,,,,,0.2468,0.2,0.302267034,0.244948974,stimuli/lakes/403026_left.png,stimuli/lakes/403026_right.png,,,,0,117,117,26,1,,,,,
,,,,,,,$5da753d65c6987001335a067,2020-07-21_17h09.25.073,fisher_task,2020.1.3,Win32,60,-0.06640625,-0.291666667,1,0,0,0.98207,scale,,,,,,0.326485712,0.264575131,0.21373507,0.173205081,stimuli/lakes/706086_left.png,stimuli/lakes/706086_right.png,,,,0,118,118,86,1,,,,,
,,,,,,,$5da753d65c6987001335a067,2020-07-21_17h09.25.073,fisher_task,2020.1.3,Win32,60,-0.06640625,-0.291666667,1,0,0,1.03328,scale,,,,,,0.2468,0.2,0.302267034,0.244948974,stimuli/lakes/407092_left.png,stimuli/lakes/407092_right.png,,,,0,119,119,92,1,,,,,
,,,,,,,$5da753d65c6987001335a067,2020-07-21_17h09.25.073,fisher_task,2020.1.3,Win32,60,0.040364583,-0.28515625,1,0,0,1.04977,scale,,,,,,0.174513954,0.141421356,0.349027907,0.282842712,stimuli/lakes/204051_left.png,stimuli/lakes/204051_right.png,,,,0,120,120,51,1,,,,,
,,,,,,,$5da753d65c6987001335a067,2020-07-21_17h09.25.073,fisher_task,2020.1.3,Win32,60,-0.010416667,-0.26171875,1,0,0,1.09966,scale,,,,,,0.1234,0.1,0.3702,0.3,stimuli/lakes/107098_left.png,stimuli/lakes/107098_right.png,,,,0,121,121,98,1,,,,,
,,,,,,,$5da753d65c6987001335a067,2020-07-21_17h09.25.073,fisher_task,2020.1.3,Win32,60,-0.029947917,-0.2578125,1,0,0,1.182005,scale,,,,,,0.326485712,0.264575131,0.21373507,0.173205081,stimuli/lakes/703029_left.png,stimuli/lakes/703029_right.png,,,,0,122,122,29,1,,,,,
,,,,,,,$5da753d65c6987001335a067,2020-07-21_17h09.25.073,fisher_task,2020.1.3,Win32,60,0.09375,-0.260416667,1,0,0,1.19963,scale,,,,,,0.1234,0.1,0.3702,0.3,stimuli/lakes/104050_left.png,stimuli/lakes/104050_right.png,,,,0,123,123,50,1,,,,,
,,,,,,,$5da753d65c6987001335a067,2020-07-21_17h09.25.073,fisher_task,2020.1.3,Win32,60,0.104166667,-0.28515625,1,0,0,1.049465,scale,,,,,,0.2468,0.2,0.302267034,0.244948974,stimuli/lakes/405064_left.png,stimuli/lakes/405064_right.png,,,,0,124,124,64,1,,,,,
,,,,,,,$5da753d65c6987001335a067,2020-07-21_17h09.25.073,fisher_task,2020.1.3,Win32,60,0.145833333,-0.34375,1,0,0,1.36618,scale,,,,,,0.174513954,0.141421356,0.349027907,0.282842712,stimuli/lakes/202011_left.png,stimuli/lakes/202011_right.png,,,,0,125,125,11,1,,,,,
,,,,,,,$5da753d65c6987001335a067,2020-07-21_17h09.25.073,fisher_task,2020.1.3,Win32,60,-0.010416667,-0.26171875,1,0,0,1.40071,scale,,,,,,0.349027907,0.282842712,0.174513954,0.141421356,stimuli/lakes/804057_left.png,stimuli/lakes/804057_right.png,,,,0,126,126,57,1,,,,,
,,,,,,,$5da753d65c6987001335a067,2020-07-21_17h09.25.073,fisher_task,2020.1.3,Win32,60,-0.095052083,-0.302083333,1,0,0,1.2654,scale,,,,,,0.349027907,0.282842712,0.174513954,0.141421356,stimuli/lakes/8070105_left.png,stimuli/lakes/8070105_right.png,,,,0,127,127,105,1,,,,,
,,,,,,,$5da753d65c6987001335a067,2020-07-21_17h09.25.073,fisher_task,2020.1.3,Win32,60,0.157552083,-0.37890625,1,0,0,1.11625,scale,,,,,,0.21373507,0.173205081,0.326485712,0.264575131,stimuli/lakes/302013_left.png,stimuli/lakes/302013_right.png,,,,0,128,128,13,1,,,,,
,,,,,,,$5da753d65c6987001335a067,2020-07-21_17h09.25.073,fisher_task,2020.1.3,Win32,60,-0.13671875,-0.3828125,1,0,0,1.333135,scale,,,,,,0.302267034,0.244948974,0.2468,0.2,stimuli/lakes/6080114_left.png,stimuli/lakes/6080114_right.png,,,,0,129,129,114,1,,,,,
,,,,,,,$5da753d65c6987001335a067,2020-07-21_17h09.25.073,fisher_task,2020.1.3,Win32,60,,,,,,,,,,,,,,,,,,,,,,,,,,,,space,7.550025,space,17.002875
