keySpace.keys,instructions.thisRepN,instructions.thisTrialN,instructions.thisN,instructions.thisIndex,instructions.ran,participant,date,expName,psychopyVersion,OS,frameRate,mouse.x,mouse.y,mouse.leftButton,mouse.midButton,mouse.rightButton,mouse.time,mouse.clicked_name,training.thisRepN,training.thisTrialN,training.thisN,training.thisIndex,training.ran,widthBasketLeft,heightBasketLeft,widthBasketRight,heightBasketRight,leftLake,rightLake,space2.keys,space2.rt,space1.keys,trials.thisRepN,trials.thisTrialN,trials.thisN,trials.thisIndex,trials.ran,space1.rt,finalSpace1.keys,finalSpace1.rt,finalSpace2.keys,finalSpace2.rt
,0,0,0,0,1,$5ecbd0bfd068807844fa4170,2020-07-21_12h19.05.435,fisher_task,2020.1.3,Win32,60,,,,,,,,,,,,,,,,,,,,,,,,,,,,,,,
,,,,,,$5ecbd0bfd068807844fa4170,2020-07-21_12h19.05.435,fisher_task,2020.1.3,Win32,60,0.138671875,-0.310546875,1,0,0,4.732,scale,0,0,0,0,1,0.275930788,0.223606798,0.275930788,0.223606798,stimuli/training/20_left.png,stimuli/training/20_right.png,,,,,,,,,,,,,
,,,,,,$5ecbd0bfd068807844fa4170,2020-07-21_12h19.05.435,fisher_task,2020.1.3,Win32,60,-0.145507813,-0.321289063,1,0,0,2.086,scale,0,1,1,1,1,0.275930788,0.223606798,0.275930788,0.223606798,stimuli/training/80_left.png,stimuli/training/80_right.png,,,,,,,,,,,,,
,,,,,,$5ecbd0bfd068807844fa4170,2020-07-21_12h19.05.435,fisher_task,2020.1.3,Win32,60,0.192382813,-0.409179688,1,0,0,2.58,scale,0,2,2,2,1,0.174513954,0.141421356,0.349027907,0.282842712,stimuli/training/50_left.png,stimuli/training/50_right.png,,,,,,,,,,,,,
,,,,,,$5ecbd0bfd068807844fa4170,2020-07-21_12h19.05.435,fisher_task,2020.1.3,Win32,60,-0.125976563,-0.288085938,1,0,0,2.557,scale,0,3,3,3,1,0.349027907,0.282842712,0.174513954,0.141421356,stimuli/training/50_left.png,stimuli/training/50_right.png,,,,,,,,,,,,,
,,,,,,$5ecbd0bfd068807844fa4170,2020-07-21_12h19.05.435,fisher_task,2020.1.3,Win32,60,-0.005859375,-0.23046875,1,0,0,3.082,scale,0,4,4,4,1,0.275930788,0.223606798,0.275930788,0.223606798,stimuli/training/50_left.png,stimuli/training/50_right.png,,,,,,,,,,,,,
,,,,,,$5ecbd0bfd068807844fa4170,2020-07-21_12h19.05.435,fisher_task,2020.1.3,Win32,60,0.196289063,-0.422851563,1,0,0,2.092,scale,0,5,5,5,1,0.174513954,0.141421356,0.349027907,0.282842712,stimuli/training/20_left.png,stimuli/training/20_right.png,,,,,,,,,,,,,
,,,,,,$5ecbd0bfd068807844fa4170,2020-07-21_12h19.05.435,fisher_task,2020.1.3,Win32,60,-0.188476563,-0.416992188,1,0,0,1.622,scale,0,6,6,6,1,0.349027907,0.282842712,0.174513954,0.141421356,stimuli/training/80_left.png,stimuli/training/80_right.png,,,,,,,,,,,,,
,,,,,,$5ecbd0bfd068807844fa4170,2020-07-21_12h19.05.435,fisher_task,2020.1.3,Win32,60,0.192382813,-0.420898438,1,0,0,2.073,scale,0,7,7,7,1,0.1234,0.1,0.3702,0.3,stimuli/training/30_left.png,stimuli/training/30_right.png,,,,,,,,,,,,,
,,,,,,$5ecbd0bfd068807844fa4170,2020-07-21_12h19.05.435,fisher_task,2020.1.3,Win32,60,-0.170898438,-0.373046875,1,0,0,2.416,scale,0,8,8,8,1,0.3702,0.3,0.1234,0.1,stimuli/training/70_left.png,stimuli/training/70_right.png,,,,,,,,,,,,,
,,,,,,$5ecbd0bfd068807844fa4170,2020-07-21_12h19.05.435,fisher_task,2020.1.3,Win32,60,-0.200195313,-0.43359375,1,0,0,1.589,scale,0,9,9,9,1,0.326485712,0.264575131,0.21373507,0.173205081,stimuli/training/90_left.png,stimuli/training/90_right.png,,,,,,,,,,,,,
,,,,,,$5ecbd0bfd068807844fa4170,2020-07-21_12h19.05.435,fisher_task,2020.1.3,Win32,60,0.190429688,-0.427734375,1,0,0,1.6,scale,0,10,10,10,1,0.21373507,0.173205081,0.326485712,0.264575131,stimuli/training/10_left.png,stimuli/training/10_right.png,,,,,,,,,,,,,
,,,,,,$5ecbd0bfd068807844fa4170,2020-07-21_12h19.05.435,fisher_task,2020.1.3,Win32,60,0.017578125,-0.219726563,1,0,0,3.897,scale,,,,,,0.326485712,0.264575131,0.21373507,0.173205081,stimuli/lakes/704056_left.png,stimuli/lakes/704056_right.png,space,10.424,,0,0,0,56,1,,,,,
,,,,,,$5ecbd0bfd068807844fa4170,2020-07-21_12h19.05.435,fisher_task,2020.1.3,Win32,60,-0.09765625,-0.271484375,1,0,0,2.066,scale,,,,,,0.349027907,0.282842712,0.174513954,0.141421356,stimuli/lakes/804057_left.png,stimuli/lakes/804057_right.png,,,,0,1,1,57,1,,,,,
,,,,,,$5ecbd0bfd068807844fa4170,2020-07-21_12h19.05.435,fisher_task,2020.1.3,Win32,60,-0.134765625,-0.31640625,1,0,0,1.847,scale,,,,,,0.349027907,0.282842712,0.174513954,0.141421356,stimuli/lakes/805069_left.png,stimuli/lakes/805069_right.png,,,,0,2,2,69,1,,,,,
,,,,,,$5ecbd0bfd068807844fa4170,2020-07-21_12h19.05.435,fisher_task,2020.1.3,Win32,60,0.1484375,-0.337890625,1,0,0,1.667,scale,,,,,,0.1234,0.1,0.3702,0.3,stimuli/lakes/103023_left.png,stimuli/lakes/103023_right.png,,,,0,3,3,23,1,,,,,
,,,,,,$5ecbd0bfd068807844fa4170,2020-07-21_12h19.05.435,fisher_task,2020.1.3,Win32,60,-0.180664063,-0.393554688,1,0,0,1.591,scale,,,,,,0.3702,0.3,0.1234,0.1,stimuli/lakes/9070106_left.png,stimuli/lakes/9070106_right.png,,,,0,4,4,106,1,,,,,
,,,,,,$5ecbd0bfd068807844fa4170,2020-07-21_12h19.05.435,fisher_task,2020.1.3,Win32,60,-0.059570313,-0.25,1,0,0,1.676,scale,,,,,,0.326485712,0.264575131,0.21373507,0.173205081,stimuli/lakes/703038_left.png,stimuli/lakes/703038_right.png,,,,0,5,5,38,1,,,,,
,,,,,,$5ecbd0bfd068807844fa4170,2020-07-21_12h19.05.435,fisher_task,2020.1.3,Win32,60,-0.172851563,-0.413085938,1,0,0,1.567,scale,,,,,,0.349027907,0.282842712,0.174513954,0.141421356,stimuli/lakes/8080118_left.png,stimuli/lakes/8080118_right.png,,,,0,6,6,118,1,,,,,
,,,,,,$5ecbd0bfd068807844fa4170,2020-07-21_12h19.05.435,fisher_task,2020.1.3,Win32,60,0.065429688,-0.248046875,1,0,0,1.708,scale,,,,,,0.21373507,0.173205081,0.326485712,0.264575131,stimuli/lakes/305061_left.png,stimuli/lakes/305061_right.png,,,,0,7,7,61,1,,,,,
,,,,,,$5ecbd0bfd068807844fa4170,2020-07-21_12h19.05.435,fisher_task,2020.1.3,Win32,60,0.001953125,-0.24609375,1,0,0,3.852,scale,,,,,,0.302267034,0.244948974,0.2468,0.2,stimuli/lakes/60105_left.png,stimuli/lakes/60105_right.png,,,,0,8,8,5,1,,,,,
,,,,,,$5ecbd0bfd068807844fa4170,2020-07-21_12h19.05.435,fisher_task,2020.1.3,Win32,60,-0.002929688,-0.2421875,1,0,0,1.815,scale,,,,,,0.2468,0.2,0.302267034,0.244948974,stimuli/lakes/4090124_left.png,stimuli/lakes/4090124_right.png,,,,0,9,9,124,1,,,,,
,,,,,,$5ecbd0bfd068807844fa4170,2020-07-21_12h19.05.435,fisher_task,2020.1.3,Win32,60,-0.00390625,-0.245117188,1,0,0,1.792,scale,,,,,,0.326485712,0.264575131,0.21373507,0.173205081,stimuli/lakes/702020_left.png,stimuli/lakes/702020_right.png,,,,0,10,10,20,1,,,,,
,,,,,,$5ecbd0bfd068807844fa4170,2020-07-21_12h19.05.435,fisher_task,2020.1.3,Win32,60,-0.112304688,-0.325195313,1,0,0,1.645,scale,,,,,,0.275930788,0.223606798,0.275930788,0.223606798,stimuli/lakes/5070102_left.png,stimuli/lakes/5070102_right.png,,,,0,11,11,102,1,,,,,
,,,,,,$5ecbd0bfd068807844fa4170,2020-07-21_12h19.05.435,fisher_task,2020.1.3,Win32,60,-0.10546875,-0.303710938,1,0,0,1.752,scale,,,,,,0.275930788,0.223606798,0.275930788,0.223606798,stimuli/lakes/506084_left.png,stimuli/lakes/506084_right.png,,,,0,12,12,84,1,,,,,
,,,,,,$5ecbd0bfd068807844fa4170,2020-07-21_12h19.05.435,fisher_task,2020.1.3,Win32,60,0.172851563,-0.399414063,1,0,0,1.399,scale,,,,,,0.21373507,0.173205081,0.326485712,0.264575131,stimuli/lakes/302012_left.png,stimuli/lakes/302012_right.png,,,,0,13,13,12,1,,,,,
,,,,,,$5ecbd0bfd068807844fa4170,2020-07-21_12h19.05.435,fisher_task,2020.1.3,Win32,60,-0.017578125,-0.223632813,1,0,0,1.821,scale,,,,,,0.1234,0.1,0.3702,0.3,stimuli/lakes/107089_left.png,stimuli/lakes/107089_right.png,,,,0,14,14,89,1,,,,,
,,,,,,$5ecbd0bfd068807844fa4170,2020-07-21_12h19.05.435,fisher_task,2020.1.3,Win32,60,0.056640625,-0.25390625,1,0,0,2.51,scale,,,,,,0.174513954,0.141421356,0.349027907,0.282842712,stimuli/lakes/205060_left.png,stimuli/lakes/205060_right.png,,,,0,15,15,60,1,,,,,
,,,,,,$5ecbd0bfd068807844fa4170,2020-07-21_12h19.05.435,fisher_task,2020.1.3,Win32,60,-0.16015625,-0.407226563,1,0,0,2.966,scale,,,,,,0.326485712,0.264575131,0.21373507,0.173205081,stimuli/lakes/7080117_left.png,stimuli/lakes/7080117_right.png,,,,0,16,16,117,1,,,,,
,,,,,,$5ecbd0bfd068807844fa4170,2020-07-21_12h19.05.435,fisher_task,2020.1.3,Win32,60,0.104492188,-0.275390625,1,0,0,2.163,scale,,,,,,0.2468,0.2,0.302267034,0.244948974,stimuli/lakes/406083_left.png,stimuli/lakes/406083_right.png,,,,0,17,17,83,1,,,,,
,,,,,,$5ecbd0bfd068807844fa4170,2020-07-21_12h19.05.435,fisher_task,2020.1.3,Win32,60,0.071289063,-0.248046875,1,0,0,2.227,scale,,,,,,0.275930788,0.223606798,0.275930788,0.223606798,stimuli/lakes/504054_left.png,stimuli/lakes/504054_right.png,,,,0,18,18,54,1,,,,,
,,,,,,$5ecbd0bfd068807844fa4170,2020-07-21_12h19.05.435,fisher_task,2020.1.3,Win32,60,0.13671875,-0.30859375,1,0,0,1.688,scale,,,,,,0.275930788,0.223606798,0.275930788,0.223606798,stimuli/lakes/503027_left.png,stimuli/lakes/503027_right.png,,,,0,19,19,27,1,,,,,
,,,,,,$5ecbd0bfd068807844fa4170,2020-07-21_12h19.05.435,fisher_task,2020.1.3,Win32,60,-0.126953125,-0.346679688,1,0,0,1.644,scale,,,,,,0.302267034,0.244948974,0.2468,0.2,stimuli/lakes/607094_left.png,stimuli/lakes/607094_right.png,,,,0,20,20,94,1,,,,,
,,,,,,$5ecbd0bfd068807844fa4170,2020-07-21_12h19.05.435,fisher_task,2020.1.3,Win32,60,0.125976563,-0.3203125,1,0,0,1.969,scale,,,,,,0.275930788,0.223606798,0.275930788,0.223606798,stimuli/lakes/504045_left.png,stimuli/lakes/504045_right.png,,,,0,21,21,45,1,,,,,
,,,,,,$5ecbd0bfd068807844fa4170,2020-07-21_12h19.05.435,fisher_task,2020.1.3,Win32,60,0.1484375,-0.34765625,1,0,0,1.707,scale,,,,,,0.1234,0.1,0.3702,0.3,stimuli/lakes/104050_left.png,stimuli/lakes/104050_right.png,,,space,0,22,22,50,1,5.907,,,,
,,,,,,$5ecbd0bfd068807844fa4170,2020-07-21_12h19.05.435,fisher_task,2020.1.3,Win32,60,0.002929688,-0.236328125,1,0,0,1.994,scale,,,,,,0.2468,0.2,0.302267034,0.244948974,stimuli/lakes/405064_left.png,stimuli/lakes/405064_right.png,,,,0,23,23,64,1,,,,,
,,,,,,$5ecbd0bfd068807844fa4170,2020-07-21_12h19.05.435,fisher_task,2020.1.3,Win32,60,0.001953125,-0.243164063,1,0,0,2.231,scale,,,,,,0.174513954,0.141421356,0.349027907,0.282842712,stimuli/lakes/207099_left.png,stimuli/lakes/207099_right.png,,,,0,24,24,99,1,,,,,
,,,,,,$5ecbd0bfd068807844fa4170,2020-07-21_12h19.05.435,fisher_task,2020.1.3,Win32,60,0.00390625,-0.24609375,1,0,0,1.274,scale,,,,,,0.326485712,0.264575131,0.21373507,0.173205081,stimuli/lakes/70107_left.png,stimuli/lakes/70107_right.png,,,,0,25,25,7,1,,,,,
,,,,,,$5ecbd0bfd068807844fa4170,2020-07-21_12h19.05.435,fisher_task,2020.1.3,Win32,60,-0.140625,-0.336914063,1,0,0,2.016,scale,,,,,,0.302267034,0.244948974,0.2468,0.2,stimuli/lakes/605066_left.png,stimuli/lakes/605066_right.png,,,,0,26,26,66,1,,,,,
,,,,,,$5ecbd0bfd068807844fa4170,2020-07-21_12h19.05.435,fisher_task,2020.1.3,Win32,60,0.083007813,-0.278320313,1,0,0,1.607,scale,,,,,,0.2468,0.2,0.302267034,0.244948974,stimuli/lakes/402015_left.png,stimuli/lakes/402015_right.png,,,,0,27,27,15,1,,,,,
,,,,,,$5ecbd0bfd068807844fa4170,2020-07-21_12h19.05.435,fisher_task,2020.1.3,Win32,60,0.006835938,-0.250976563,1,0,0,1.681,scale,,,,,,0.21373507,0.173205081,0.326485712,0.264575131,stimuli/lakes/3080110_left.png,stimuli/lakes/3080110_right.png,,,,0,28,28,110,1,,,,,
,,,,,,$5ecbd0bfd068807844fa4170,2020-07-21_12h19.05.435,fisher_task,2020.1.3,Win32,60,0.06640625,-0.270507813,1,0,0,1.94,scale,,,,,,0.2468,0.2,0.302267034,0.244948974,stimuli/lakes/406074_left.png,stimuli/lakes/406074_right.png,,,,0,29,29,74,1,,,,,
,,,,,,$5ecbd0bfd068807844fa4170,2020-07-21_12h19.05.435,fisher_task,2020.1.3,Win32,60,-0.000976563,-0.25390625,1,0,0,2.631,scale,,,,,,0.1234,0.1,0.3702,0.3,stimuli/lakes/1090119_left.png,stimuli/lakes/1090119_right.png,,,,0,30,30,119,1,,,,,
,,,,,,$5ecbd0bfd068807844fa4170,2020-07-21_12h19.05.435,fisher_task,2020.1.3,Win32,60,-0.071289063,-0.276367188,1,0,0,1.838,scale,,,,,,0.326485712,0.264575131,0.21373507,0.173205081,stimuli/lakes/704047_left.png,stimuli/lakes/704047_right.png,,,,0,31,31,47,1,,,,,
,,,,,,$5ecbd0bfd068807844fa4170,2020-07-21_12h19.05.435,fisher_task,2020.1.3,Win32,60,-0.126953125,-0.318359375,1,0,0,2.952,scale,,,,,,0.326485712,0.264575131,0.21373507,0.173205081,stimuli/lakes/705068_left.png,stimuli/lakes/705068_right.png,,,,0,32,32,68,1,,,,,
,,,,,,$5ecbd0bfd068807844fa4170,2020-07-21_12h19.05.435,fisher_task,2020.1.3,Win32,60,0.115234375,-0.305664063,1,0,0,1.534,scale,,,,,,0.1234,0.1,0.3702,0.3,stimuli/lakes/103032_left.png,stimuli/lakes/103032_right.png,,,,0,33,33,32,1,,,,,
,,,,,,$5ecbd0bfd068807844fa4170,2020-07-21_12h19.05.435,fisher_task,2020.1.3,Win32,60,-0.1328125,-0.3125,1,0,0,1.758,scale,,,,,,0.302267034,0.244948974,0.2468,0.2,stimuli/lakes/605065_left.png,stimuli/lakes/605065_right.png,,,,0,34,34,65,1,,,,,
,,,,,,$5ecbd0bfd068807844fa4170,2020-07-21_12h19.05.435,fisher_task,2020.1.3,Win32,60,-0.158203125,-0.368164063,1,0,0,1.406,scale,,,,,,0.302267034,0.244948974,0.2468,0.2,stimuli/lakes/6080114_left.png,stimuli/lakes/6080114_right.png,,,,0,35,35,114,1,,,,,
,,,,,,$5ecbd0bfd068807844fa4170,2020-07-21_12h19.05.435,fisher_task,2020.1.3,Win32,60,0.08984375,-0.272460938,1,0,0,1.902,scale,,,,,,0.1234,0.1,0.3702,0.3,stimuli/lakes/106080_left.png,stimuli/lakes/106080_right.png,,,,0,36,36,80,1,,,,,
,,,,,,$5ecbd0bfd068807844fa4170,2020-07-21_12h19.05.435,fisher_task,2020.1.3,Win32,60,0.1640625,-0.362304688,1,0,0,1.674,scale,,,,,,0.2468,0.2,0.302267034,0.244948974,stimuli/lakes/40102_left.png,stimuli/lakes/40102_right.png,,,,0,37,37,2,1,,,,,
,,,,,,$5ecbd0bfd068807844fa4170,2020-07-21_12h19.05.435,fisher_task,2020.1.3,Win32,60,-0.083984375,-0.280273438,1,0,0,1.608,scale,,,,,,0.302267034,0.244948974,0.2468,0.2,stimuli/lakes/603028_left.png,stimuli/lakes/603028_right.png,,,,0,38,38,28,1,,,,,
,,,,,,$5ecbd0bfd068807844fa4170,2020-07-21_12h19.05.435,fisher_task,2020.1.3,Win32,60,0.153320313,-0.372070313,1,0,0,1.661,scale,,,,,,0.1234,0.1,0.3702,0.3,stimuli/lakes/104041_left.png,stimuli/lakes/104041_right.png,,,,0,39,39,41,1,,,,,
,,,,,,$5ecbd0bfd068807844fa4170,2020-07-21_12h19.05.435,fisher_task,2020.1.3,Win32,60,0.009765625,-0.251953125,1,0,0,1.861,scale,,,,,,0.3702,0.3,0.1234,0.1,stimuli/lakes/902022_left.png,stimuli/lakes/902022_right.png,,,,0,40,40,22,1,,,,,
,,,,,,$5ecbd0bfd068807844fa4170,2020-07-21_12h19.05.435,fisher_task,2020.1.3,Win32,60,0.020507813,-0.259765625,1,0,0,2.429,scale,,,,,,0.174513954,0.141421356,0.349027907,0.282842712,stimuli/lakes/202011_left.png,stimuli/lakes/202011_right.png,,,,0,41,41,11,1,,,,,
,,,,,,$5ecbd0bfd068807844fa4170,2020-07-21_12h19.05.435,fisher_task,2020.1.3,Win32,60,-0.13671875,-0.34375,1,0,0,2.033,scale,,,,,,0.302267034,0.244948974,0.2468,0.2,stimuli/lakes/606085_left.png,stimuli/lakes/606085_right.png,,,,0,42,42,85,1,,,,,
,,,,,,$5ecbd0bfd068807844fa4170,2020-07-21_12h19.05.435,fisher_task,2020.1.3,Win32,60,-0.069335938,-0.260742188,1,0,0,1.767,scale,,,,,,0.3702,0.3,0.1234,0.1,stimuli/lakes/903031_left.png,stimuli/lakes/903031_right.png,,,,0,43,43,31,1,,,,,
,,,,,,$5ecbd0bfd068807844fa4170,2020-07-21_12h19.05.435,fisher_task,2020.1.3,Win32,60,-0.151367188,-0.340820313,1,0,0,2.53,scale,,,,,,0.275930788,0.223606798,0.275930788,0.223606798,stimuli/lakes/506075_left.png,stimuli/lakes/506075_right.png,,,space,0,44,44,75,1,3.825,,,,
,,,,,,$5ecbd0bfd068807844fa4170,2020-07-21_12h19.05.435,fisher_task,2020.1.3,Win32,60,-0.118164063,-0.295898438,1,0,0,1.45,scale,,,,,,0.326485712,0.264575131,0.21373507,0.173205081,stimuli/lakes/705067_left.png,stimuli/lakes/705067_right.png,,,,0,45,45,67,1,,,,,
,,,,,,$5ecbd0bfd068807844fa4170,2020-07-21_12h19.05.435,fisher_task,2020.1.3,Win32,60,-0.140625,-0.37109375,1,0,0,1.328,scale,,,,,,0.302267034,0.244948974,0.2468,0.2,stimuli/lakes/6080115_left.png,stimuli/lakes/6080115_right.png,,,,0,46,46,115,1,,,,,
,,,,,,$5ecbd0bfd068807844fa4170,2020-07-21_12h19.05.435,fisher_task,2020.1.3,Win32,60,0.059570313,-0.263671875,1,0,0,1.815,scale,,,,,,0.2468,0.2,0.302267034,0.244948974,stimuli/lakes/4070101_left.png,stimuli/lakes/4070101_right.png,,,,0,47,47,101,1,,,,,
,,,,,,$5ecbd0bfd068807844fa4170,2020-07-21_12h19.05.435,fisher_task,2020.1.3,Win32,60,0.005859375,-0.248046875,1,0,0,2.224,scale,,,,,,0.302267034,0.244948974,0.2468,0.2,stimuli/lakes/602018_left.png,stimuli/lakes/602018_right.png,,,,0,48,48,18,1,,,,,
,,,,,,$5ecbd0bfd068807844fa4170,2020-07-21_12h19.05.435,fisher_task,2020.1.3,Win32,60,-0.150390625,-0.415039063,1,0,0,1.616,scale,,,,,,0.326485712,0.264575131,0.21373507,0.173205081,stimuli/lakes/707095_left.png,stimuli/lakes/707095_right.png,,,,0,49,49,95,1,,,,,
,,,,,,$5ecbd0bfd068807844fa4170,2020-07-21_12h19.05.435,fisher_task,2020.1.3,Win32,60,-0.159179688,-0.364257813,1,0,0,1.615,scale,,,,,,0.349027907,0.282842712,0.174513954,0.141421356,stimuli/lakes/806087_left.png,stimuli/lakes/806087_right.png,,,,0,50,50,87,1,,,,,
,,,,,,$5ecbd0bfd068807844fa4170,2020-07-21_12h19.05.435,fisher_task,2020.1.3,Win32,60,-0.157226563,-0.350585938,1,0,0,1.941,scale,,,,,,0.326485712,0.264575131,0.21373507,0.173205081,stimuli/lakes/706086_left.png,stimuli/lakes/706086_right.png,,,,0,51,51,86,1,,,,,
,,,,,,$5ecbd0bfd068807844fa4170,2020-07-21_12h19.05.435,fisher_task,2020.1.3,Win32,60,0.181640625,-0.409179688,1,0,0,1.284,scale,,,,,,0.21373507,0.173205081,0.326485712,0.264575131,stimuli/lakes/30100_left.png,stimuli/lakes/30100_right.png,,,,0,52,52,0,1,,,,,
,,,,,,$5ecbd0bfd068807844fa4170,2020-07-21_12h19.05.435,fisher_task,2020.1.3,Win32,60,0.180664063,-0.404296875,1,0,0,1.276,scale,,,,,,0.21373507,0.173205081,0.326485712,0.264575131,stimuli/lakes/30101_left.png,stimuli/lakes/30101_right.png,,,,0,53,53,1,1,,,,,
,,,,,,$5ecbd0bfd068807844fa4170,2020-07-21_12h19.05.435,fisher_task,2020.1.3,Win32,60,0.17578125,-0.395507813,1,0,0,1.325,scale,,,,,,0.2468,0.2,0.302267034,0.244948974,stimuli/lakes/40103_left.png,stimuli/lakes/40103_right.png,,,,0,54,54,3,1,,,,,
,,,,,,$5ecbd0bfd068807844fa4170,2020-07-21_12h19.05.435,fisher_task,2020.1.3,Win32,60,-0.151367188,-0.356445313,1,0,0,2.003,scale,,,,,,0.302267034,0.244948974,0.2468,0.2,stimuli/lakes/606076_left.png,stimuli/lakes/606076_right.png,,,,0,55,55,76,1,,,,,
,,,,,,$5ecbd0bfd068807844fa4170,2020-07-21_12h19.05.435,fisher_task,2020.1.3,Win32,60,0.000976563,-0.23046875,1,0,0,1.752,scale,,,,,,0.174513954,0.141421356,0.349027907,0.282842712,stimuli/lakes/2090120_left.png,stimuli/lakes/2090120_right.png,,,,0,56,56,120,1,,,,,
,,,,,,$5ecbd0bfd068807844fa4170,2020-07-21_12h19.05.435,fisher_task,2020.1.3,Win32,60,0.106445313,-0.302734375,1,0,0,1.715,scale,,,,,,0.21373507,0.173205081,0.326485712,0.264575131,stimuli/lakes/306073_left.png,stimuli/lakes/306073_right.png,,,,0,57,57,73,1,,,,,
,,,,,,$5ecbd0bfd068807844fa4170,2020-07-21_12h19.05.435,fisher_task,2020.1.3,Win32,60,0.010742188,-0.2578125,1,0,0,1.596,scale,,,,,,0.2468,0.2,0.302267034,0.244948974,stimuli/lakes/4090123_left.png,stimuli/lakes/4090123_right.png,,,,0,58,58,123,1,,,,,
,,,,,,$5ecbd0bfd068807844fa4170,2020-07-21_12h19.05.435,fisher_task,2020.1.3,Win32,60,0.159179688,-0.33984375,1,0,0,1.695,scale,,,,,,0.2468,0.2,0.302267034,0.244948974,stimuli/lakes/403026_left.png,stimuli/lakes/403026_right.png,,,,0,59,59,26,1,,,,,
,,,,,,$5ecbd0bfd068807844fa4170,2020-07-21_12h19.05.435,fisher_task,2020.1.3,Win32,60,0.076171875,-0.2578125,1,0,0,1.449,scale,,,,,,0.21373507,0.173205081,0.326485712,0.264575131,stimuli/lakes/3070100_left.png,stimuli/lakes/3070100_right.png,,,,0,60,60,100,1,,,,,
,,,,,,$5ecbd0bfd068807844fa4170,2020-07-21_12h19.05.435,fisher_task,2020.1.3,Win32,60,-0.145507813,-0.327148438,1,0,0,2.434,scale,,,,,,0.3702,0.3,0.1234,0.1,stimuli/lakes/905070_left.png,stimuli/lakes/905070_right.png,,,,0,61,61,70,1,,,,,
,,,,,,$5ecbd0bfd068807844fa4170,2020-07-21_12h19.05.435,fisher_task,2020.1.3,Win32,60,0.08203125,-0.259765625,1,0,0,2.001,scale,,,,,,0.174513954,0.141421356,0.349027907,0.282842712,stimuli/lakes/207090_left.png,stimuli/lakes/207090_right.png,,,,0,62,62,90,1,,,,,
,,,,,,$5ecbd0bfd068807844fa4170,2020-07-21_12h19.05.435,fisher_task,2020.1.3,Win32,60,-0.145507813,-0.37109375,1,0,0,1.485,scale,,,,,,0.3702,0.3,0.1234,0.1,stimuli/lakes/906088_left.png,stimuli/lakes/906088_right.png,,,,0,63,63,88,1,,,,,
,,,,,,$5ecbd0bfd068807844fa4170,2020-07-21_12h19.05.435,fisher_task,2020.1.3,Win32,60,0.157226563,-0.356445313,1,0,0,1.623,scale,,,,,,0.2468,0.2,0.302267034,0.244948974,stimuli/lakes/405063_left.png,stimuli/lakes/405063_right.png,,,,0,64,64,63,1,,,,,
,,,,,,$5ecbd0bfd068807844fa4170,2020-07-21_12h19.05.435,fisher_task,2020.1.3,Win32,60,-0.084960938,-0.26953125,1,0,0,1.517,scale,,,,,,0.326485712,0.264575131,0.21373507,0.173205081,stimuli/lakes/702019_left.png,stimuli/lakes/702019_right.png,,,,0,65,65,19,1,,,,,
,,,,,,$5ecbd0bfd068807844fa4170,2020-07-21_12h19.05.435,fisher_task,2020.1.3,Win32,60,0.109375,-0.271484375,1,0,0,1.381,scale,,,,,,0.2468,0.2,0.302267034,0.244948974,stimuli/lakes/407092_left.png,stimuli/lakes/407092_right.png,,,space,0,66,66,92,1,1.993,,,,
,,,,,,$5ecbd0bfd068807844fa4170,2020-07-21_12h19.05.435,fisher_task,2020.1.3,Win32,60,0.017578125,-0.239257813,1,0,0,1.691,scale,,,,,,0.349027907,0.282842712,0.174513954,0.141421356,stimuli/lakes/80109_left.png,stimuli/lakes/80109_right.png,,,,0,67,67,9,1,,,,,
,,,,,,$5ecbd0bfd068807844fa4170,2020-07-21_12h19.05.435,fisher_task,2020.1.3,Win32,60,-0.043945313,-0.259765625,1,0,0,1.698,scale,,,,,,0.3702,0.3,0.1234,0.1,stimuli/lakes/901010_left.png,stimuli/lakes/901010_right.png,,,,0,68,68,10,1,,,,,
,,,,,,$5ecbd0bfd068807844fa4170,2020-07-21_12h19.05.435,fisher_task,2020.1.3,Win32,60,-0.1640625,-0.400390625,1,0,0,1.666,scale,,,,,,0.326485712,0.264575131,0.21373507,0.173205081,stimuli/lakes/7090128_left.png,stimuli/lakes/7090128_right.png,,,,0,69,69,128,1,,,,,
,,,,,,$5ecbd0bfd068807844fa4170,2020-07-21_12h19.05.435,fisher_task,2020.1.3,Win32,60,0.172851563,-0.346679688,1,0,0,1.915,scale,,,,,,0.21373507,0.173205081,0.326485712,0.264575131,stimuli/lakes/304043_left.png,stimuli/lakes/304043_right.png,,,,0,70,70,43,1,,,,,
,,,,,,$5ecbd0bfd068807844fa4170,2020-07-21_12h19.05.435,fisher_task,2020.1.3,Win32,60,0.123046875,-0.278320313,1,0,0,1.867,scale,,,,,,0.1234,0.1,0.3702,0.3,stimuli/lakes/107098_left.png,stimuli/lakes/107098_right.png,,,,0,71,71,98,1,,,,,
,,,,,,$5ecbd0bfd068807844fa4170,2020-07-21_12h19.05.435,fisher_task,2020.1.3,Win32,60,-0.181640625,-0.416992188,1,0,0,1.506,scale,,,,,,0.326485712,0.264575131,0.21373507,0.173205081,stimuli/lakes/7090129_left.png,stimuli/lakes/7090129_right.png,,,,0,72,72,129,1,,,,,
,,,,,,$5ecbd0bfd068807844fa4170,2020-07-21_12h19.05.435,fisher_task,2020.1.3,Win32,60,0.134765625,-0.309570313,1,0,0,1.616,scale,,,,,,0.174513954,0.141421356,0.349027907,0.282842712,stimuli/lakes/206072_left.png,stimuli/lakes/206072_right.png,,,,0,73,73,72,1,,,,,
,,,,,,$5ecbd0bfd068807844fa4170,2020-07-21_12h19.05.435,fisher_task,2020.1.3,Win32,60,-0.16015625,-0.369140625,1,0,0,1.652,scale,,,,,,0.326485712,0.264575131,0.21373507,0.173205081,stimuli/lakes/7070104_left.png,stimuli/lakes/7070104_right.png,,,,0,74,74,104,1,,,,,
,,,,,,$5ecbd0bfd068807844fa4170,2020-07-21_12h19.05.435,fisher_task,2020.1.3,Win32,60,0.116210938,-0.287109375,1,0,0,1.631,scale,,,,,,0.21373507,0.173205081,0.326485712,0.264575131,stimuli/lakes/306082_left.png,stimuli/lakes/306082_right.png,,,,0,75,75,82,1,,,,,
,,,,,,$5ecbd0bfd068807844fa4170,2020-07-21_12h19.05.435,fisher_task,2020.1.3,Win32,60,0.02734375,-0.245117188,1,0,0,1.473,scale,,,,,,0.174513954,0.141421356,0.349027907,0.282842712,stimuli/lakes/2080108_left.png,stimuli/lakes/2080108_right.png,,,,0,76,76,108,1,,,,,
,,,,,,$5ecbd0bfd068807844fa4170,2020-07-21_12h19.05.435,fisher_task,2020.1.3,Win32,60,-0.064453125,-0.266601563,1,0,0,1.631,scale,,,,,,0.302267034,0.244948974,0.2468,0.2,stimuli/lakes/603037_left.png,stimuli/lakes/603037_right.png,,,,0,77,77,37,1,,,,,
,,,,,,$5ecbd0bfd068807844fa4170,2020-07-21_12h19.05.435,fisher_task,2020.1.3,Win32,60,-0.159179688,-0.416015625,1,0,0,1.447,scale,,,,,,0.326485712,0.264575131,0.21373507,0.173205081,stimuli/lakes/7080116_left.png,stimuli/lakes/7080116_right.png,,,,0,78,78,116,1,,,,,
,,,,,,$5ecbd0bfd068807844fa4170,2020-07-21_12h19.05.435,fisher_task,2020.1.3,Win32,60,0.005859375,-0.240234375,1,0,0,1.486,scale,,,,,,0.302267034,0.244948974,0.2468,0.2,stimuli/lakes/60106_left.png,stimuli/lakes/60106_right.png,,,,0,79,79,6,1,,,,,
,,,,,,$5ecbd0bfd068807844fa4170,2020-07-21_12h19.05.435,fisher_task,2020.1.3,Win32,60,0.055664063,-0.259765625,1,0,0,1.662,scale,,,,,,0.275930788,0.223606798,0.275930788,0.223606798,stimuli/lakes/503036_left.png,stimuli/lakes/503036_right.png,,,,0,80,80,36,1,,,,,
,,,,,,$5ecbd0bfd068807844fa4170,2020-07-21_12h19.05.435,fisher_task,2020.1.3,Win32,60,0.040039063,-0.255859375,1,0,0,1.869,scale,,,,,,0.2468,0.2,0.302267034,0.244948974,stimuli/lakes/4080111_left.png,stimuli/lakes/4080111_right.png,,,,0,81,81,111,1,,,,,
,,,,,,$5ecbd0bfd068807844fa4170,2020-07-21_12h19.05.435,fisher_task,2020.1.3,Win32,60,-0.11328125,-0.307617188,1,0,0,1.817,scale,,,,,,0.3702,0.3,0.1234,0.1,stimuli/lakes/906079_left.png,stimuli/lakes/906079_right.png,,,,0,82,82,79,1,,,,,
,,,,,,$5ecbd0bfd068807844fa4170,2020-07-21_12h19.05.435,fisher_task,2020.1.3,Win32,60,-0.129882813,-0.32421875,1,0,0,1.649,scale,,,,,,0.302267034,0.244948974,0.2468,0.2,stimuli/lakes/6070103_left.png,stimuli/lakes/6070103_right.png,,,,0,83,83,103,1,,,,,
,,,,,,$5ecbd0bfd068807844fa4170,2020-07-21_12h19.05.435,fisher_task,2020.1.3,Win32,60,0.00390625,-0.265625,1,0,0,1.774,scale,,,,,,0.275930788,0.223606798,0.275930788,0.223606798,stimuli/lakes/502016_left.png,stimuli/lakes/502016_right.png,,,,0,84,84,16,1,,,,,
,,,,,,$5ecbd0bfd068807844fa4170,2020-07-21_12h19.05.435,fisher_task,2020.1.3,Win32,60,-0.10546875,-0.297851563,1,0,0,1.522,scale,,,,,,0.326485712,0.264575131,0.21373507,0.173205081,stimuli/lakes/703029_left.png,stimuli/lakes/703029_right.png,,,,0,85,85,29,1,,,,,
,,,,,,$5ecbd0bfd068807844fa4170,2020-07-21_12h19.05.435,fisher_task,2020.1.3,Win32,60,0.14453125,-0.3359375,1,0,0,1.884,scale,,,,,,0.21373507,0.173205081,0.326485712,0.264575131,stimuli/lakes/304052_left.png,stimuli/lakes/304052_right.png,,,,0,86,86,52,1,,,,,
,,,,,,$5ecbd0bfd068807844fa4170,2020-07-21_12h19.05.435,fisher_task,2020.1.3,Win32,60,-0.166992188,-0.397460938,1,0,0,1.442,scale,,,,,,0.349027907,0.282842712,0.174513954,0.141421356,stimuli/lakes/8070105_left.png,stimuli/lakes/8070105_right.png,,,,0,87,87,105,1,,,,,
,,,,,,$5ecbd0bfd068807844fa4170,2020-07-21_12h19.05.435,fisher_task,2020.1.3,Win32,60,-0.092773438,-0.307617188,1,0,0,1.511,scale,,,,,,0.349027907,0.282842712,0.174513954,0.141421356,stimuli/lakes/803030_left.png,stimuli/lakes/803030_right.png,,,space,0,88,88,30,1,2.08,,,,
,,,,,,$5ecbd0bfd068807844fa4170,2020-07-21_12h19.05.435,fisher_task,2020.1.3,Win32,60,-0.166015625,-0.432617188,1,0,0,1.733,scale,,,,,,0.275930788,0.223606798,0.275930788,0.223606798,stimuli/lakes/5090125_left.png,stimuli/lakes/5090125_right.png,,,,0,89,89,125,1,,,,,
,,,,,,$5ecbd0bfd068807844fa4170,2020-07-21_12h19.05.435,fisher_task,2020.1.3,Win32,60,-0.170898438,-0.372070313,1,0,0,1.943,scale,,,,,,0.349027907,0.282842712,0.174513954,0.141421356,stimuli/lakes/806078_left.png,stimuli/lakes/806078_right.png,,,,0,90,90,78,1,,,,,
,,,,,,$5ecbd0bfd068807844fa4170,2020-07-21_12h19.05.435,fisher_task,2020.1.3,Win32,60,-0.068359375,-0.25390625,1,0,0,1.817,scale,,,,,,0.349027907,0.282842712,0.174513954,0.141421356,stimuli/lakes/803039_left.png,stimuli/lakes/803039_right.png,,,,0,91,91,39,1,,,,,
,,,,,,$5ecbd0bfd068807844fa4170,2020-07-21_12h19.05.435,fisher_task,2020.1.3,Win32,60,0.122070313,-0.30078125,1,0,0,1.569,scale,,,,,,0.2468,0.2,0.302267034,0.244948974,stimuli/lakes/402014_left.png,stimuli/lakes/402014_right.png,,,,0,92,92,14,1,,,,,
,,,,,,$5ecbd0bfd068807844fa4170,2020-07-21_12h19.05.435,fisher_task,2020.1.3,Win32,60,0.123046875,-0.284179688,1,0,0,1.585,scale,,,,,,0.275930788,0.223606798,0.275930788,0.223606798,stimuli/lakes/50104_left.png,stimuli/lakes/50104_right.png,,,,0,93,93,4,1,,,,,
,,,,,,$5ecbd0bfd068807844fa4170,2020-07-21_12h19.05.435,fisher_task,2020.1.3,Win32,60,0.159179688,-0.333007813,1,0,0,1.89,scale,,,,,,0.21373507,0.173205081,0.326485712,0.264575131,stimuli/lakes/303025_left.png,stimuli/lakes/303025_right.png,,,,0,94,94,25,1,,,,,
,,,,,,$5ecbd0bfd068807844fa4170,2020-07-21_12h19.05.435,fisher_task,2020.1.3,Win32,60,0.00390625,-0.240234375,1,0,0,2.036,scale,,,,,,0.21373507,0.173205081,0.326485712,0.264575131,stimuli/lakes/3090122_left.png,stimuli/lakes/3090122_right.png,,,,0,95,95,122,1,,,,,
,,,,,,$5ecbd0bfd068807844fa4170,2020-07-21_12h19.05.435,fisher_task,2020.1.3,Win32,60,0.0546875,-0.26171875,1,0,0,2.168,scale,,,,,,0.174513954,0.141421356,0.349027907,0.282842712,stimuli/lakes/204042_left.png,stimuli/lakes/204042_right.png,,,,0,96,96,42,1,,,,,
,,,,,,$5ecbd0bfd068807844fa4170,2020-07-21_12h19.05.435,fisher_task,2020.1.3,Win32,60,0.181640625,-0.403320313,1,0,0,2.13,scale,,,,,,0.21373507,0.173205081,0.326485712,0.264575131,stimuli/lakes/302013_left.png,stimuli/lakes/302013_right.png,,,,0,97,97,13,1,,,,,
,,,,,,$5ecbd0bfd068807844fa4170,2020-07-21_12h19.05.435,fisher_task,2020.1.3,Win32,60,0.171875,-0.366210938,1,0,0,1.446,scale,,,,,,0.2468,0.2,0.302267034,0.244948974,stimuli/lakes/403035_left.png,stimuli/lakes/403035_right.png,,,,0,98,98,35,1,,,,,
,,,,,,$5ecbd0bfd068807844fa4170,2020-07-21_12h19.05.435,fisher_task,2020.1.3,Win32,60,-0.123046875,-0.314453125,1,0,0,1.66,scale,,,,,,0.3702,0.3,0.1234,0.1,stimuli/lakes/904049_left.png,stimuli/lakes/904049_right.png,,,,0,99,99,49,1,,,,,
,,,,,,$5ecbd0bfd068807844fa4170,2020-07-21_12h19.05.435,fisher_task,2020.1.3,Win32,60,0.165039063,-0.375,1,0,0,2.476,scale,,,,,,0.174513954,0.141421356,0.349027907,0.282842712,stimuli/lakes/204051_left.png,stimuli/lakes/204051_right.png,,,,0,100,100,51,1,,,,,
,,,,,,$5ecbd0bfd068807844fa4170,2020-07-21_12h19.05.435,fisher_task,2020.1.3,Win32,60,0.16796875,-0.346679688,1,0,0,1.802,scale,,,,,,0.1234,0.1,0.3702,0.3,stimuli/lakes/105059_left.png,stimuli/lakes/105059_right.png,,,,0,101,101,59,1,,,,,
,,,,,,$5ecbd0bfd068807844fa4170,2020-07-21_12h19.05.435,fisher_task,2020.1.3,Win32,60,0.016601563,-0.255859375,1,0,0,1.549,scale,,,,,,0.349027907,0.282842712,0.174513954,0.141421356,stimuli/lakes/802021_left.png,stimuli/lakes/802021_right.png,,,,0,102,102,21,1,,,,,
,,,,,,$5ecbd0bfd068807844fa4170,2020-07-21_12h19.05.435,fisher_task,2020.1.3,Win32,60,0.140625,-0.309570313,1,0,0,2.036,scale,,,,,,0.21373507,0.173205081,0.326485712,0.264575131,stimuli/lakes/305062_left.png,stimuli/lakes/305062_right.png,,,,0,103,103,62,1,,,,,
,,,,,,$5ecbd0bfd068807844fa4170,2020-07-21_12h19.05.435,fisher_task,2020.1.3,Win32,60,0.193359375,-0.416015625,1,0,0,1.299,scale,,,,,,0.174513954,0.141421356,0.349027907,0.282842712,stimuli/lakes/203033_left.png,stimuli/lakes/203033_right.png,,,,0,104,104,33,1,,,,,
,,,,,,$5ecbd0bfd068807844fa4170,2020-07-21_12h19.05.435,fisher_task,2020.1.3,Win32,60,0.186523438,-0.423828125,1,0,0,1.308,scale,,,,,,0.174513954,0.141421356,0.349027907,0.282842712,stimuli/lakes/203024_left.png,stimuli/lakes/203024_right.png,,,,0,105,105,24,1,,,,,
,,,,,,$5ecbd0bfd068807844fa4170,2020-07-21_12h19.05.435,fisher_task,2020.1.3,Win32,60,-0.131835938,-0.409179688,1,0,0,1.393,scale,,,,,,0.3702,0.3,0.1234,0.1,stimuli/lakes/907097_left.png,stimuli/lakes/907097_right.png,,,,0,106,106,97,1,,,,,
,,,,,,$5ecbd0bfd068807844fa4170,2020-07-21_12h19.05.435,fisher_task,2020.1.3,Win32,60,0.00390625,-0.28125,1,0,0,1.713,scale,,,,,,0.2468,0.2,0.302267034,0.244948974,stimuli/lakes/4080112_left.png,stimuli/lakes/4080112_right.png,,,,0,107,107,112,1,,,,,
,,,,,,$5ecbd0bfd068807844fa4170,2020-07-21_12h19.05.435,fisher_task,2020.1.3,Win32,60,-0.067382813,-0.264648438,1,0,0,1.493,scale,,,,,,0.3702,0.3,0.1234,0.1,stimuli/lakes/903040_left.png,stimuli/lakes/903040_right.png,,,,0,108,108,40,1,,,,,
,,,,,,$5ecbd0bfd068807844fa4170,2020-07-21_12h19.05.435,fisher_task,2020.1.3,Win32,60,0.134765625,-0.282226563,1,0,0,1.639,scale,,,,,,0.2468,0.2,0.302267034,0.244948974,stimuli/lakes/404044_left.png,stimuli/lakes/404044_right.png,,,,0,109,109,44,1,,,,,
,,,,,,$5ecbd0bfd068807844fa4170,2020-07-21_12h19.05.435,fisher_task,2020.1.3,Win32,60,-0.004882813,-0.244140625,1,0,0,1.666,scale,,,,,,0.1234,0.1,0.3702,0.3,stimuli/lakes/1080107_left.png,stimuli/lakes/1080107_right.png,,,space,0,110,110,107,1,4.241,,,,
,,,,,,$5ecbd0bfd068807844fa4170,2020-07-21_12h19.05.435,fisher_task,2020.1.3,Win32,60,0.005859375,-0.237304688,1,0,0,1.741,scale,,,,,,0.21373507,0.173205081,0.326485712,0.264575131,stimuli/lakes/3090121_left.png,stimuli/lakes/3090121_right.png,,,,0,111,111,121,1,,,,,
,,,,,,$5ecbd0bfd068807844fa4170,2020-07-21_12h19.05.435,fisher_task,2020.1.3,Win32,60,-0.080078125,-0.290039063,1,0,0,1.698,scale,,,,,,0.302267034,0.244948974,0.2468,0.2,stimuli/lakes/604046_left.png,stimuli/lakes/604046_right.png,,,,0,112,112,46,1,,,,,
,,,,,,$5ecbd0bfd068807844fa4170,2020-07-21_12h19.05.435,fisher_task,2020.1.3,Win32,60,0.130859375,-0.32421875,1,0,0,1.692,scale,,,,,,0.174513954,0.141421356,0.349027907,0.282842712,stimuli/lakes/206081_left.png,stimuli/lakes/206081_right.png,,,,0,113,113,81,1,,,,,
,,,,,,$5ecbd0bfd068807844fa4170,2020-07-21_12h19.05.435,fisher_task,2020.1.3,Win32,60,-0.110351563,-0.3203125,1,0,0,1.884,scale,,,,,,0.302267034,0.244948974,0.2468,0.2,stimuli/lakes/604055_left.png,stimuli/lakes/604055_right.png,,,,0,114,114,55,1,,,,,
,,,,,,$5ecbd0bfd068807844fa4170,2020-07-21_12h19.05.435,fisher_task,2020.1.3,Win32,60,0.002929688,-0.291992188,1,0,0,2.505,scale,,,,,,0.326485712,0.264575131,0.21373507,0.173205081,stimuli/lakes/70108_left.png,stimuli/lakes/70108_right.png,,,,0,115,115,8,1,,,,,
,,,,,,$5ecbd0bfd068807844fa4170,2020-07-21_12h19.05.435,fisher_task,2020.1.3,Win32,60,0.094726563,-0.306640625,1,0,0,1.693,scale,,,,,,0.21373507,0.173205081,0.326485712,0.264575131,stimuli/lakes/307091_left.png,stimuli/lakes/307091_right.png,,,,0,116,116,91,1,,,,,
,,,,,,$5ecbd0bfd068807844fa4170,2020-07-21_12h19.05.435,fisher_task,2020.1.3,Win32,60,-0.111328125,-0.34375,1,0,0,2.086,scale,,,,,,0.3702,0.3,0.1234,0.1,stimuli/lakes/904058_left.png,stimuli/lakes/904058_right.png,,,,0,117,117,58,1,,,,,
,,,,,,$5ecbd0bfd068807844fa4170,2020-07-21_12h19.05.435,fisher_task,2020.1.3,Win32,60,-0.13671875,-0.428710938,1,0,0,1.687,scale,,,,,,0.302267034,0.244948974,0.2468,0.2,stimuli/lakes/6090127_left.png,stimuli/lakes/6090127_right.png,,,,0,118,118,127,1,,,,,
,,,,,,$5ecbd0bfd068807844fa4170,2020-07-21_12h19.05.435,fisher_task,2020.1.3,Win32,60,-0.137695313,-0.4296875,1,0,0,1.5,scale,,,,,,0.302267034,0.244948974,0.2468,0.2,stimuli/lakes/6090126_left.png,stimuli/lakes/6090126_right.png,,,,0,119,119,126,1,,,,,
,,,,,,$5ecbd0bfd068807844fa4170,2020-07-21_12h19.05.435,fisher_task,2020.1.3,Win32,60,0.125976563,-0.331054688,1,0,0,1.667,scale,,,,,,0.1234,0.1,0.3702,0.3,stimuli/lakes/106071_left.png,stimuli/lakes/106071_right.png,,,,0,120,120,71,1,,,,,
,,,,,,$5ecbd0bfd068807844fa4170,2020-07-21_12h19.05.435,fisher_task,2020.1.3,Win32,60,-0.142578125,-0.34375,1,0,0,1.677,scale,,,,,,0.349027907,0.282842712,0.174513954,0.141421356,stimuli/lakes/804048_left.png,stimuli/lakes/804048_right.png,,,,0,121,121,48,1,,,,,
,,,,,,$5ecbd0bfd068807844fa4170,2020-07-21_12h19.05.435,fisher_task,2020.1.3,Win32,60,-0.119140625,-0.326171875,1,0,0,1.495,scale,,,,,,0.275930788,0.223606798,0.275930788,0.223606798,stimuli/lakes/5080113_left.png,stimuli/lakes/5080113_right.png,,,,0,122,122,113,1,,,,,
,,,,,,$5ecbd0bfd068807844fa4170,2020-07-21_12h19.05.435,fisher_task,2020.1.3,Win32,60,-0.119140625,-0.325195313,1,0,0,1.475,scale,,,,,,0.349027907,0.282842712,0.174513954,0.141421356,stimuli/lakes/807096_left.png,stimuli/lakes/807096_right.png,,,,0,123,123,96,1,,,,,
,,,,,,$5ecbd0bfd068807844fa4170,2020-07-21_12h19.05.435,fisher_task,2020.1.3,Win32,60,-0.061523438,-0.26953125,1,0,0,1.583,scale,,,,,,0.275930788,0.223606798,0.275930788,0.223606798,stimuli/lakes/507093_left.png,stimuli/lakes/507093_right.png,,,,0,124,124,93,1,,,,,
,,,,,,$5ecbd0bfd068807844fa4170,2020-07-21_12h19.05.435,fisher_task,2020.1.3,Win32,60,0.047851563,-0.284179688,1,0,0,1.522,scale,,,,,,0.2468,0.2,0.302267034,0.244948974,stimuli/lakes/404053_left.png,stimuli/lakes/404053_right.png,,,,0,125,125,53,1,,,,,
,,,,,,$5ecbd0bfd068807844fa4170,2020-07-21_12h19.05.435,fisher_task,2020.1.3,Win32,60,0.002929688,-0.2890625,1,0,0,1.982,scale,,,,,,0.302267034,0.244948974,0.2468,0.2,stimuli/lakes/602017_left.png,stimuli/lakes/602017_right.png,,,,0,126,126,17,1,,,,,
,,,,,,$5ecbd0bfd068807844fa4170,2020-07-21_12h19.05.435,fisher_task,2020.1.3,Win32,60,-0.143554688,-0.36328125,1,0,0,2.118,scale,,,,,,0.326485712,0.264575131,0.21373507,0.173205081,stimuli/lakes/706077_left.png,stimuli/lakes/706077_right.png,,,,0,127,127,77,1,,,,,
,,,,,,$5ecbd0bfd068807844fa4170,2020-07-21_12h19.05.435,fisher_task,2020.1.3,Win32,60,0.061523438,-0.276367188,1,0,0,1.652,scale,,,,,,0.21373507,0.173205081,0.326485712,0.264575131,stimuli/lakes/3080109_left.png,stimuli/lakes/3080109_right.png,,,,0,128,128,109,1,,,,,
,,,,,,$5ecbd0bfd068807844fa4170,2020-07-21_12h19.05.435,fisher_task,2020.1.3,Win32,60,0.166992188,-0.41015625,1,0,0,1.558,scale,,,,,,0.21373507,0.173205081,0.326485712,0.264575131,stimuli/lakes/303034_left.png,stimuli/lakes/303034_right.png,,,,0,129,129,34,1,,,,,
,,,,,,$5ecbd0bfd068807844fa4170,2020-07-21_12h19.05.435,fisher_task,2020.1.3,Win32,60,,,,,,,,,,,,,,,,,,,,,,,,,,,,space,7.018,space,45.021
