keySpace.keys,instructions.thisRepN,instructions.thisTrialN,instructions.thisN,instructions.thisIndex,instructions.ran,participant,date,expName,psychopyVersion,OS,frameRate,mouse.x,mouse.y,mouse.leftButton,mouse.midButton,mouse.rightButton,mouse.time,mouse.clicked_name,training.thisRepN,training.thisTrialN,training.thisN,training.thisIndex,training.ran,widthBasketLeft,heightBasketLeft,widthBasketRight,heightBasketRight,leftLake,rightLake,space2.keys,space2.rt,space1.keys,trials.thisRepN,trials.thisTrialN,trials.thisN,trials.thisIndex,trials.ran,space1.rt,finalSpace1.keys,finalSpace1.rt,finalSpace2.keys,finalSpace2.rt
,0,0,0,0,1,$5dde680c40460edc4a5dc1a2,2020-07-21_18h12.48.919,fisher_task,2020.1.3,Win32,60,,,,,,,,,,,,,,,,,,,,,,,,,,,,,,,
,,,,,,$5dde680c40460edc4a5dc1a2,2020-07-21_18h12.48.919,fisher_task,2020.1.3,Win32,60,0.147222238,-0.377777791,1,0,0,2.33537,scale,0,0,0,0,1,0.275930788,0.223606798,0.275930788,0.223606798,stimuli/training/20_left.png,stimuli/training/20_right.png,,,,,,,,,,,,,
,,,,,,$5dde680c40460edc4a5dc1a2,2020-07-21_18h12.48.919,fisher_task,2020.1.3,Win32,60,-0.149999989,-0.333888901,1,0,0,1.41389,scale,0,1,1,1,1,0.275930788,0.223606798,0.275930788,0.223606798,stimuli/training/80_left.png,stimuli/training/80_right.png,,,,,,,,,,,,,
,,,,,,$5dde680c40460edc4a5dc1a2,2020-07-21_18h12.48.919,fisher_task,2020.1.3,Win32,60,0.130555571,-0.286666678,1,0,0,1.633095,scale,0,2,2,2,1,0.174513954,0.141421356,0.349027907,0.282842712,stimuli/training/50_left.png,stimuli/training/50_right.png,,,,,,,,,,,,,
,,,,,,$5dde680c40460edc4a5dc1a2,2020-07-21_18h12.48.919,fisher_task,2020.1.3,Win32,60,-0.093888877,-0.291111191,1,0,0,2.01612,scale,0,3,3,3,1,0.349027907,0.282842712,0.174513954,0.141421356,stimuli/training/50_left.png,stimuli/training/50_right.png,,,,,,,,,,,,,
,,,,,,$5dde680c40460edc4a5dc1a2,2020-07-21_18h12.48.919,fisher_task,2020.1.3,Win32,60,0.070000014,-0.267777789,1,0,0,2.01522,scale,0,4,4,4,1,0.275930788,0.223606798,0.275930788,0.223606798,stimuli/training/50_left.png,stimuli/training/50_right.png,,,,,,,,,,,,,
,,,,,,$5dde680c40460edc4a5dc1a2,2020-07-21_18h12.48.919,fisher_task,2020.1.3,Win32,60,0.167222238,-0.423888903,1,0,0,1.449255,scale,0,5,5,5,1,0.174513954,0.141421356,0.349027907,0.282842712,stimuli/training/20_left.png,stimuli/training/20_right.png,,,,,,,,,,,,,
,,,,,,$5dde680c40460edc4a5dc1a2,2020-07-21_18h12.48.919,fisher_task,2020.1.3,Win32,60,-0.171666656,-0.411111125,1,0,0,1.54998,scale,0,6,6,6,1,0.349027907,0.282842712,0.174513954,0.141421356,stimuli/training/80_left.png,stimuli/training/80_right.png,,,,,,,,,,,,,
,,,,,,$5dde680c40460edc4a5dc1a2,2020-07-21_18h12.48.919,fisher_task,2020.1.3,Win32,60,0.130555571,-0.39166668,1,0,0,1.548465,scale,0,7,7,7,1,0.1234,0.1,0.3702,0.3,stimuli/training/30_left.png,stimuli/training/30_right.png,,,,,,,,,,,,,
,,,,,,$5dde680c40460edc4a5dc1a2,2020-07-21_18h12.48.919,fisher_task,2020.1.3,Win32,60,-0.151666656,-0.387222235,1,0,0,1.34849,scale,0,8,8,8,1,0.3702,0.3,0.1234,0.1,stimuli/training/70_left.png,stimuli/training/70_right.png,,,,,,,,,,,,,
,,,,,,$5dde680c40460edc4a5dc1a2,2020-07-21_18h12.48.919,fisher_task,2020.1.3,Win32,60,-0.159444434,-0.417777791,1,0,0,1.53123,scale,0,9,9,9,1,0.326485712,0.264575131,0.21373507,0.173205081,stimuli/training/90_left.png,stimuli/training/90_right.png,,,,,,,,,,,,,
,,,,,,$5dde680c40460edc4a5dc1a2,2020-07-21_18h12.48.919,fisher_task,2020.1.3,Win32,60,0.175000016,-0.431111125,1,0,0,1.548045,scale,0,10,10,10,1,0.21373507,0.173205081,0.326485712,0.264575131,stimuli/training/10_left.png,stimuli/training/10_right.png,,,,,,,,,,,,,
,,,,,,$5dde680c40460edc4a5dc1a2,2020-07-21_18h12.48.919,fisher_task,2020.1.3,Win32,60,-0.001111098,-0.263333413,1,0,0,1.54808,scale,,,,,,0.1234,0.1,0.3702,0.3,stimuli/lakes/107089_left.png,stimuli/lakes/107089_right.png,space,7.803265,,0,0,0,89,1,,,,,
,,,,,,$5dde680c40460edc4a5dc1a2,2020-07-21_18h12.48.919,fisher_task,2020.1.3,Win32,60,0.103333348,-0.288888901,1,0,0,1.41892,scale,,,,,,0.21373507,0.173205081,0.326485712,0.264575131,stimuli/lakes/305062_left.png,stimuli/lakes/305062_right.png,,,,0,1,1,62,1,,,,,
,,,,,,$5dde680c40460edc4a5dc1a2,2020-07-21_18h12.48.919,fisher_task,2020.1.3,Win32,60,0.137777793,-0.336111124,1,0,0,1.130265,scale,,,,,,0.21373507,0.173205081,0.326485712,0.264575131,stimuli/lakes/305061_left.png,stimuli/lakes/305061_right.png,,,,0,2,2,61,1,,,,,
,,,,,,$5dde680c40460edc4a5dc1a2,2020-07-21_18h12.48.919,fisher_task,2020.1.3,Win32,60,-0.007777765,-0.250555567,1,0,0,1.596975,scale,,,,,,0.174513954,0.141421356,0.349027907,0.282842712,stimuli/lakes/2090120_left.png,stimuli/lakes/2090120_right.png,,,,0,3,3,120,1,,,,,
,,,,,,$5dde680c40460edc4a5dc1a2,2020-07-21_18h12.48.919,fisher_task,2020.1.3,Win32,60,0.173333349,-0.405000081,1,0,0,1.14896,scale,,,,,,0.21373507,0.173205081,0.326485712,0.264575131,stimuli/lakes/303025_left.png,stimuli/lakes/303025_right.png,,,,0,4,4,25,1,,,,,
,,,,,,$5dde680c40460edc4a5dc1a2,2020-07-21_18h12.48.919,fisher_task,2020.1.3,Win32,60,0.14444446,-0.351111124,1,0,0,1.25052,scale,,,,,,0.2468,0.2,0.302267034,0.244948974,stimuli/lakes/403035_left.png,stimuli/lakes/403035_right.png,,,,0,5,5,35,1,,,,,
,,,,,,$5dde680c40460edc4a5dc1a2,2020-07-21_18h12.48.919,fisher_task,2020.1.3,Win32,60,-0.00611103,-0.272222234,1,0,0,1.371335,scale,,,,,,0.21373507,0.173205081,0.326485712,0.264575131,stimuli/lakes/3080110_left.png,stimuli/lakes/3080110_right.png,,,,0,6,6,110,1,,,,,
,,,,,,$5dde680c40460edc4a5dc1a2,2020-07-21_18h12.48.919,fisher_task,2020.1.3,Win32,60,0.008333347,-0.234444455,1,0,0,1.700365,scale,,,,,,0.326485712,0.264575131,0.21373507,0.173205081,stimuli/lakes/705067_left.png,stimuli/lakes/705067_right.png,,,,0,7,7,67,1,,,,,
,,,,,,$5dde680c40460edc4a5dc1a2,2020-07-21_18h12.48.919,fisher_task,2020.1.3,Win32,60,-0.162777767,-0.405555569,1,0,0,1.501705,scale,,,,,,0.326485712,0.264575131,0.21373507,0.173205081,stimuli/lakes/7090129_left.png,stimuli/lakes/7090129_right.png,,,,0,8,8,129,1,,,,,
,,,,,,$5dde680c40460edc4a5dc1a2,2020-07-21_18h12.48.919,fisher_task,2020.1.3,Win32,60,0.153888904,-0.395000013,1,0,0,1.403095,scale,,,,,,0.2468,0.2,0.302267034,0.244948974,stimuli/lakes/40102_left.png,stimuli/lakes/40102_right.png,,,,0,9,9,2,1,,,,,
,,,,,,$5dde680c40460edc4a5dc1a2,2020-07-21_18h12.48.919,fisher_task,2020.1.3,Win32,60,0.170000016,-0.408333347,1,0,0,1.1475,scale,,,,,,0.174513954,0.141421356,0.349027907,0.282842712,stimuli/lakes/202011_left.png,stimuli/lakes/202011_right.png,,,,0,10,10,11,1,,,,,
,,,,,,$5dde680c40460edc4a5dc1a2,2020-07-21_18h12.48.919,fisher_task,2020.1.3,Win32,60,0.152222306,-0.42666668,1,0,0,1.115325,scale,,,,,,0.21373507,0.173205081,0.326485712,0.264575131,stimuli/lakes/30100_left.png,stimuli/lakes/30100_right.png,,,,0,11,11,0,1,,,,,
,,,,,,$5dde680c40460edc4a5dc1a2,2020-07-21_18h12.48.919,fisher_task,2020.1.3,Win32,60,-0.032777765,-0.260000011,1,0,0,1.566015,scale,,,,,,0.2468,0.2,0.302267034,0.244948974,stimuli/lakes/406083_left.png,stimuli/lakes/406083_right.png,,,,0,12,12,83,1,,,,,
,,,,,,$5dde680c40460edc4a5dc1a2,2020-07-21_18h12.48.919,fisher_task,2020.1.3,Win32,60,0.123888904,-0.295555567,1,0,0,1.314185,scale,,,,,,0.2468,0.2,0.302267034,0.244948974,stimuli/lakes/403026_left.png,stimuli/lakes/403026_right.png,,,,0,13,13,26,1,,,,,
,,,,,,$5dde680c40460edc4a5dc1a2,2020-07-21_18h12.48.919,fisher_task,2020.1.3,Win32,60,0.133888904,-0.313333413,1,0,0,1.115955,scale,,,,,,0.302267034,0.244948974,0.2468,0.2,stimuli/lakes/60106_left.png,stimuli/lakes/60106_right.png,,,,0,14,14,6,1,,,,,
,,,,,,$5dde680c40460edc4a5dc1a2,2020-07-21_18h12.48.919,fisher_task,2020.1.3,Win32,60,-0.142222143,-0.331111123,1,0,0,1.43045,scale,,,,,,0.302267034,0.244948974,0.2468,0.2,stimuli/lakes/6070103_left.png,stimuli/lakes/6070103_right.png,,,,0,15,15,103,1,,,,,
,,,,,,$5dde680c40460edc4a5dc1a2,2020-07-21_18h12.48.919,fisher_task,2020.1.3,Win32,60,0.022222236,-0.236111122,1,0,0,1.248055,scale,,,,,,0.302267034,0.244948974,0.2468,0.2,stimuli/lakes/604055_left.png,stimuli/lakes/604055_right.png,,,,0,16,16,55,1,,,,,
,,,,,,$5dde680c40460edc4a5dc1a2,2020-07-21_18h12.48.919,fisher_task,2020.1.3,Win32,60,-0.031111031,-0.2388889,1,0,0,1.183355,scale,,,,,,0.302267034,0.244948974,0.2468,0.2,stimuli/lakes/606076_left.png,stimuli/lakes/606076_right.png,,,,0,17,17,76,1,,,,,
,,,,,,$5dde680c40460edc4a5dc1a2,2020-07-21_18h12.48.919,fisher_task,2020.1.3,Win32,60,-0.119999921,-0.30500008,1,0,0,1.58152,scale,,,,,,0.275930788,0.223606798,0.275930788,0.223606798,stimuli/lakes/506075_left.png,stimuli/lakes/506075_right.png,,,,0,18,18,75,1,,,,,
,,,,,,$5dde680c40460edc4a5dc1a2,2020-07-21_18h12.48.919,fisher_task,2020.1.3,Win32,60,-0.170555545,-0.41166668,1,0,0,1.23316,scale,,,,,,0.302267034,0.244948974,0.2468,0.2,stimuli/lakes/6090127_left.png,stimuli/lakes/6090127_right.png,,,,0,19,19,127,1,,,,,
,,,,,,$5dde680c40460edc4a5dc1a2,2020-07-21_18h12.48.919,fisher_task,2020.1.3,Win32,60,-0.00833332,-0.2238889,1,0,0,1.482105,scale,,,,,,0.2468,0.2,0.302267034,0.244948974,stimuli/lakes/4090123_left.png,stimuli/lakes/4090123_right.png,,,,0,20,20,123,1,,,,,
,,,,,,$5dde680c40460edc4a5dc1a2,2020-07-21_18h12.48.919,fisher_task,2020.1.3,Win32,60,0.156666682,-0.357777858,1,0,0,1.41566,scale,,,,,,0.275930788,0.223606798,0.275930788,0.223606798,stimuli/lakes/50104_left.png,stimuli/lakes/50104_right.png,,,,0,21,21,4,1,,,,,
,,,,,,$5dde680c40460edc4a5dc1a2,2020-07-21_18h12.48.919,fisher_task,2020.1.3,Win32,60,-0.010555542,-0.2538889,1,0,0,1.282145,scale,,,,,,0.21373507,0.173205081,0.326485712,0.264575131,stimuli/lakes/3090121_left.png,stimuli/lakes/3090121_right.png,,,space,0,22,22,121,1,4.065665,,,,
,,,,,,$5dde680c40460edc4a5dc1a2,2020-07-21_18h12.48.919,fisher_task,2020.1.3,Win32,60,-0.156666656,-0.408333347,1,0,0,1.28252,scale,,,,,,0.326485712,0.264575131,0.21373507,0.173205081,stimuli/lakes/7090128_left.png,stimuli/lakes/7090128_right.png,,,,0,23,23,128,1,,,,,
,,,,,,$5dde680c40460edc4a5dc1a2,2020-07-21_18h12.48.919,fisher_task,2020.1.3,Win32,60,-0.003888876,-0.226111122,1,0,0,1.44843,scale,,,,,,0.3702,0.3,0.1234,0.1,stimuli/lakes/901010_left.png,stimuli/lakes/901010_right.png,,,,0,24,24,10,1,,,,,
,,,,,,$5dde680c40460edc4a5dc1a2,2020-07-21_18h12.48.919,fisher_task,2020.1.3,Win32,60,-0.005555542,-0.232777857,1,0,0,1.0347,scale,,,,,,0.1234,0.1,0.3702,0.3,stimuli/lakes/1080107_left.png,stimuli/lakes/1080107_right.png,,,,0,25,25,107,1,,,,,
,,,,,,$5dde680c40460edc4a5dc1a2,2020-07-21_18h12.48.919,fisher_task,2020.1.3,Win32,60,-0.099999988,-0.288333413,1,0,0,1.648175,scale,,,,,,0.349027907,0.282842712,0.174513954,0.141421356,stimuli/lakes/805069_left.png,stimuli/lakes/805069_right.png,,,,0,26,26,69,1,,,,,
,,,,,,$5dde680c40460edc4a5dc1a2,2020-07-21_18h12.48.919,fisher_task,2020.1.3,Win32,60,0.147777793,-0.353333346,1,0,0,1.34861,scale,,,,,,0.174513954,0.141421356,0.349027907,0.282842712,stimuli/lakes/203033_left.png,stimuli/lakes/203033_right.png,,,,0,27,27,33,1,,,,,
,,,,,,$5dde680c40460edc4a5dc1a2,2020-07-21_18h12.48.919,fisher_task,2020.1.3,Win32,60,-0.174999989,-0.414444458,1,0,0,0.932765,scale,,,,,,0.3702,0.3,0.1234,0.1,stimuli/lakes/907097_left.png,stimuli/lakes/907097_right.png,,,,0,28,28,97,1,,,,,
,,,,,,$5dde680c40460edc4a5dc1a2,2020-07-21_18h12.48.919,fisher_task,2020.1.3,Win32,60,1.32455E-08,-0.2488889,1,0,0,1.069115,scale,,,,,,0.349027907,0.282842712,0.174513954,0.141421356,stimuli/lakes/803039_left.png,stimuli/lakes/803039_right.png,,,,0,29,29,39,1,,,,,
,,,,,,$5dde680c40460edc4a5dc1a2,2020-07-21_18h12.48.919,fisher_task,2020.1.3,Win32,60,0.008333347,-0.243333344,1,0,0,1.36547,scale,,,,,,0.326485712,0.264575131,0.21373507,0.173205081,stimuli/lakes/704047_left.png,stimuli/lakes/704047_right.png,,,,0,30,30,47,1,,,,,
,,,,,,$5dde680c40460edc4a5dc1a2,2020-07-21_18h12.48.919,fisher_task,2020.1.3,Win32,60,0.114444459,-0.28777779,1,0,0,1.40356,scale,,,,,,0.21373507,0.173205081,0.326485712,0.264575131,stimuli/lakes/306073_left.png,stimuli/lakes/306073_right.png,,,,0,31,31,73,1,,,,,
,,,,,,$5dde680c40460edc4a5dc1a2,2020-07-21_18h12.48.919,fisher_task,2020.1.3,Win32,60,0.102222305,-0.2738889,1,0,0,1.065755,scale,,,,,,0.21373507,0.173205081,0.326485712,0.264575131,stimuli/lakes/303034_left.png,stimuli/lakes/303034_right.png,,,,0,32,32,34,1,,,,,
,,,,,,$5dde680c40460edc4a5dc1a2,2020-07-21_18h12.48.919,fisher_task,2020.1.3,Win32,60,-0.000555475,-0.258333345,1,0,0,1.35135,scale,,,,,,0.349027907,0.282842712,0.174513954,0.141421356,stimuli/lakes/804048_left.png,stimuli/lakes/804048_right.png,,,,0,33,33,48,1,,,,,
,,,,,,$5dde680c40460edc4a5dc1a2,2020-07-21_18h12.48.919,fisher_task,2020.1.3,Win32,60,-0.068888877,-0.247777789,1,0,0,1.831295,scale,,,,,,0.2468,0.2,0.302267034,0.244948974,stimuli/lakes/4090124_left.png,stimuli/lakes/4090124_right.png,,,,0,34,34,124,1,,,,,
,,,,,,$5dde680c40460edc4a5dc1a2,2020-07-21_18h12.48.919,fisher_task,2020.1.3,Win32,60,0.096111126,-0.283333345,1,0,0,1.56368,scale,,,,,,0.326485712,0.264575131,0.21373507,0.173205081,stimuli/lakes/704056_left.png,stimuli/lakes/704056_right.png,,,,0,35,35,56,1,,,,,
,,,,,,$5dde680c40460edc4a5dc1a2,2020-07-21_18h12.48.919,fisher_task,2020.1.3,Win32,60,0.005000081,-0.257222234,1,0,0,1.299565,scale,,,,,,0.302267034,0.244948974,0.2468,0.2,stimuli/lakes/603037_left.png,stimuli/lakes/603037_right.png,,,,0,36,36,37,1,,,,,
,,,,,,$5dde680c40460edc4a5dc1a2,2020-07-21_18h12.48.919,fisher_task,2020.1.3,Win32,60,-0.00611103,-0.255555567,1,0,0,1.016065,scale,,,,,,0.21373507,0.173205081,0.326485712,0.264575131,stimuli/lakes/3070100_left.png,stimuli/lakes/3070100_right.png,,,,0,37,37,100,1,,,,,
,,,,,,$5dde680c40460edc4a5dc1a2,2020-07-21_18h12.48.919,fisher_task,2020.1.3,Win32,60,0.140555571,-0.306666679,1,0,0,1.180275,scale,,,,,,0.2468,0.2,0.302267034,0.244948974,stimuli/lakes/402015_left.png,stimuli/lakes/402015_right.png,,,,0,38,38,15,1,,,,,
,,,,,,$5dde680c40460edc4a5dc1a2,2020-07-21_18h12.48.919,fisher_task,2020.1.3,Win32,60,-0.007777765,-0.271111123,1,0,0,1.2809,scale,,,,,,0.3702,0.3,0.1234,0.1,stimuli/lakes/904058_left.png,stimuli/lakes/904058_right.png,,,,0,39,39,58,1,,,,,
,,,,,,$5dde680c40460edc4a5dc1a2,2020-07-21_18h12.48.919,fisher_task,2020.1.3,Win32,60,-0.139999989,-0.343333346,1,0,0,1.04871,scale,,,,,,0.275930788,0.223606798,0.275930788,0.223606798,stimuli/lakes/5090125_left.png,stimuli/lakes/5090125_right.png,,,,0,40,40,125,1,,,,,
,,,,,,$5dde680c40460edc4a5dc1a2,2020-07-21_18h12.48.919,fisher_task,2020.1.3,Win32,60,-0.01333332,-0.271666746,1,0,0,1.181155,scale,,,,,,0.3702,0.3,0.1234,0.1,stimuli/lakes/904049_left.png,stimuli/lakes/904049_right.png,,,,0,41,41,49,1,,,,,
,,,,,,$5dde680c40460edc4a5dc1a2,2020-07-21_18h12.48.919,fisher_task,2020.1.3,Win32,60,-0.083888809,-0.273333345,1,0,0,1.499305,scale,,,,,,0.3702,0.3,0.1234,0.1,stimuli/lakes/9070106_left.png,stimuli/lakes/9070106_right.png,,,,0,42,42,106,1,,,,,
,,,,,,$5dde680c40460edc4a5dc1a2,2020-07-21_18h12.48.919,fisher_task,2020.1.3,Win32,60,0.008888902,-0.233333344,1,0,0,1.14776,scale,,,,,,0.302267034,0.244948974,0.2468,0.2,stimuli/lakes/60105_left.png,stimuli/lakes/60105_right.png,,,,0,43,43,5,1,,,,,
,,,,,,$5dde680c40460edc4a5dc1a2,2020-07-21_18h12.48.919,fisher_task,2020.1.3,Win32,60,-0.006666654,-0.214444455,1,0,0,1.249145,scale,,,,,,0.21373507,0.173205081,0.326485712,0.264575131,stimuli/lakes/306082_left.png,stimuli/lakes/306082_right.png,,,space,0,44,44,82,1,1.985035,,,,
,,,,,,$5dde680c40460edc4a5dc1a2,2020-07-21_18h12.48.919,fisher_task,2020.1.3,Win32,60,0.037222236,-0.246666746,1,0,0,1.28249,scale,,,,,,0.326485712,0.264575131,0.21373507,0.173205081,stimuli/lakes/702020_left.png,stimuli/lakes/702020_right.png,,,,0,45,45,20,1,,,,,
,,,,,,$5dde680c40460edc4a5dc1a2,2020-07-21_18h12.48.919,fisher_task,2020.1.3,Win32,60,-0.126666655,-0.348333346,1,0,0,1.298475,scale,,,,,,0.326485712,0.264575131,0.21373507,0.173205081,stimuli/lakes/7070104_left.png,stimuli/lakes/7070104_right.png,,,,0,46,46,104,1,,,,,
,,,,,,$5dde680c40460edc4a5dc1a2,2020-07-21_18h12.48.919,fisher_task,2020.1.3,Win32,60,-0.158333322,-0.403333347,1,0,0,1.25477,scale,,,,,,0.275930788,0.223606798,0.275930788,0.223606798,stimuli/lakes/5080113_left.png,stimuli/lakes/5080113_right.png,,,,0,47,47,113,1,,,,,
,,,,,,$5dde680c40460edc4a5dc1a2,2020-07-21_18h12.48.919,fisher_task,2020.1.3,Win32,60,0.093888971,-0.273333345,1,0,0,1.181445,scale,,,,,,0.2468,0.2,0.302267034,0.244948974,stimuli/lakes/404053_left.png,stimuli/lakes/404053_right.png,,,,0,48,48,53,1,,,,,
,,,,,,$5dde680c40460edc4a5dc1a2,2020-07-21_18h12.48.919,fisher_task,2020.1.3,Win32,60,0.088333416,-0.267777789,1,0,0,1.88291,scale,,,,,,0.174513954,0.141421356,0.349027907,0.282842712,stimuli/lakes/206072_left.png,stimuli/lakes/206072_right.png,,,,0,49,49,72,1,,,,,
,,,,,,$5dde680c40460edc4a5dc1a2,2020-07-21_18h12.48.919,fisher_task,2020.1.3,Win32,60,-0.08722221,-0.2788889,1,0,0,1.1647,scale,,,,,,0.302267034,0.244948974,0.2468,0.2,stimuli/lakes/605065_left.png,stimuli/lakes/605065_right.png,,,,0,50,50,65,1,,,,,
,,,,,,$5dde680c40460edc4a5dc1a2,2020-07-21_18h12.48.919,fisher_task,2020.1.3,Win32,60,0.14444446,-0.373333346,1,0,0,1.16645,scale,,,,,,0.174513954,0.141421356,0.349027907,0.282842712,stimuli/lakes/203024_left.png,stimuli/lakes/203024_right.png,,,,0,51,51,24,1,,,,,
,,,,,,$5dde680c40460edc4a5dc1a2,2020-07-21_18h12.48.919,fisher_task,2020.1.3,Win32,60,1.32455E-08,-0.276111123,1,0,0,1.349705,scale,,,,,,0.2468,0.2,0.302267034,0.244948974,stimuli/lakes/4080111_left.png,stimuli/lakes/4080111_right.png,,,,0,52,52,111,1,,,,,
,,,,,,$5dde680c40460edc4a5dc1a2,2020-07-21_18h12.48.919,fisher_task,2020.1.3,Win32,60,0.096111126,-0.250000011,1,0,0,1.18488,scale,,,,,,0.2468,0.2,0.302267034,0.244948974,stimuli/lakes/405064_left.png,stimuli/lakes/405064_right.png,,,,0,53,53,64,1,,,,,
,,,,,,$5dde680c40460edc4a5dc1a2,2020-07-21_18h12.48.919,fisher_task,2020.1.3,Win32,60,-0.039999987,-0.272222234,1,0,0,1.35138,scale,,,,,,0.3702,0.3,0.1234,0.1,stimuli/lakes/903040_left.png,stimuli/lakes/903040_right.png,,,,0,54,54,40,1,,,,,
,,,,,,$5dde680c40460edc4a5dc1a2,2020-07-21_18h12.48.919,fisher_task,2020.1.3,Win32,60,-0.122777699,-0.323333346,1,0,0,1.64911,scale,,,,,,0.326485712,0.264575131,0.21373507,0.173205081,stimuli/lakes/705068_left.png,stimuli/lakes/705068_right.png,,,,0,55,55,68,1,,,,,
,,,,,,$5dde680c40460edc4a5dc1a2,2020-07-21_18h12.48.919,fisher_task,2020.1.3,Win32,60,-0.156666656,-0.403333347,1,0,0,1.317635,scale,,,,,,0.3702,0.3,0.1234,0.1,stimuli/lakes/905070_left.png,stimuli/lakes/905070_right.png,,,,0,56,56,70,1,,,,,
,,,,,,$5dde680c40460edc4a5dc1a2,2020-07-21_18h12.48.919,fisher_task,2020.1.3,Win32,60,-0.04499992,-0.252222301,1,0,0,1.432485,scale,,,,,,0.2468,0.2,0.302267034,0.244948974,stimuli/lakes/407092_left.png,stimuli/lakes/407092_right.png,,,,0,57,57,92,1,,,,,
,,,,,,$5dde680c40460edc4a5dc1a2,2020-07-21_18h12.48.919,fisher_task,2020.1.3,Win32,60,0.153888904,-0.379444458,1,0,0,1.51559,scale,,,,,,0.326485712,0.264575131,0.21373507,0.173205081,stimuli/lakes/70107_left.png,stimuli/lakes/70107_right.png,,,,0,58,58,7,1,,,,,
,,,,,,$5dde680c40460edc4a5dc1a2,2020-07-21_18h12.48.919,fisher_task,2020.1.3,Win32,60,-0.167777767,-0.346666747,1,0,0,1.715165,scale,,,,,,0.349027907,0.282842712,0.174513954,0.141421356,stimuli/lakes/806078_left.png,stimuli/lakes/806078_right.png,,,,0,59,59,78,1,,,,,
,,,,,,$5dde680c40460edc4a5dc1a2,2020-07-21_18h12.48.919,fisher_task,2020.1.3,Win32,60,0.149444528,-0.375000013,1,0,0,1.21479,scale,,,,,,0.174513954,0.141421356,0.349027907,0.282842712,stimuli/lakes/204042_left.png,stimuli/lakes/204042_right.png,,,,0,60,60,42,1,,,,,
,,,,,,$5dde680c40460edc4a5dc1a2,2020-07-21_18h12.48.919,fisher_task,2020.1.3,Win32,60,0.150000015,-0.375000013,1,0,0,1.031655,scale,,,,,,0.21373507,0.173205081,0.326485712,0.264575131,stimuli/lakes/304052_left.png,stimuli/lakes/304052_right.png,,,,0,61,61,52,1,,,,,
,,,,,,$5dde680c40460edc4a5dc1a2,2020-07-21_18h12.48.919,fisher_task,2020.1.3,Win32,60,-0.151666656,-0.331666679,1,0,0,1.3331,scale,,,,,,0.275930788,0.223606798,0.275930788,0.223606798,stimuli/lakes/506084_left.png,stimuli/lakes/506084_right.png,,,,0,62,62,84,1,,,,,
,,,,,,$5dde680c40460edc4a5dc1a2,2020-07-21_18h12.48.919,fisher_task,2020.1.3,Win32,60,-0.163888878,-0.354444457,1,0,0,1.531265,scale,,,,,,0.326485712,0.264575131,0.21373507,0.173205081,stimuli/lakes/706086_left.png,stimuli/lakes/706086_right.png,,,,0,63,63,86,1,,,,,
,,,,,,$5dde680c40460edc4a5dc1a2,2020-07-21_18h12.48.919,fisher_task,2020.1.3,Win32,60,-0.174444434,-0.403333347,1,0,0,1.099555,scale,,,,,,0.349027907,0.282842712,0.174513954,0.141421356,stimuli/lakes/807096_left.png,stimuli/lakes/807096_right.png,,,,0,64,64,96,1,,,,,
,,,,,,$5dde680c40460edc4a5dc1a2,2020-07-21_18h12.48.919,fisher_task,2020.1.3,Win32,60,-0.005555542,-0.239444455,1,0,0,1.28238,scale,,,,,,0.302267034,0.244948974,0.2468,0.2,stimuli/lakes/602017_left.png,stimuli/lakes/602017_right.png,,,,0,65,65,17,1,,,,,
,,,,,,$5dde680c40460edc4a5dc1a2,2020-07-21_18h12.48.919,fisher_task,2020.1.3,Win32,60,-0.008888808,-0.247222233,1,0,0,1.398055,scale,,,,,,0.326485712,0.264575131,0.21373507,0.173205081,stimuli/lakes/702019_left.png,stimuli/lakes/702019_right.png,,,space,0,66,66,19,1,1.61166,,,,
,,,,,,$5dde680c40460edc4a5dc1a2,2020-07-21_18h12.48.919,fisher_task,2020.1.3,Win32,60,-0.007222209,-0.2488889,1,0,0,1.084995,scale,,,,,,0.21373507,0.173205081,0.326485712,0.264575131,stimuli/lakes/3090122_left.png,stimuli/lakes/3090122_right.png,,,,0,67,67,122,1,,,,,
,,,,,,$5dde680c40460edc4a5dc1a2,2020-07-21_18h12.48.919,fisher_task,2020.1.3,Win32,60,0.132222237,-0.323333346,1,0,0,1.30364,scale,,,,,,0.2468,0.2,0.302267034,0.244948974,stimuli/lakes/40103_left.png,stimuli/lakes/40103_right.png,,,,0,68,68,3,1,,,,,
,,,,,,$5dde680c40460edc4a5dc1a2,2020-07-21_18h12.48.919,fisher_task,2020.1.3,Win32,60,0.15944446,-0.35277779,1,0,0,1.431,scale,,,,,,0.275930788,0.223606798,0.275930788,0.223606798,stimuli/lakes/503027_left.png,stimuli/lakes/503027_right.png,,,,0,69,69,27,1,,,,,
,,,,,,$5dde680c40460edc4a5dc1a2,2020-07-21_18h12.48.919,fisher_task,2020.1.3,Win32,60,0.167222238,-0.413333415,1,0,0,1.33463,scale,,,,,,0.174513954,0.141421356,0.349027907,0.282842712,stimuli/lakes/204051_left.png,stimuli/lakes/204051_right.png,,,,0,70,70,51,1,,,,,
,,,,,,$5dde680c40460edc4a5dc1a2,2020-07-21_18h12.48.919,fisher_task,2020.1.3,Win32,60,-0.042777765,-0.2338889,1,0,0,1.86527,scale,,,,,,0.2468,0.2,0.302267034,0.244948974,stimuli/lakes/4070101_left.png,stimuli/lakes/4070101_right.png,,,,0,71,71,101,1,,,,,
,,,,,,$5dde680c40460edc4a5dc1a2,2020-07-21_18h12.48.919,fisher_task,2020.1.3,Win32,60,0.03666668,-0.221666745,1,0,0,0.982435,scale,,,,,,0.2468,0.2,0.302267034,0.244948974,stimuli/lakes/406074_left.png,stimuli/lakes/406074_right.png,,,,0,72,72,74,1,,,,,
,,,,,,$5dde680c40460edc4a5dc1a2,2020-07-21_18h12.48.919,fisher_task,2020.1.3,Win32,60,-0.054444432,-0.272222234,1,0,0,1.265985,scale,,,,,,0.21373507,0.173205081,0.326485712,0.264575131,stimuli/lakes/3080109_left.png,stimuli/lakes/3080109_right.png,,,,0,73,73,109,1,,,,,
,,,,,,$5dde680c40460edc4a5dc1a2,2020-07-21_18h12.48.919,fisher_task,2020.1.3,Win32,60,-0.141666656,-0.353333346,1,0,0,1.46566,scale,,,,,,0.326485712,0.264575131,0.21373507,0.173205081,stimuli/lakes/706077_left.png,stimuli/lakes/706077_right.png,,,,0,74,74,77,1,,,,,
,,,,,,$5dde680c40460edc4a5dc1a2,2020-07-21_18h12.48.919,fisher_task,2020.1.3,Win32,60,-0.024999987,-0.246111122,1,0,0,1.551645,scale,,,,,,0.174513954,0.141421356,0.349027907,0.282842712,stimuli/lakes/207090_left.png,stimuli/lakes/207090_right.png,,,,0,75,75,90,1,,,,,
,,,,,,$5dde680c40460edc4a5dc1a2,2020-07-21_18h12.48.919,fisher_task,2020.1.3,Win32,60,0.160000016,-0.380000081,1,0,0,1.248815,scale,,,,,,0.21373507,0.173205081,0.326485712,0.264575131,stimuli/lakes/302013_left.png,stimuli/lakes/302013_right.png,,,,0,76,76,13,1,,,,,
,,,,,,$5dde680c40460edc4a5dc1a2,2020-07-21_18h12.48.919,fisher_task,2020.1.3,Win32,60,-0.174444434,-0.395555569,1,0,0,1.31708,scale,,,,,,0.302267034,0.244948974,0.2468,0.2,stimuli/lakes/606085_left.png,stimuli/lakes/606085_right.png,,,,0,77,77,85,1,,,,,
,,,,,,$5dde680c40460edc4a5dc1a2,2020-07-21_18h12.48.919,fisher_task,2020.1.3,Win32,60,-0.142777767,-0.362222235,1,0,0,1.282615,scale,,,,,,0.275930788,0.223606798,0.275930788,0.223606798,stimuli/lakes/5070102_left.png,stimuli/lakes/5070102_right.png,,,,0,78,78,102,1,,,,,
,,,,,,$5dde680c40460edc4a5dc1a2,2020-07-21_18h12.48.919,fisher_task,2020.1.3,Win32,60,0.088333416,-0.252777789,1,0,0,1.465425,scale,,,,,,0.1234,0.1,0.3702,0.3,stimuli/lakes/105059_left.png,stimuli/lakes/105059_right.png,,,,0,79,79,59,1,,,,,
,,,,,,$5dde680c40460edc4a5dc1a2,2020-07-21_18h12.48.919,fisher_task,2020.1.3,Win32,60,-0.08222221,-0.267777789,1,0,0,1.06761,scale,,,,,,0.302267034,0.244948974,0.2468,0.2,stimuli/lakes/604046_left.png,stimuli/lakes/604046_right.png,,,,0,80,80,46,1,,,,,
,,,,,,$5dde680c40460edc4a5dc1a2,2020-07-21_18h12.48.919,fisher_task,2020.1.3,Win32,60,0.158333349,-0.388888902,1,0,0,1.23098,scale,,,,,,0.1234,0.1,0.3702,0.3,stimuli/lakes/103032_left.png,stimuli/lakes/103032_right.png,,,,0,81,81,32,1,,,,,
,,,,,,$5dde680c40460edc4a5dc1a2,2020-07-21_18h12.48.919,fisher_task,2020.1.3,Win32,60,0.170000016,-0.40166668,1,0,0,1.251905,scale,,,,,,0.1234,0.1,0.3702,0.3,stimuli/lakes/104041_left.png,stimuli/lakes/104041_right.png,,,,0,82,82,41,1,,,,,
,,,,,,$5dde680c40460edc4a5dc1a2,2020-07-21_18h12.48.919,fisher_task,2020.1.3,Win32,60,-0.169999921,-0.400555569,1,0,0,1.14962,scale,,,,,,0.326485712,0.264575131,0.21373507,0.173205081,stimuli/lakes/7080117_left.png,stimuli/lakes/7080117_right.png,,,,0,83,83,117,1,,,,,
,,,,,,$5dde680c40460edc4a5dc1a2,2020-07-21_18h12.48.919,fisher_task,2020.1.3,Win32,60,-0.169999921,-0.400555569,1,0,0,0.83218,scale,,,,,,0.349027907,0.282842712,0.174513954,0.141421356,stimuli/lakes/8080118_left.png,stimuli/lakes/8080118_right.png,,,,0,84,84,118,1,,,,,
,,,,,,$5dde680c40460edc4a5dc1a2,2020-07-21_18h12.48.919,fisher_task,2020.1.3,Win32,60,-0.009444431,-0.239444455,1,0,0,1.28112,scale,,,,,,0.349027907,0.282842712,0.174513954,0.141421356,stimuli/lakes/80109_left.png,stimuli/lakes/80109_right.png,,,,0,85,85,9,1,,,,,
,,,,,,$5dde680c40460edc4a5dc1a2,2020-07-21_18h12.48.919,fisher_task,2020.1.3,Win32,60,0.028888903,-0.2338889,1,0,0,1.43475,scale,,,,,,0.326485712,0.264575131,0.21373507,0.173205081,stimuli/lakes/703029_left.png,stimuli/lakes/703029_right.png,,,,0,86,86,29,1,,,,,
,,,,,,$5dde680c40460edc4a5dc1a2,2020-07-21_18h12.48.919,fisher_task,2020.1.3,Win32,60,0.042777792,-0.238333412,1,0,0,1.75793,scale,,,,,,0.1234,0.1,0.3702,0.3,stimuli/lakes/106071_left.png,stimuli/lakes/106071_right.png,,,,0,87,87,71,1,,,,,
,,,,,,$5dde680c40460edc4a5dc1a2,2020-07-21_18h12.48.919,fisher_task,2020.1.3,Win32,60,0.042777792,-0.238333412,1,0,0,1.2822,scale,,,,,,0.275930788,0.223606798,0.275930788,0.223606798,stimuli/lakes/504045_left.png,stimuli/lakes/504045_right.png,,,space,0,88,88,45,1,3.389085,,,,
,,,,,,$5dde680c40460edc4a5dc1a2,2020-07-21_18h12.48.919,fisher_task,2020.1.3,Win32,60,0.106666682,-0.268333345,1,0,0,1.58108,scale,,,,,,0.302267034,0.244948974,0.2468,0.2,stimuli/lakes/602018_left.png,stimuli/lakes/602018_right.png,,,,0,89,89,18,1,,,,,
,,,,,,$5dde680c40460edc4a5dc1a2,2020-07-21_18h12.48.919,fisher_task,2020.1.3,Win32,60,0.15444446,-0.40166668,1,0,0,1.387545,scale,,,,,,0.21373507,0.173205081,0.326485712,0.264575131,stimuli/lakes/30101_left.png,stimuli/lakes/30101_right.png,,,,0,90,90,1,1,,,,,
,,,,,,$5dde680c40460edc4a5dc1a2,2020-07-21_18h12.48.919,fisher_task,2020.1.3,Win32,60,0.156111127,-0.359444457,1,0,0,1.25012,scale,,,,,,0.2468,0.2,0.302267034,0.244948974,stimuli/lakes/402014_left.png,stimuli/lakes/402014_right.png,,,,0,91,91,14,1,,,,,
,,,,,,$5dde680c40460edc4a5dc1a2,2020-07-21_18h12.48.919,fisher_task,2020.1.3,Win32,60,0.015000013,-0.238333412,1,0,0,1.962825,scale,,,,,,0.326485712,0.264575131,0.21373507,0.173205081,stimuli/lakes/703038_left.png,stimuli/lakes/703038_right.png,,,,0,92,92,38,1,,,,,
,,,,,,$5dde680c40460edc4a5dc1a2,2020-07-21_18h12.48.919,fisher_task,2020.1.3,Win32,60,-0.118888877,-0.296666746,1,0,0,1.215035,scale,,,,,,0.302267034,0.244948974,0.2468,0.2,stimuli/lakes/607094_left.png,stimuli/lakes/607094_right.png,,,,0,93,93,94,1,,,,,
,,,,,,$5dde680c40460edc4a5dc1a2,2020-07-21_18h12.48.919,fisher_task,2020.1.3,Win32,60,-0.027222209,-0.2338889,1,0,0,1.51563,scale,,,,,,0.21373507,0.173205081,0.326485712,0.264575131,stimuli/lakes/307091_left.png,stimuli/lakes/307091_right.png,,,,0,94,94,91,1,,,,,
,,,,,,$5dde680c40460edc4a5dc1a2,2020-07-21_18h12.48.919,fisher_task,2020.1.3,Win32,60,0.037777792,-0.230000079,1,0,0,1.733415,scale,,,,,,0.302267034,0.244948974,0.2468,0.2,stimuli/lakes/603028_left.png,stimuli/lakes/603028_right.png,,,,0,95,95,28,1,,,,,
,,,,,,$5dde680c40460edc4a5dc1a2,2020-07-21_18h12.48.919,fisher_task,2020.1.3,Win32,60,-0.013888876,-0.231666678,1,0,0,1.434305,scale,,,,,,0.349027907,0.282842712,0.174513954,0.141421356,stimuli/lakes/802021_left.png,stimuli/lakes/802021_right.png,,,,0,96,96,21,1,,,,,
,,,,,,$5dde680c40460edc4a5dc1a2,2020-07-21_18h12.48.919,fisher_task,2020.1.3,Win32,60,-0.031111031,-0.233333344,1,0,0,1.65118,scale,,,,,,0.1234,0.1,0.3702,0.3,stimuli/lakes/1090119_left.png,stimuli/lakes/1090119_right.png,,,,0,97,97,119,1,,,,,
,,,,,,$5dde680c40460edc4a5dc1a2,2020-07-21_18h12.48.919,fisher_task,2020.1.3,Win32,60,0.153333349,-0.404444458,1,0,0,2.165725,scale,,,,,,0.1234,0.1,0.3702,0.3,stimuli/lakes/103023_left.png,stimuli/lakes/103023_right.png,,,,0,98,98,23,1,,,,,
,,,,,,$5dde680c40460edc4a5dc1a2,2020-07-21_18h12.48.919,fisher_task,2020.1.3,Win32,60,0.002222303,-0.233333344,1,0,0,1.39891,scale,,,,,,0.326485712,0.264575131,0.21373507,0.173205081,stimuli/lakes/70108_left.png,stimuli/lakes/70108_right.png,,,,0,99,99,8,1,,,,,
,,,,,,$5dde680c40460edc4a5dc1a2,2020-07-21_18h12.48.919,fisher_task,2020.1.3,Win32,60,0.037222236,-0.235000011,1,0,0,1.614895,scale,,,,,,0.349027907,0.282842712,0.174513954,0.141421356,stimuli/lakes/804057_left.png,stimuli/lakes/804057_right.png,,,,0,100,100,57,1,,,,,
,,,,,,$5dde680c40460edc4a5dc1a2,2020-07-21_18h12.48.919,fisher_task,2020.1.3,Win32,60,0.136666682,-0.320000012,1,0,0,1.93219,scale,,,,,,0.21373507,0.173205081,0.326485712,0.264575131,stimuli/lakes/304043_left.png,stimuli/lakes/304043_right.png,,,,0,101,101,43,1,,,,,
,,,,,,$5dde680c40460edc4a5dc1a2,2020-07-21_18h12.48.919,fisher_task,2020.1.3,Win32,60,0.153888904,-0.361111124,1,0,0,1.865515,scale,,,,,,0.275930788,0.223606798,0.275930788,0.223606798,stimuli/lakes/503036_left.png,stimuli/lakes/503036_right.png,,,,0,102,102,36,1,,,,,
,,,,,,$5dde680c40460edc4a5dc1a2,2020-07-21_18h12.48.919,fisher_task,2020.1.3,Win32,60,0.005000081,-0.243333344,1,0,0,1.91513,scale,,,,,,0.174513954,0.141421356,0.349027907,0.282842712,stimuli/lakes/2080108_left.png,stimuli/lakes/2080108_right.png,,,,0,103,103,108,1,,,,,
,,,,,,$5dde680c40460edc4a5dc1a2,2020-07-21_18h12.48.919,fisher_task,2020.1.3,Win32,60,-0.1461111,-0.411111125,1,0,0,1.281295,scale,,,,,,0.326485712,0.264575131,0.21373507,0.173205081,stimuli/lakes/7080116_left.png,stimuli/lakes/7080116_right.png,,,,0,104,104,116,1,,,,,
,,,,,,$5dde680c40460edc4a5dc1a2,2020-07-21_18h12.48.919,fisher_task,2020.1.3,Win32,60,-0.136666588,-0.326666679,1,0,0,1.4132,scale,,,,,,0.302267034,0.244948974,0.2468,0.2,stimuli/lakes/605066_left.png,stimuli/lakes/605066_right.png,,,,0,105,105,66,1,,,,,
,,,,,,$5dde680c40460edc4a5dc1a2,2020-07-21_18h12.48.919,fisher_task,2020.1.3,Win32,60,0.115000015,-0.281666678,1,0,0,1.399415,scale,,,,,,0.1234,0.1,0.3702,0.3,stimuli/lakes/104050_left.png,stimuli/lakes/104050_right.png,,,,0,106,106,50,1,,,,,
,,,,,,$5dde680c40460edc4a5dc1a2,2020-07-21_18h12.48.919,fisher_task,2020.1.3,Win32,60,0.137222238,-0.321111123,1,0,0,1.54903,scale,,,,,,0.2468,0.2,0.302267034,0.244948974,stimuli/lakes/405063_left.png,stimuli/lakes/405063_right.png,,,,0,107,107,63,1,,,,,
,,,,,,$5dde680c40460edc4a5dc1a2,2020-07-21_18h12.48.919,fisher_task,2020.1.3,Win32,60,-0.001666653,-0.252777789,1,0,0,1.665325,scale,,,,,,0.349027907,0.282842712,0.174513954,0.141421356,stimuli/lakes/803030_left.png,stimuli/lakes/803030_right.png,,,,0,108,108,30,1,,,,,
,,,,,,$5dde680c40460edc4a5dc1a2,2020-07-21_18h12.48.919,fisher_task,2020.1.3,Win32,60,-0.004999987,-0.250000011,1,0,0,0.982715,scale,,,,,,0.3702,0.3,0.1234,0.1,stimuli/lakes/903031_left.png,stimuli/lakes/903031_right.png,,,,0,109,109,31,1,,,,,
,,,,,,$5dde680c40460edc4a5dc1a2,2020-07-21_18h12.48.919,fisher_task,2020.1.3,Win32,60,0.008888902,-0.247222233,1,0,0,1.285945,scale,,,,,,0.3702,0.3,0.1234,0.1,stimuli/lakes/902022_left.png,stimuli/lakes/902022_right.png,,,space,0,110,110,22,1,1.644995,,,,
,,,,,,$5dde680c40460edc4a5dc1a2,2020-07-21_18h12.48.919,fisher_task,2020.1.3,Win32,60,0.102777793,-0.272222234,1,0,0,1.147615,scale,,,,,,0.2468,0.2,0.302267034,0.244948974,stimuli/lakes/404044_left.png,stimuli/lakes/404044_right.png,,,,0,111,111,44,1,,,,,
,,,,,,$5dde680c40460edc4a5dc1a2,2020-07-21_18h12.48.919,fisher_task,2020.1.3,Win32,60,-0.009444431,-0.267222234,1,0,0,1.498875,scale,,,,,,0.1234,0.1,0.3702,0.3,stimuli/lakes/106080_left.png,stimuli/lakes/106080_right.png,,,,0,112,112,80,1,,,,,
,,,,,,$5dde680c40460edc4a5dc1a2,2020-07-21_18h12.48.919,fisher_task,2020.1.3,Win32,60,-0.152222211,-0.372777791,1,0,0,1.448205,scale,,,,,,0.349027907,0.282842712,0.174513954,0.141421356,stimuli/lakes/806087_left.png,stimuli/lakes/806087_right.png,,,,0,113,113,87,1,,,,,
,,,,,,$5dde680c40460edc4a5dc1a2,2020-07-21_18h12.48.919,fisher_task,2020.1.3,Win32,60,0.107222237,-0.269444456,1,0,0,1.29839,scale,,,,,,0.275930788,0.223606798,0.275930788,0.223606798,stimuli/lakes/504054_left.png,stimuli/lakes/504054_right.png,,,,0,114,114,54,1,,,,,
,,,,,,$5dde680c40460edc4a5dc1a2,2020-07-21_18h12.48.919,fisher_task,2020.1.3,Win32,60,-0.157222211,-0.339444457,1,0,0,1.333585,scale,,,,,,0.349027907,0.282842712,0.174513954,0.141421356,stimuli/lakes/8070105_left.png,stimuli/lakes/8070105_right.png,,,,0,115,115,105,1,,,,,
,,,,,,$5dde680c40460edc4a5dc1a2,2020-07-21_18h12.48.919,fisher_task,2020.1.3,Win32,60,-0.008888808,-0.232222233,1,0,0,1.76571,scale,,,,,,0.1234,0.1,0.3702,0.3,stimuli/lakes/107098_left.png,stimuli/lakes/107098_right.png,,,,0,116,116,98,1,,,,,
,,,,,,$5dde680c40460edc4a5dc1a2,2020-07-21_18h12.48.919,fisher_task,2020.1.3,Win32,60,-0.107777766,-0.272777789,1,0,0,1.43238,scale,,,,,,0.275930788,0.223606798,0.275930788,0.223606798,stimuli/lakes/507093_left.png,stimuli/lakes/507093_right.png,,,,0,117,117,93,1,,,,,
,,,,,,$5dde680c40460edc4a5dc1a2,2020-07-21_18h12.48.919,fisher_task,2020.1.3,Win32,60,-0.002777765,-0.227777789,1,0,0,1.849275,scale,,,,,,0.174513954,0.141421356,0.349027907,0.282842712,stimuli/lakes/206081_left.png,stimuli/lakes/206081_right.png,,,,0,118,118,81,1,,,,,
,,,,,,$5dde680c40460edc4a5dc1a2,2020-07-21_18h12.48.919,fisher_task,2020.1.3,Win32,60,-0.001111098,-0.226666677,1,0,0,1.232355,scale,,,,,,0.2468,0.2,0.302267034,0.244948974,stimuli/lakes/4080112_left.png,stimuli/lakes/4080112_right.png,,,,0,119,119,112,1,,,,,
,,,,,,$5dde680c40460edc4a5dc1a2,2020-07-21_18h12.48.919,fisher_task,2020.1.3,Win32,60,0.128333348,-0.293333345,1,0,0,1.46549,scale,,,,,,0.275930788,0.223606798,0.275930788,0.223606798,stimuli/lakes/502016_left.png,stimuli/lakes/502016_right.png,,,,0,120,120,16,1,,,,,
,,,,,,$5dde680c40460edc4a5dc1a2,2020-07-21_18h12.48.919,fisher_task,2020.1.3,Win32,60,0.161666682,-0.349444525,1,0,0,1.46462,scale,,,,,,0.174513954,0.141421356,0.349027907,0.282842712,stimuli/lakes/205060_left.png,stimuli/lakes/205060_right.png,,,,0,121,121,60,1,,,,,
,,,,,,$5dde680c40460edc4a5dc1a2,2020-07-21_18h12.48.919,fisher_task,2020.1.3,Win32,60,-0.163333323,-0.421111125,1,0,0,1.21455,scale,,,,,,0.302267034,0.244948974,0.2468,0.2,stimuli/lakes/6090126_left.png,stimuli/lakes/6090126_right.png,,,,0,122,122,126,1,,,,,
,,,,,,$5dde680c40460edc4a5dc1a2,2020-07-21_18h12.48.919,fisher_task,2020.1.3,Win32,60,-0.144444433,-0.360000013,1,0,0,1.28017,scale,,,,,,0.302267034,0.244948974,0.2468,0.2,stimuli/lakes/6080115_left.png,stimuli/lakes/6080115_right.png,,,,0,123,123,115,1,,,,,
,,,,,,$5dde680c40460edc4a5dc1a2,2020-07-21_18h12.48.919,fisher_task,2020.1.3,Win32,60,0.17166675,-0.398333347,1,0,0,1.136155,scale,,,,,,0.21373507,0.173205081,0.326485712,0.264575131,stimuli/lakes/302012_left.png,stimuli/lakes/302012_right.png,,,,0,124,124,12,1,,,,,
,,,,,,$5dde680c40460edc4a5dc1a2,2020-07-21_18h12.48.919,fisher_task,2020.1.3,Win32,60,-0.148333322,-0.366111192,1,0,0,1.44744,scale,,,,,,0.3702,0.3,0.1234,0.1,stimuli/lakes/906079_left.png,stimuli/lakes/906079_right.png,,,,0,125,125,79,1,,,,,
,,,,,,$5dde680c40460edc4a5dc1a2,2020-07-21_18h12.48.919,fisher_task,2020.1.3,Win32,60,-0.177222212,-0.389444458,1,0,0,1.0807,scale,,,,,,0.326485712,0.264575131,0.21373507,0.173205081,stimuli/lakes/707095_left.png,stimuli/lakes/707095_right.png,,,,0,126,126,95,1,,,,,
,,,,,,$5dde680c40460edc4a5dc1a2,2020-07-21_18h12.48.919,fisher_task,2020.1.3,Win32,60,-0.175555477,-0.382222235,1,0,0,0.71546,scale,,,,,,0.3702,0.3,0.1234,0.1,stimuli/lakes/906088_left.png,stimuli/lakes/906088_right.png,,,,0,127,127,88,1,,,,,
,,,,,,$5dde680c40460edc4a5dc1a2,2020-07-21_18h12.48.919,fisher_task,2020.1.3,Win32,60,-0.146666656,-0.408888902,1,0,0,1.09886,scale,,,,,,0.302267034,0.244948974,0.2468,0.2,stimuli/lakes/6080114_left.png,stimuli/lakes/6080114_right.png,,,,0,128,128,114,1,,,,,
,,,,,,$5dde680c40460edc4a5dc1a2,2020-07-21_18h12.48.919,fisher_task,2020.1.3,Win32,60,0.005000081,-0.262777789,1,0,0,1.302355,scale,,,,,,0.174513954,0.141421356,0.349027907,0.282842712,stimuli/lakes/207099_left.png,stimuli/lakes/207099_right.png,,,,0,129,129,99,1,,,,,
,,,,,,$5dde680c40460edc4a5dc1a2,2020-07-21_18h12.48.919,fisher_task,2020.1.3,Win32,60,,,,,,,,,,,,,,,,,,,,,,,,,,,,space,4.212985,space,13.42806
