keySpace.keys,instructions.thisRepN,instructions.thisTrialN,instructions.thisN,instructions.thisIndex,instructions.ran,participant,date,expName,psychopyVersion,OS,frameRate,mouse.x,mouse.y,mouse.leftButton,mouse.midButton,mouse.rightButton,mouse.time,mouse.clicked_name,training.thisRepN,training.thisTrialN,training.thisN,training.thisIndex,training.ran,widthBasketLeft,heightBasketLeft,widthBasketRight,heightBasketRight,leftLake,rightLake,space2.keys,space2.rt,space1.keys,trials.thisRepN,trials.thisTrialN,trials.thisN,trials.thisIndex,trials.ran,space1.rt,finalSpace1.keys,finalSpace1.rt,finalSpace2.keys,finalSpace2.rt
,0,0,0,0,1,$5ec970f3e657d60c8e4db3a4,2020-07-21_23h33.57.320,fisher_task,2020.1.3,MacIntel,60,,,,,,,,,,,,,,,,,,,,,,,,,,,,,,,
,,,,,,$5ec970f3e657d60c8e4db3a4,2020-07-21_23h33.57.320,fisher_task,2020.1.3,MacIntel,60,0.001579861,-0.245230035,1,0,0,2.56936,scale,0,0,0,0,1,0.275930788,0.223606798,0.275930788,0.223606798,stimuli/training/20_left.png,stimuli/training/20_right.png,,,,,,,,,,,,,
,,,,,,$5ec970f3e657d60c8e4db3a4,2020-07-21_23h33.57.320,fisher_task,2020.1.3,MacIntel,60,-0.167890625,-0.391358507,1,0,0,2.30428,scale,0,1,1,1,1,0.275930788,0.223606798,0.275930788,0.223606798,stimuli/training/80_left.png,stimuli/training/80_right.png,,,,,,,,,,,,,
,,,,,,$5ec970f3e657d60c8e4db3a4,2020-07-21_23h33.57.320,fisher_task,2020.1.3,MacIntel,60,0.155690104,-0.401927083,1,0,0,1.85465,scale,0,2,2,2,1,0.174513954,0.141421356,0.349027907,0.282842712,stimuli/training/50_left.png,stimuli/training/50_right.png,,,,,,,,,,,,,
,,,,,,$5ec970f3e657d60c8e4db3a4,2020-07-21_23h33.57.320,fisher_task,2020.1.3,MacIntel,60,-0.169249132,-0.425251736,1,0,0,2.170615,scale,0,3,3,3,1,0.349027907,0.282842712,0.174513954,0.141421356,stimuli/training/50_left.png,stimuli/training/50_right.png,,,,,,,,,,,,,
,,,,,,$5ec970f3e657d60c8e4db3a4,2020-07-21_23h33.57.320,fisher_task,2020.1.3,MacIntel,60,-0.005655382,-0.245377604,1,0,0,1.869965,scale,0,4,4,4,1,0.275930788,0.223606798,0.275930788,0.223606798,stimuli/training/50_left.png,stimuli/training/50_right.png,,,,,,,,,,,,,
,,,,,,$5ec970f3e657d60c8e4db3a4,2020-07-21_23h33.57.320,fisher_task,2020.1.3,MacIntel,60,0.169769965,-0.417764757,1,0,0,1.40214,scale,0,5,5,5,1,0.174513954,0.141421356,0.349027907,0.282842712,stimuli/training/20_left.png,stimuli/training/20_right.png,,,,,,,,,,,,,
,,,,,,$5ec970f3e657d60c8e4db3a4,2020-07-21_23h33.57.320,fisher_task,2020.1.3,MacIntel,60,-0.162708333,-0.413927951,1,0,0,1.1347,scale,0,6,6,6,1,0.349027907,0.282842712,0.174513954,0.141421356,stimuli/training/80_left.png,stimuli/training/80_right.png,,,,,,,,,,,,,
,,,,,,$5ec970f3e657d60c8e4db3a4,2020-07-21_23h33.57.320,fisher_task,2020.1.3,MacIntel,60,0.174327257,-0.420091146,1,0,0,1.30198,scale,0,7,7,7,1,0.1234,0.1,0.3702,0.3,stimuli/training/30_left.png,stimuli/training/30_right.png,,,,,,,,,,,,,
,,,,,,$5ec970f3e657d60c8e4db3a4,2020-07-21_23h33.57.320,fisher_task,2020.1.3,MacIntel,60,-0.148993056,-0.425078125,1,0,0,1.303085,scale,0,8,8,8,1,0.3702,0.3,0.1234,0.1,stimuli/training/70_left.png,stimuli/training/70_right.png,,,,,,,,,,,,,
,,,,,,$5ec970f3e657d60c8e4db3a4,2020-07-21_23h33.57.320,fisher_task,2020.1.3,MacIntel,60,-0.167009549,-0.426050347,1,0,0,1.217815,scale,0,9,9,9,1,0.326485712,0.264575131,0.21373507,0.173205081,stimuli/training/90_left.png,stimuli/training/90_right.png,,,,,,,,,,,,,
,,,,,,$5ec970f3e657d60c8e4db3a4,2020-07-21_23h33.57.320,fisher_task,2020.1.3,MacIntel,60,0.183624132,-0.435759549,1,0,0,1.10111,scale,0,10,10,10,1,0.21373507,0.173205081,0.326485712,0.264575131,stimuli/training/10_left.png,stimuli/training/10_right.png,,,,,,,,,,,,,
,,,,,,$5ec970f3e657d60c8e4db3a4,2020-07-21_23h33.57.320,fisher_task,2020.1.3,MacIntel,60,-0.173094618,-0.426271701,1,0,0,1.000555,scale,,,,,,0.3702,0.3,0.1234,0.1,stimuli/lakes/906079_left.png,stimuli/lakes/906079_right.png,space,4.52821,,0,0,0,79,1,,,,,
,,,,,,$5ec970f3e657d60c8e4db3a4,2020-07-21_23h33.57.320,fisher_task,2020.1.3,MacIntel,60,0.159926215,-0.422747396,1,0,0,1.28449,scale,,,,,,0.2468,0.2,0.302267034,0.244948974,stimuli/lakes/405064_left.png,stimuli/lakes/405064_right.png,,,,0,1,1,64,1,,,,,
,,,,,,$5ec970f3e657d60c8e4db3a4,2020-07-21_23h33.57.320,fisher_task,2020.1.3,MacIntel,60,0.158190104,-0.421432292,1,0,0,1.92027,scale,,,,,,0.275930788,0.223606798,0.275930788,0.223606798,stimuli/lakes/503036_left.png,stimuli/lakes/503036_right.png,,,,0,2,2,36,1,,,,,
,,,,,,$5ec970f3e657d60c8e4db3a4,2020-07-21_23h33.57.320,fisher_task,2020.1.3,MacIntel,60,-0.1665625,-0.423072917,1,0,0,1.23594,scale,,,,,,0.326485712,0.264575131,0.21373507,0.173205081,stimuli/lakes/7080116_left.png,stimuli/lakes/7080116_right.png,,,,0,3,3,116,1,,,,,
,,,,,,$5ec970f3e657d60c8e4db3a4,2020-07-21_23h33.57.320,fisher_task,2020.1.3,MacIntel,60,0.152022569,-0.415117187,1,0,0,1.76958,scale,,,,,,0.21373507,0.173205081,0.326485712,0.264575131,stimuli/lakes/305061_left.png,stimuli/lakes/305061_right.png,,,,0,4,4,61,1,,,,,
,,,,,,$5ec970f3e657d60c8e4db3a4,2020-07-21_23h33.57.320,fisher_task,2020.1.3,MacIntel,60,-0.161050347,-0.410924479,1,0,0,1.586385,scale,,,,,,0.326485712,0.264575131,0.21373507,0.173205081,stimuli/lakes/706086_left.png,stimuli/lakes/706086_right.png,,,,0,5,5,86,1,,,,,
,,,,,,$5ec970f3e657d60c8e4db3a4,2020-07-21_23h33.57.320,fisher_task,2020.1.3,MacIntel,60,-0.161666667,-0.427999132,1,0,0,1.437225,scale,,,,,,0.3702,0.3,0.1234,0.1,stimuli/lakes/904049_left.png,stimuli/lakes/904049_right.png,,,,0,6,6,49,1,,,,,
,,,,,,$5ec970f3e657d60c8e4db3a4,2020-07-21_23h33.57.320,fisher_task,2020.1.3,MacIntel,60,0.137712674,-0.409717882,1,0,0,1.41949,scale,,,,,,0.2468,0.2,0.302267034,0.244948974,stimuli/lakes/402014_left.png,stimuli/lakes/402014_right.png,,,,0,7,7,14,1,,,,,
,,,,,,$5ec970f3e657d60c8e4db3a4,2020-07-21_23h33.57.320,fisher_task,2020.1.3,MacIntel,60,0.146957465,-0.425651042,1,0,0,1.200895,scale,,,,,,0.174513954,0.141421356,0.349027907,0.282842712,stimuli/lakes/202011_left.png,stimuli/lakes/202011_right.png,,,,0,8,8,11,1,,,,,
,,,,,,$5ec970f3e657d60c8e4db3a4,2020-07-21_23h33.57.320,fisher_task,2020.1.3,MacIntel,60,0.124557292,-0.410954861,1,0,0,1.135875,scale,,,,,,0.21373507,0.173205081,0.326485712,0.264575131,stimuli/lakes/304052_left.png,stimuli/lakes/304052_right.png,,,,0,9,9,52,1,,,,,
,,,,,,$5ec970f3e657d60c8e4db3a4,2020-07-21_23h33.57.320,fisher_task,2020.1.3,MacIntel,60,-0.128706597,-0.426119792,1,0,0,1.0187,scale,,,,,,0.302267034,0.244948974,0.2468,0.2,stimuli/lakes/602017_left.png,stimuli/lakes/602017_right.png,,,,0,10,10,17,1,,,,,
,,,,,,$5ec970f3e657d60c8e4db3a4,2020-07-21_23h33.57.320,fisher_task,2020.1.3,MacIntel,60,-0.161796875,-0.42437066,1,0,0,1.23512,scale,,,,,,0.21373507,0.173205081,0.326485712,0.264575131,stimuli/lakes/3080110_left.png,stimuli/lakes/3080110_right.png,,,,0,11,11,110,1,,,,,
,,,,,,$5ec970f3e657d60c8e4db3a4,2020-07-21_23h33.57.320,fisher_task,2020.1.3,MacIntel,60,0.152604167,-0.386931424,1,0,0,1.400965,scale,,,,,,0.21373507,0.173205081,0.326485712,0.264575131,stimuli/lakes/305062_left.png,stimuli/lakes/305062_right.png,,,,0,12,12,62,1,,,,,
,,,,,,$5ec970f3e657d60c8e4db3a4,2020-07-21_23h33.57.320,fisher_task,2020.1.3,MacIntel,60,0.157756076,-0.402803819,1,0,0,1.48745,scale,,,,,,0.302267034,0.244948974,0.2468,0.2,stimuli/lakes/60106_left.png,stimuli/lakes/60106_right.png,,,,0,13,13,6,1,,,,,
,,,,,,$5ec970f3e657d60c8e4db3a4,2020-07-21_23h33.57.320,fisher_task,2020.1.3,MacIntel,60,-0.178953993,-0.419348958,1,0,0,1.11833,scale,,,,,,0.349027907,0.282842712,0.174513954,0.141421356,stimuli/lakes/806087_left.png,stimuli/lakes/806087_right.png,,,,0,14,14,87,1,,,,,
,,,,,,$5ec970f3e657d60c8e4db3a4,2020-07-21_23h33.57.320,fisher_task,2020.1.3,MacIntel,60,0.156102431,-0.399105903,1,0,0,1.217545,scale,,,,,,0.3702,0.3,0.1234,0.1,stimuli/lakes/903040_left.png,stimuli/lakes/903040_right.png,,,,0,15,15,40,1,,,,,
,,,,,,$5ec970f3e657d60c8e4db3a4,2020-07-21_23h33.57.320,fisher_task,2020.1.3,MacIntel,60,-0.16062066,-0.405902778,1,0,0,1.253605,scale,,,,,,0.1234,0.1,0.3702,0.3,stimuli/lakes/107098_left.png,stimuli/lakes/107098_right.png,,,,0,16,16,98,1,,,,,
,,,,,,$5ec970f3e657d60c8e4db3a4,2020-07-21_23h33.57.320,fisher_task,2020.1.3,MacIntel,60,0.139891493,-0.412565104,1,0,0,1.01901,scale,,,,,,0.275930788,0.223606798,0.275930788,0.223606798,stimuli/lakes/504045_left.png,stimuli/lakes/504045_right.png,,,,0,17,17,45,1,,,,,
,,,,,,$5ec970f3e657d60c8e4db3a4,2020-07-21_23h33.57.320,fisher_task,2020.1.3,MacIntel,60,-0.167534722,-0.404874132,1,0,0,1.23606,scale,,,,,,0.349027907,0.282842712,0.174513954,0.141421356,stimuli/lakes/805069_left.png,stimuli/lakes/805069_right.png,,,,0,18,18,69,1,,,,,
,,,,,,$5ec970f3e657d60c8e4db3a4,2020-07-21_23h33.57.320,fisher_task,2020.1.3,MacIntel,60,-0.167534722,-0.404874132,1,0,0,0.48247,scale,,,,,,0.326485712,0.264575131,0.21373507,0.173205081,stimuli/lakes/706077_left.png,stimuli/lakes/706077_right.png,,,,0,19,19,77,1,,,,,
,,,,,,$5ec970f3e657d60c8e4db3a4,2020-07-21_23h33.57.320,fisher_task,2020.1.3,MacIntel,60,-0.163654514,-0.411514757,1,0,0,1.569345,scale,,,,,,0.326485712,0.264575131,0.21373507,0.173205081,stimuli/lakes/70108_left.png,stimuli/lakes/70108_right.png,,,,0,20,20,8,1,,,,,
,,,,,,$5ec970f3e657d60c8e4db3a4,2020-07-21_23h33.57.320,fisher_task,2020.1.3,MacIntel,60,-0.165251736,-0.407530382,1,0,0,0.900845,scale,,,,,,0.349027907,0.282842712,0.174513954,0.141421356,stimuli/lakes/803030_left.png,stimuli/lakes/803030_right.png,,,,0,21,21,30,1,,,,,
,,,,,,$5ec970f3e657d60c8e4db3a4,2020-07-21_23h33.57.320,fisher_task,2020.1.3,MacIntel,60,-0.153797743,-0.420338542,1,0,0,1.35185,scale,,,,,,0.3702,0.3,0.1234,0.1,stimuli/lakes/901010_left.png,stimuli/lakes/901010_right.png,,,space,0,22,22,10,1,4.22771,,,,
,,,,,,$5ec970f3e657d60c8e4db3a4,2020-07-21_23h33.57.320,fisher_task,2020.1.3,MacIntel,60,0.128554687,-0.418580729,1,0,0,0.94866,scale,,,,,,0.1234,0.1,0.3702,0.3,stimuli/lakes/104050_left.png,stimuli/lakes/104050_right.png,,,,0,23,23,50,1,,,,,
,,,,,,$5ec970f3e657d60c8e4db3a4,2020-07-21_23h33.57.320,fisher_task,2020.1.3,MacIntel,60,-0.144600694,-0.420368924,1,0,0,0.68208,scale,,,,,,0.326485712,0.264575131,0.21373507,0.173205081,stimuli/lakes/7090128_left.png,stimuli/lakes/7090128_right.png,,,,0,24,24,128,1,,,,,
,,,,,,$5ec970f3e657d60c8e4db3a4,2020-07-21_23h33.57.320,fisher_task,2020.1.3,MacIntel,60,0.133489583,-0.409474826,1,0,0,1.16715,scale,,,,,,0.302267034,0.244948974,0.2468,0.2,stimuli/lakes/60105_left.png,stimuli/lakes/60105_right.png,,,,0,25,25,5,1,,,,,
,,,,,,$5ec970f3e657d60c8e4db3a4,2020-07-21_23h33.57.320,fisher_task,2020.1.3,MacIntel,60,0.148263889,-0.41421441,1,0,0,0.615335,scale,,,,,,0.1234,0.1,0.3702,0.3,stimuli/lakes/107089_left.png,stimuli/lakes/107089_right.png,,,,0,26,26,89,1,,,,,
,,,,,,$5ec970f3e657d60c8e4db3a4,2020-07-21_23h33.57.320,fisher_task,2020.1.3,MacIntel,60,-0.140768229,-0.421011285,1,0,0,1.0016,scale,,,,,,0.275930788,0.223606798,0.275930788,0.223606798,stimuli/lakes/506084_left.png,stimuli/lakes/506084_right.png,,,,0,27,27,84,1,,,,,
,,,,,,$5ec970f3e657d60c8e4db3a4,2020-07-21_23h33.57.320,fisher_task,2020.1.3,MacIntel,60,0.146731771,-0.403927951,1,0,0,0.833315,scale,,,,,,0.21373507,0.173205081,0.326485712,0.264575131,stimuli/lakes/304043_left.png,stimuli/lakes/304043_right.png,,,,0,28,28,43,1,,,,,
,,,,,,$5ec970f3e657d60c8e4db3a4,2020-07-21_23h33.57.320,fisher_task,2020.1.3,MacIntel,60,0.151289062,-0.403927951,1,0,0,0.617015,scale,,,,,,0.2468,0.2,0.302267034,0.244948974,stimuli/lakes/405063_left.png,stimuli/lakes/405063_right.png,,,,0,29,29,63,1,,,,,
,,,,,,$5ec970f3e657d60c8e4db3a4,2020-07-21_23h33.57.320,fisher_task,2020.1.3,MacIntel,60,-0.166419271,-0.412825521,1,0,0,0.733345,scale,,,,,,0.349027907,0.282842712,0.174513954,0.141421356,stimuli/lakes/8070105_left.png,stimuli/lakes/8070105_right.png,,,,0,30,30,105,1,,,,,
,,,,,,$5ec970f3e657d60c8e4db3a4,2020-07-21_23h33.57.320,fisher_task,2020.1.3,MacIntel,60,0.165876736,-0.420486111,1,0,0,0.599675,scale,,,,,,0.2468,0.2,0.302267034,0.244948974,stimuli/lakes/406074_left.png,stimuli/lakes/406074_right.png,,,,0,31,31,74,1,,,,,
,,,,,,$5ec970f3e657d60c8e4db3a4,2020-07-21_23h33.57.320,fisher_task,2020.1.3,MacIntel,60,0.165876736,-0.424040799,1,0,0,0.632255,scale,,,,,,0.1234,0.1,0.3702,0.3,stimuli/lakes/103023_left.png,stimuli/lakes/103023_right.png,,,,0,32,32,23,1,,,,,
,,,,,,$5ec970f3e657d60c8e4db3a4,2020-07-21_23h33.57.320,fisher_task,2020.1.3,MacIntel,60,-0.164861111,-0.418025174,1,0,0,0.666275,scale,,,,,,0.302267034,0.244948974,0.2468,0.2,stimuli/lakes/604046_left.png,stimuli/lakes/604046_right.png,,,,0,33,33,46,1,,,,,
,,,,,,$5ec970f3e657d60c8e4db3a4,2020-07-21_23h33.57.320,fisher_task,2020.1.3,MacIntel,60,0.144001736,-0.399266493,1,0,0,0.66732,scale,,,,,,0.174513954,0.141421356,0.349027907,0.282842712,stimuli/lakes/2090120_left.png,stimuli/lakes/2090120_right.png,,,,0,34,34,120,1,,,,,
,,,,,,$5ec970f3e657d60c8e4db3a4,2020-07-21_23h33.57.320,fisher_task,2020.1.3,MacIntel,60,0.144396701,-0.40203125,1,0,0,0.56493,scale,,,,,,0.174513954,0.141421356,0.349027907,0.282842712,stimuli/lakes/204042_left.png,stimuli/lakes/204042_right.png,,,,0,35,35,42,1,,,,,
,,,,,,$5ec970f3e657d60c8e4db3a4,2020-07-21_23h33.57.320,fisher_task,2020.1.3,MacIntel,60,-0.178064236,-0.421822917,1,0,0,1.336475,scale,,,,,,0.302267034,0.244948974,0.2468,0.2,stimuli/lakes/605066_left.png,stimuli/lakes/605066_right.png,,,,0,36,36,66,1,,,,,
,,,,,,$5ec970f3e657d60c8e4db3a4,2020-07-21_23h33.57.320,fisher_task,2020.1.3,MacIntel,60,-0.161974826,-0.415277778,1,0,0,1.118115,scale,,,,,,0.21373507,0.173205081,0.326485712,0.264575131,stimuli/lakes/3090122_left.png,stimuli/lakes/3090122_right.png,,,,0,37,37,122,1,,,,,
,,,,,,$5ec970f3e657d60c8e4db3a4,2020-07-21_23h33.57.320,fisher_task,2020.1.3,MacIntel,60,-0.162374132,-0.412087674,1,0,0,0.53343,scale,,,,,,0.302267034,0.244948974,0.2468,0.2,stimuli/lakes/6090127_left.png,stimuli/lakes/6090127_right.png,,,,0,38,38,127,1,,,,,
,,,,,,$5ec970f3e657d60c8e4db3a4,2020-07-21_23h33.57.320,fisher_task,2020.1.3,MacIntel,60,0.133272569,-0.41218316,1,0,0,1.100795,scale,,,,,,0.21373507,0.173205081,0.326485712,0.264575131,stimuli/lakes/3070100_left.png,stimuli/lakes/3070100_right.png,,,,0,39,39,100,1,,,,,
,,,,,,$5ec970f3e657d60c8e4db3a4,2020-07-21_23h33.57.320,fisher_task,2020.1.3,MacIntel,60,-0.159045139,-0.424583333,1,0,0,1.20297,scale,,,,,,0.349027907,0.282842712,0.174513954,0.141421356,stimuli/lakes/804057_left.png,stimuli/lakes/804057_right.png,,,,0,40,40,57,1,,,,,
,,,,,,$5ec970f3e657d60c8e4db3a4,2020-07-21_23h33.57.320,fisher_task,2020.1.3,MacIntel,60,-0.159045139,-0.424583333,1,0,0,0.61677,scale,,,,,,0.275930788,0.223606798,0.275930788,0.223606798,stimuli/lakes/507093_left.png,stimuli/lakes/507093_right.png,,,,0,41,41,93,1,,,,,
,,,,,,$5ec970f3e657d60c8e4db3a4,2020-07-21_23h33.57.320,fisher_task,2020.1.3,MacIntel,60,0.169114583,-0.416614583,1,0,0,0.84932,scale,,,,,,0.21373507,0.173205081,0.326485712,0.264575131,stimuli/lakes/307091_left.png,stimuli/lakes/307091_right.png,,,,0,42,42,91,1,,,,,
,,,,,,$5ec970f3e657d60c8e4db3a4,2020-07-21_23h33.57.320,fisher_task,2020.1.3,MacIntel,60,-0.174674479,-0.418810764,1,0,0,0.649935,scale,,,,,,0.326485712,0.264575131,0.21373507,0.173205081,stimuli/lakes/7090129_left.png,stimuli/lakes/7090129_right.png,,,,0,43,43,129,1,,,,,
,,,,,,$5ec970f3e657d60c8e4db3a4,2020-07-21_23h33.57.320,fisher_task,2020.1.3,MacIntel,60,0.176922743,-0.416644965,1,0,0,0.933995,scale,,,,,,0.1234,0.1,0.3702,0.3,stimuli/lakes/1090119_left.png,stimuli/lakes/1090119_right.png,,,space,0,44,44,119,1,2.665945,,,,
,,,,,,$5ec970f3e657d60c8e4db3a4,2020-07-21_23h33.57.320,fisher_task,2020.1.3,MacIntel,60,0.165633681,-0.415842014,1,0,0,0.701855,scale,,,,,,0.174513954,0.141421356,0.349027907,0.282842712,stimuli/lakes/205060_left.png,stimuli/lakes/205060_right.png,,,,0,45,45,60,1,,,,,
,,,,,,$5ec970f3e657d60c8e4db3a4,2020-07-21_23h33.57.320,fisher_task,2020.1.3,MacIntel,60,-0.17546441,-0.425664062,1,0,0,0.986355,scale,,,,,,0.275930788,0.223606798,0.275930788,0.223606798,stimuli/lakes/5090125_left.png,stimuli/lakes/5090125_right.png,,,,0,46,46,125,1,,,,,
,,,,,,$5ec970f3e657d60c8e4db3a4,2020-07-21_23h33.57.320,fisher_task,2020.1.3,MacIntel,60,0.130720486,-0.420698785,1,0,0,1.01778,scale,,,,,,0.21373507,0.173205081,0.326485712,0.264575131,stimuli/lakes/306082_left.png,stimuli/lakes/306082_right.png,,,,0,47,47,82,1,,,,,
,,,,,,$5ec970f3e657d60c8e4db3a4,2020-07-21_23h33.57.320,fisher_task,2020.1.3,MacIntel,60,0.131115451,-0.418311632,1,0,0,0.467555,scale,,,,,,0.2468,0.2,0.302267034,0.244948974,stimuli/lakes/4090123_left.png,stimuli/lakes/4090123_right.png,,,,0,48,48,123,1,,,,,
,,,,,,$5ec970f3e657d60c8e4db3a4,2020-07-21_23h33.57.320,fisher_task,2020.1.3,MacIntel,60,0.131115451,-0.415529514,1,0,0,0.399155,scale,,,,,,0.174513954,0.141421356,0.349027907,0.282842712,stimuli/lakes/203033_left.png,stimuli/lakes/203033_right.png,,,,0,49,49,33,1,,,,,
,,,,,,$5ec970f3e657d60c8e4db3a4,2020-07-21_23h33.57.320,fisher_task,2020.1.3,MacIntel,60,-0.181354167,-0.426618924,1,0,0,1.137905,scale,,,,,,0.3702,0.3,0.1234,0.1,stimuli/lakes/9070106_left.png,stimuli/lakes/9070106_right.png,,,,0,50,50,106,1,,,,,
,,,,,,$5ec970f3e657d60c8e4db3a4,2020-07-21_23h33.57.320,fisher_task,2020.1.3,MacIntel,60,-0.167769097,-0.417834201,1,0,0,0.81673,scale,,,,,,0.3702,0.3,0.1234,0.1,stimuli/lakes/904058_left.png,stimuli/lakes/904058_right.png,,,,0,51,51,58,1,,,,,
,,,,,,$5ec970f3e657d60c8e4db3a4,2020-07-21_23h33.57.320,fisher_task,2020.1.3,MacIntel,60,0.162486979,-0.422786458,1,0,0,1.08448,scale,,,,,,0.21373507,0.173205081,0.326485712,0.264575131,stimuli/lakes/302012_left.png,stimuli/lakes/302012_right.png,,,,0,52,52,12,1,,,,,
,,,,,,$5ec970f3e657d60c8e4db3a4,2020-07-21_23h33.57.320,fisher_task,2020.1.3,MacIntel,60,0.162482639,-0.41999566,1,0,0,0.465475,scale,,,,,,0.174513954,0.141421356,0.349027907,0.282842712,stimuli/lakes/203024_left.png,stimuli/lakes/203024_right.png,,,,0,53,53,24,1,,,,,
,,,,,,$5ec970f3e657d60c8e4db3a4,2020-07-21_23h33.57.320,fisher_task,2020.1.3,MacIntel,60,0.162482639,-0.41999566,1,0,0,0.486145,scale,,,,,,0.2468,0.2,0.302267034,0.244948974,stimuli/lakes/407092_left.png,stimuli/lakes/407092_right.png,,,,0,54,54,92,1,,,,,
,,,,,,$5ec970f3e657d60c8e4db3a4,2020-07-21_23h33.57.320,fisher_task,2020.1.3,MacIntel,60,-0.146618924,-0.415989583,1,0,0,0.56805,scale,,,,,,0.326485712,0.264575131,0.21373507,0.173205081,stimuli/lakes/702019_left.png,stimuli/lakes/702019_right.png,,,,0,55,55,19,1,,,,,
,,,,,,$5ec970f3e657d60c8e4db3a4,2020-07-21_23h33.57.320,fisher_task,2020.1.3,MacIntel,60,-0.151384549,-0.415989583,1,0,0,0.3988,scale,,,,,,0.349027907,0.282842712,0.174513954,0.141421356,stimuli/lakes/806078_left.png,stimuli/lakes/806078_right.png,,,,0,56,56,78,1,,,,,
,,,,,,$5ec970f3e657d60c8e4db3a4,2020-07-21_23h33.57.320,fisher_task,2020.1.3,MacIntel,60,0.170173611,-0.415264757,1,0,0,0.59973,scale,,,,,,0.2468,0.2,0.302267034,0.244948974,stimuli/lakes/402015_left.png,stimuli/lakes/402015_right.png,,,,0,57,57,15,1,,,,,
,,,,,,$5ec970f3e657d60c8e4db3a4,2020-07-21_23h33.57.320,fisher_task,2020.1.3,MacIntel,60,0.170173611,-0.415659722,1,0,0,0.34998,scale,,,,,,0.21373507,0.173205081,0.326485712,0.264575131,stimuli/lakes/303034_left.png,stimuli/lakes/303034_right.png,,,,0,58,58,34,1,,,,,
,,,,,,$5ec970f3e657d60c8e4db3a4,2020-07-21_23h33.57.320,fisher_task,2020.1.3,MacIntel,60,-0.156631944,-0.417109375,1,0,0,0.51618,scale,,,,,,0.275930788,0.223606798,0.275930788,0.223606798,stimuli/lakes/504054_left.png,stimuli/lakes/504054_right.png,,,,0,59,59,54,1,,,,,
,,,,,,$5ec970f3e657d60c8e4db3a4,2020-07-21_23h33.57.320,fisher_task,2020.1.3,MacIntel,60,0.172013889,-0.4165625,1,0,0,0.567865,scale,,,,,,0.174513954,0.141421356,0.349027907,0.282842712,stimuli/lakes/207099_left.png,stimuli/lakes/207099_right.png,,,,0,60,60,99,1,,,,,
,,,,,,$5ec970f3e657d60c8e4db3a4,2020-07-21_23h33.57.320,fisher_task,2020.1.3,MacIntel,60,-0.144778646,-0.42218316,1,0,0,0.66664,scale,,,,,,0.326485712,0.264575131,0.21373507,0.173205081,stimuli/lakes/7070104_left.png,stimuli/lakes/7070104_right.png,,,,0,61,61,104,1,,,,,
,,,,,,$5ec970f3e657d60c8e4db3a4,2020-07-21_23h33.57.320,fisher_task,2020.1.3,MacIntel,60,0.173528646,-0.420303819,1,0,0,0.63349,scale,,,,,,0.2468,0.2,0.302267034,0.244948974,stimuli/lakes/404044_left.png,stimuli/lakes/404044_right.png,,,,0,62,62,44,1,,,,,
,,,,,,$5ec970f3e657d60c8e4db3a4,2020-07-21_23h33.57.320,fisher_task,2020.1.3,MacIntel,60,0.169939236,-0.419861111,1,0,0,0.399545,scale,,,,,,0.174513954,0.141421356,0.349027907,0.282842712,stimuli/lakes/2080108_left.png,stimuli/lakes/2080108_right.png,,,,0,63,63,108,1,,,,,
,,,,,,$5ec970f3e657d60c8e4db3a4,2020-07-21_23h33.57.320,fisher_task,2020.1.3,MacIntel,60,0.171124132,-0.4190625,1,0,0,0.666525,scale,,,,,,0.21373507,0.173205081,0.326485712,0.264575131,stimuli/lakes/3080109_left.png,stimuli/lakes/3080109_right.png,,,,0,64,64,109,1,,,,,
,,,,,,$5ec970f3e657d60c8e4db3a4,2020-07-21_23h33.57.320,fisher_task,2020.1.3,MacIntel,60,0.171519097,-0.417074653,1,0,0,0.31632,scale,,,,,,0.174513954,0.141421356,0.349027907,0.282842712,stimuli/lakes/204051_left.png,stimuli/lakes/204051_right.png,,,,0,65,65,51,1,,,,,
,,,,,,$5ec970f3e657d60c8e4db3a4,2020-07-21_23h33.57.320,fisher_task,2020.1.3,MacIntel,60,-0.155169271,-0.433572049,1,0,0,0.967305,scale,,,,,,0.326485712,0.264575131,0.21373507,0.173205081,stimuli/lakes/703038_left.png,stimuli/lakes/703038_right.png,,,space,0,66,66,38,1,3.007865,,,,
,,,,,,$5ec970f3e657d60c8e4db3a4,2020-07-21_23h33.57.320,fisher_task,2020.1.3,MacIntel,60,-0.154635417,-0.415108507,1,0,0,0.449605,scale,,,,,,0.326485712,0.264575131,0.21373507,0.173205081,stimuli/lakes/70107_left.png,stimuli/lakes/70107_right.png,,,,0,67,67,7,1,,,,,
,,,,,,$5ec970f3e657d60c8e4db3a4,2020-07-21_23h33.57.320,fisher_task,2020.1.3,MacIntel,60,-0.157417535,-0.414309896,1,0,0,0.449765,scale,,,,,,0.326485712,0.264575131,0.21373507,0.173205081,stimuli/lakes/703029_left.png,stimuli/lakes/703029_right.png,,,,0,68,68,29,1,,,,,
,,,,,,$5ec970f3e657d60c8e4db3a4,2020-07-21_23h33.57.320,fisher_task,2020.1.3,MacIntel,60,0.172000868,-0.416892361,1,0,0,0.884065,scale,,,,,,0.275930788,0.223606798,0.275930788,0.223606798,stimuli/lakes/50104_left.png,stimuli/lakes/50104_right.png,,,,0,69,69,4,1,,,,,
,,,,,,$5ec970f3e657d60c8e4db3a4,2020-07-21_23h33.57.320,fisher_task,2020.1.3,MacIntel,60,0.172000868,-0.412513021,1,0,0,0.450495,scale,,,,,,0.174513954,0.141421356,0.349027907,0.282842712,stimuli/lakes/207090_left.png,stimuli/lakes/207090_right.png,,,,0,70,70,90,1,,,,,
,,,,,,$5ec970f3e657d60c8e4db3a4,2020-07-21_23h33.57.320,fisher_task,2020.1.3,MacIntel,60,0.172000868,-0.412513021,1,0,0,0.349235,scale,,,,,,0.174513954,0.141421356,0.349027907,0.282842712,stimuli/lakes/206072_left.png,stimuli/lakes/206072_right.png,,,,0,71,71,72,1,,,,,
,,,,,,$5ec970f3e657d60c8e4db3a4,2020-07-21_23h33.57.320,fisher_task,2020.1.3,MacIntel,60,0.172000868,-0.412513021,1,0,0,0.366635,scale,,,,,,0.174513954,0.141421356,0.349027907,0.282842712,stimuli/lakes/206081_left.png,stimuli/lakes/206081_right.png,,,,0,72,72,81,1,,,,,
,,,,,,$5ec970f3e657d60c8e4db3a4,2020-07-21_23h33.57.320,fisher_task,2020.1.3,MacIntel,60,-0.202217882,-0.401866319,1,0,0,0.580975,scale,,,,,,0.302267034,0.244948974,0.2468,0.2,stimuli/lakes/602018_left.png,stimuli/lakes/602018_right.png,,,,0,73,73,18,1,,,,,
,,,,,,$5ec970f3e657d60c8e4db3a4,2020-07-21_23h33.57.320,fisher_task,2020.1.3,MacIntel,60,0.099466146,-0.41094184,1,0,0,0.96739,scale,,,,,,0.21373507,0.173205081,0.326485712,0.264575131,stimuli/lakes/303025_left.png,stimuli/lakes/303025_right.png,,,,0,74,74,25,1,,,,,
,,,,,,$5ec970f3e657d60c8e4db3a4,2020-07-21_23h33.57.320,fisher_task,2020.1.3,MacIntel,60,-0.154913194,-0.428077257,1,0,0,1.35384,scale,,,,,,0.2468,0.2,0.302267034,0.244948974,stimuli/lakes/4080111_left.png,stimuli/lakes/4080111_right.png,,,,0,75,75,111,1,,,,,
,,,,,,$5ec970f3e657d60c8e4db3a4,2020-07-21_23h33.57.320,fisher_task,2020.1.3,MacIntel,60,-0.156124132,-0.419292535,1,0,0,0.718075,scale,,,,,,0.326485712,0.264575131,0.21373507,0.173205081,stimuli/lakes/705067_left.png,stimuli/lakes/705067_right.png,,,,0,76,76,67,1,,,,,
,,,,,,$5ec970f3e657d60c8e4db3a4,2020-07-21_23h33.57.320,fisher_task,2020.1.3,MacIntel,60,-0.16827691,-0.418710937,1,0,0,0.549075,scale,,,,,,0.3702,0.3,0.1234,0.1,stimuli/lakes/906088_left.png,stimuli/lakes/906088_right.png,,,,0,77,77,88,1,,,,,
,,,,,,$5ec970f3e657d60c8e4db3a4,2020-07-21_23h33.57.320,fisher_task,2020.1.3,MacIntel,60,0.137122396,-0.423194444,1,0,0,0.984345,scale,,,,,,0.2468,0.2,0.302267034,0.244948974,stimuli/lakes/403026_left.png,stimuli/lakes/403026_right.png,,,,0,78,78,26,1,,,,,
,,,,,,$5ec970f3e657d60c8e4db3a4,2020-07-21_23h33.57.320,fisher_task,2020.1.3,MacIntel,60,-0.21078559,-0.406215278,1,0,0,0.951545,scale,,,,,,0.302267034,0.244948974,0.2468,0.2,stimuli/lakes/6070103_left.png,stimuli/lakes/6070103_right.png,,,,0,79,79,103,1,,,,,
,,,,,,$5ec970f3e657d60c8e4db3a4,2020-07-21_23h33.57.320,fisher_task,2020.1.3,MacIntel,60,-0.152265625,-0.414335937,1,0,0,0.983945,scale,,,,,,0.326485712,0.264575131,0.21373507,0.173205081,stimuli/lakes/702020_left.png,stimuli/lakes/702020_right.png,,,,0,80,80,20,1,,,,,
,,,,,,$5ec970f3e657d60c8e4db3a4,2020-07-21_23h33.57.320,fisher_task,2020.1.3,MacIntel,60,-0.152265625,-0.414335937,1,0,0,0.7,scale,,,,,,0.302267034,0.244948974,0.2468,0.2,stimuli/lakes/603028_left.png,stimuli/lakes/603028_right.png,,,,0,81,81,28,1,,,,,
,,,,,,$5ec970f3e657d60c8e4db3a4,2020-07-21_23h33.57.320,fisher_task,2020.1.3,MacIntel,60,0.144874132,-0.415421007,1,0,0,0.83225,scale,,,,,,0.2468,0.2,0.302267034,0.244948974,stimuli/lakes/4090124_left.png,stimuli/lakes/4090124_right.png,,,,0,82,82,124,1,,,,,
,,,,,,$5ec970f3e657d60c8e4db3a4,2020-07-21_23h33.57.320,fisher_task,2020.1.3,MacIntel,60,0.144874132,-0.415421007,1,0,0,0.74995,scale,,,,,,0.326485712,0.264575131,0.21373507,0.173205081,stimuli/lakes/704056_left.png,stimuli/lakes/704056_right.png,,,,0,83,83,56,1,,,,,
,,,,,,$5ec970f3e657d60c8e4db3a4,2020-07-21_23h33.57.320,fisher_task,2020.1.3,MacIntel,60,0.149644097,-0.411432292,1,0,0,0.967045,scale,,,,,,0.2468,0.2,0.302267034,0.244948974,stimuli/lakes/403035_left.png,stimuli/lakes/403035_right.png,,,,0,84,84,35,1,,,,,
,,,,,,$5ec970f3e657d60c8e4db3a4,2020-07-21_23h33.57.320,fisher_task,2020.1.3,MacIntel,60,0.160755208,-0.406844618,1,0,0,0.9521,scale,,,,,,0.349027907,0.282842712,0.174513954,0.141421356,stimuli/lakes/802021_left.png,stimuli/lakes/802021_right.png,,,,0,85,85,21,1,,,,,
,,,,,,$5ec970f3e657d60c8e4db3a4,2020-07-21_23h33.57.320,fisher_task,2020.1.3,MacIntel,60,-0.161119792,-0.405972222,1,0,0,0.868045,scale,,,,,,0.349027907,0.282842712,0.174513954,0.141421356,stimuli/lakes/803039_left.png,stimuli/lakes/803039_right.png,,,,0,86,86,39,1,,,,,
,,,,,,$5ec970f3e657d60c8e4db3a4,2020-07-21_23h33.57.320,fisher_task,2020.1.3,MacIntel,60,0.187391493,-0.408628472,1,0,0,0.93368,scale,,,,,,0.1234,0.1,0.3702,0.3,stimuli/lakes/106071_left.png,stimuli/lakes/106071_right.png,,,,0,87,87,71,1,,,,,
,,,,,,$5ec970f3e657d60c8e4db3a4,2020-07-21_23h33.57.320,fisher_task,2020.1.3,MacIntel,60,-0.16202691,-0.400494792,1,0,0,0.91808,scale,,,,,,0.326485712,0.264575131,0.21373507,0.173205081,stimuli/lakes/705068_left.png,stimuli/lakes/705068_right.png,,,space,0,88,88,68,1,2.20901,,,,
,,,,,,$5ec970f3e657d60c8e4db3a4,2020-07-21_23h33.57.320,fisher_task,2020.1.3,MacIntel,60,-0.163624132,-0.412899306,1,0,0,0.49966,scale,,,,,,0.302267034,0.244948974,0.2468,0.2,stimuli/lakes/606085_left.png,stimuli/lakes/606085_right.png,,,,0,89,89,85,1,,,,,
,,,,,,$5ec970f3e657d60c8e4db3a4,2020-07-21_23h33.57.320,fisher_task,2020.1.3,MacIntel,60,-0.164422743,-0.418033854,1,0,0,0.60217,scale,,,,,,0.349027907,0.282842712,0.174513954,0.141421356,stimuli/lakes/8080118_left.png,stimuli/lakes/8080118_right.png,,,,0,90,90,118,1,,,,,
,,,,,,$5ec970f3e657d60c8e4db3a4,2020-07-21_23h33.57.320,fisher_task,2020.1.3,MacIntel,60,0.148194444,-0.423949653,1,0,0,1.23779,scale,,,,,,0.3702,0.3,0.1234,0.1,stimuli/lakes/902022_left.png,stimuli/lakes/902022_right.png,,,,0,91,91,22,1,,,,,
,,,,,,$5ec970f3e657d60c8e4db3a4,2020-07-21_23h33.57.320,fisher_task,2020.1.3,MacIntel,60,-0.140451389,-0.411046007,1,0,0,1.26956,scale,,,,,,0.275930788,0.223606798,0.275930788,0.223606798,stimuli/lakes/5070102_left.png,stimuli/lakes/5070102_right.png,,,,0,92,92,102,1,,,,,
,,,,,,$5ec970f3e657d60c8e4db3a4,2020-07-21_23h33.57.320,fisher_task,2020.1.3,MacIntel,60,0.134427083,-0.322369792,1,0,0,1.387945,scale,,,,,,0.1234,0.1,0.3702,0.3,stimuli/lakes/103032_left.png,stimuli/lakes/103032_right.png,,,,0,93,93,32,1,,,,,
,,,,,,$5ec970f3e657d60c8e4db3a4,2020-07-21_23h33.57.320,fisher_task,2020.1.3,MacIntel,60,0.150863715,-0.361289062,1,0,0,1.019015,scale,,,,,,0.1234,0.1,0.3702,0.3,stimuli/lakes/106080_left.png,stimuli/lakes/106080_right.png,,,,0,94,94,80,1,,,,,
,,,,,,$5ec970f3e657d60c8e4db3a4,2020-07-21_23h33.57.320,fisher_task,2020.1.3,MacIntel,60,-0.164748264,-0.404383681,1,0,0,1.21723,scale,,,,,,0.349027907,0.282842712,0.174513954,0.141421356,stimuli/lakes/807096_left.png,stimuli/lakes/807096_right.png,,,,0,95,95,96,1,,,,,
,,,,,,$5ec970f3e657d60c8e4db3a4,2020-07-21_23h33.57.320,fisher_task,2020.1.3,MacIntel,60,0.220221354,-0.394522569,1,0,0,1.15247,scale,,,,,,0.2468,0.2,0.302267034,0.244948974,stimuli/lakes/404053_left.png,stimuli/lakes/404053_right.png,,,,0,96,96,53,1,,,,,
,,,,,,$5ec970f3e657d60c8e4db3a4,2020-07-21_23h33.57.320,fisher_task,2020.1.3,MacIntel,60,-0.165021701,-0.367578125,1,0,0,0.885335,scale,,,,,,0.326485712,0.264575131,0.21373507,0.173205081,stimuli/lakes/7080117_left.png,stimuli/lakes/7080117_right.png,,,,0,97,97,117,1,,,,,
,,,,,,$5ec970f3e657d60c8e4db3a4,2020-07-21_23h33.57.320,fisher_task,2020.1.3,MacIntel,60,-0.167013889,-0.373107639,1,0,0,0.567615,scale,,,,,,0.302267034,0.244948974,0.2468,0.2,stimuli/lakes/607094_left.png,stimuli/lakes/607094_right.png,,,,0,98,98,94,1,,,,,
,,,,,,$5ec970f3e657d60c8e4db3a4,2020-07-21_23h33.57.320,fisher_task,2020.1.3,MacIntel,60,-0.172387153,-0.399952257,1,0,0,0.699855,scale,,,,,,0.302267034,0.244948974,0.2468,0.2,stimuli/lakes/6090126_left.png,stimuli/lakes/6090126_right.png,,,,0,99,99,126,1,,,,,
,,,,,,$5ec970f3e657d60c8e4db3a4,2020-07-21_23h33.57.320,fisher_task,2020.1.3,MacIntel,60,0.129926215,-0.323940972,1,0,0,1.33552,scale,,,,,,0.349027907,0.282842712,0.174513954,0.141421356,stimuli/lakes/80109_left.png,stimuli/lakes/80109_right.png,,,,0,100,100,9,1,,,,,
,,,,,,$5ec970f3e657d60c8e4db3a4,2020-07-21_23h33.57.320,fisher_task,2020.1.3,MacIntel,60,0.145855035,-0.330442708,1,0,0,1.537005,scale,,,,,,0.21373507,0.173205081,0.326485712,0.264575131,stimuli/lakes/302013_left.png,stimuli/lakes/302013_right.png,,,,0,101,101,13,1,,,,,
,,,,,,$5ec970f3e657d60c8e4db3a4,2020-07-21_23h33.57.320,fisher_task,2020.1.3,MacIntel,60,0.123767361,-0.316384549,1,0,0,1.284405,scale,,,,,,0.302267034,0.244948974,0.2468,0.2,stimuli/lakes/603037_left.png,stimuli/lakes/603037_right.png,,,,0,102,102,37,1,,,,,
,,,,,,$5ec970f3e657d60c8e4db3a4,2020-07-21_23h33.57.320,fisher_task,2020.1.3,MacIntel,60,-0.157786458,-0.332105035,1,0,0,1.369155,scale,,,,,,0.2468,0.2,0.302267034,0.244948974,stimuli/lakes/4070101_left.png,stimuli/lakes/4070101_right.png,,,,0,103,103,101,1,,,,,
,,,,,,$5ec970f3e657d60c8e4db3a4,2020-07-21_23h33.57.320,fisher_task,2020.1.3,MacIntel,60,-0.162126736,-0.373519965,1,0,0,1.100805,scale,,,,,,0.275930788,0.223606798,0.275930788,0.223606798,stimuli/lakes/5080113_left.png,stimuli/lakes/5080113_right.png,,,,0,104,104,113,1,,,,,
,,,,,,$5ec970f3e657d60c8e4db3a4,2020-07-21_23h33.57.320,fisher_task,2020.1.3,MacIntel,60,-0.150421007,-0.312925347,1,0,0,1.70254,scale,,,,,,0.275930788,0.223606798,0.275930788,0.223606798,stimuli/lakes/506075_left.png,stimuli/lakes/506075_right.png,,,,0,105,105,75,1,,,,,
,,,,,,$5ec970f3e657d60c8e4db3a4,2020-07-21_23h33.57.320,fisher_task,2020.1.3,MacIntel,60,0.158046875,-0.373298611,1,0,0,1.70248,scale,,,,,,0.21373507,0.173205081,0.326485712,0.264575131,stimuli/lakes/306073_left.png,stimuli/lakes/306073_right.png,,,,0,106,106,73,1,,,,,
,,,,,,$5ec970f3e657d60c8e4db3a4,2020-07-21_23h33.57.320,fisher_task,2020.1.3,MacIntel,60,-0.153936632,-0.415763889,1,0,0,1.20337,scale,,,,,,0.3702,0.3,0.1234,0.1,stimuli/lakes/905070_left.png,stimuli/lakes/905070_right.png,,,,0,107,107,70,1,,,,,
,,,,,,$5ec970f3e657d60c8e4db3a4,2020-07-21_23h33.57.320,fisher_task,2020.1.3,MacIntel,60,-0.15890191,-0.427374132,1,0,0,0.632315,scale,,,,,,0.302267034,0.244948974,0.2468,0.2,stimuli/lakes/6080114_left.png,stimuli/lakes/6080114_right.png,,,,0,108,108,114,1,,,,,
,,,,,,$5ec970f3e657d60c8e4db3a4,2020-07-21_23h33.57.320,fisher_task,2020.1.3,MacIntel,60,0.158923611,-0.411315104,1,0,0,1.084675,scale,,,,,,0.21373507,0.173205081,0.326485712,0.264575131,stimuli/lakes/30100_left.png,stimuli/lakes/30100_right.png,,,,0,109,109,0,1,,,,,
,,,,,,$5ec970f3e657d60c8e4db3a4,2020-07-21_23h33.57.320,fisher_task,2020.1.3,MacIntel,60,-0.126449653,-0.281705729,1,0,0,1.55243,scale,,,,,,0.21373507,0.173205081,0.326485712,0.264575131,stimuli/lakes/3090121_left.png,stimuli/lakes/3090121_right.png,,,space,0,110,110,121,1,2.060135,,,,
,,,,,,$5ec970f3e657d60c8e4db3a4,2020-07-21_23h33.57.320,fisher_task,2020.1.3,MacIntel,60,0.168446181,-0.37547309,1,0,0,1.48676,scale,,,,,,0.1234,0.1,0.3702,0.3,stimuli/lakes/104041_left.png,stimuli/lakes/104041_right.png,,,,0,111,111,41,1,,,,,
,,,,,,$5ec970f3e657d60c8e4db3a4,2020-07-21_23h33.57.320,fisher_task,2020.1.3,MacIntel,60,-0.193715278,-0.435542535,1,0,0,1.12133,scale,,,,,,0.3702,0.3,0.1234,0.1,stimuli/lakes/907097_left.png,stimuli/lakes/907097_right.png,,,,0,112,112,97,1,,,,,
,,,,,,$5ec970f3e657d60c8e4db3a4,2020-07-21_23h33.57.320,fisher_task,2020.1.3,MacIntel,60,-0.142426215,-0.337838542,1,0,0,1.7874,scale,,,,,,0.3702,0.3,0.1234,0.1,stimuli/lakes/903031_left.png,stimuli/lakes/903031_right.png,,,,0,113,113,31,1,,,,,
,,,,,,$5ec970f3e657d60c8e4db3a4,2020-07-21_23h33.57.320,fisher_task,2020.1.3,MacIntel,60,0.145195313,-0.37796441,1,0,0,1.070265,scale,,,,,,0.1234,0.1,0.3702,0.3,stimuli/lakes/105059_left.png,stimuli/lakes/105059_right.png,,,,0,114,114,59,1,,,,,
,,,,,,$5ec970f3e657d60c8e4db3a4,2020-07-21_23h33.57.320,fisher_task,2020.1.3,MacIntel,60,-0.127447917,-0.281067708,1,0,0,1.36811,scale,,,,,,0.326485712,0.264575131,0.21373507,0.173205081,stimuli/lakes/704047_left.png,stimuli/lakes/704047_right.png,,,,0,115,115,47,1,,,,,
,,,,,,$5ec970f3e657d60c8e4db3a4,2020-07-21_23h33.57.320,fisher_task,2020.1.3,MacIntel,60,-0.166449653,-0.429092882,1,0,0,0.985585,scale,,,,,,0.302267034,0.244948974,0.2468,0.2,stimuli/lakes/6080115_left.png,stimuli/lakes/6080115_right.png,,,,0,116,116,115,1,,,,,
,,,,,,$5ec970f3e657d60c8e4db3a4,2020-07-21_23h33.57.320,fisher_task,2020.1.3,MacIntel,60,-0.153893229,-0.346649306,1,0,0,1.18419,scale,,,,,,0.302267034,0.244948974,0.2468,0.2,stimuli/lakes/604055_left.png,stimuli/lakes/604055_right.png,,,,0,117,117,55,1,,,,,
,,,,,,$5ec970f3e657d60c8e4db3a4,2020-07-21_23h33.57.320,fisher_task,2020.1.3,MacIntel,60,0.170368924,-0.420811632,1,0,0,0.95162,scale,,,,,,0.21373507,0.173205081,0.326485712,0.264575131,stimuli/lakes/30101_left.png,stimuli/lakes/30101_right.png,,,,0,118,118,1,1,,,,,
,,,,,,$5ec970f3e657d60c8e4db3a4,2020-07-21_23h33.57.320,fisher_task,2020.1.3,MacIntel,60,0.174388021,-0.434227431,1,0,0,0.800285,scale,,,,,,0.2468,0.2,0.302267034,0.244948974,stimuli/lakes/40103_left.png,stimuli/lakes/40103_right.png,,,,0,119,119,3,1,,,,,
,,,,,,$5ec970f3e657d60c8e4db3a4,2020-07-21_23h33.57.320,fisher_task,2020.1.3,MacIntel,60,-0.123936632,-0.35875,1,0,0,1.183745,scale,,,,,,0.302267034,0.244948974,0.2468,0.2,stimuli/lakes/605065_left.png,stimuli/lakes/605065_right.png,,,,0,120,120,65,1,,,,,
,,,,,,$5ec970f3e657d60c8e4db3a4,2020-07-21_23h33.57.320,fisher_task,2020.1.3,MacIntel,60,-0.136323785,-0.382834201,1,0,0,0.93552,scale,,,,,,0.326485712,0.264575131,0.21373507,0.173205081,stimuli/lakes/707095_left.png,stimuli/lakes/707095_right.png,,,,0,121,121,95,1,,,,,
,,,,,,$5ec970f3e657d60c8e4db3a4,2020-07-21_23h33.57.320,fisher_task,2020.1.3,MacIntel,60,0.198949653,-0.371228299,1,0,0,1.55229,scale,,,,,,0.2468,0.2,0.302267034,0.244948974,stimuli/lakes/406083_left.png,stimuli/lakes/406083_right.png,,,,0,122,122,83,1,,,,,
,,,,,,$5ec970f3e657d60c8e4db3a4,2020-07-21_23h33.57.320,fisher_task,2020.1.3,MacIntel,60,0.159270833,-0.35781684,1,0,0,0.851175,scale,,,,,,0.275930788,0.223606798,0.275930788,0.223606798,stimuli/lakes/503027_left.png,stimuli/lakes/503027_right.png,,,,0,123,123,27,1,,,,,
,,,,,,$5ec970f3e657d60c8e4db3a4,2020-07-21_23h33.57.320,fisher_task,2020.1.3,MacIntel,60,-0.101449653,-0.297361111,1,0,0,1.25286,scale,,,,,,0.349027907,0.282842712,0.174513954,0.141421356,stimuli/lakes/804048_left.png,stimuli/lakes/804048_right.png,,,,0,124,124,48,1,,,,,
,,,,,,$5ec970f3e657d60c8e4db3a4,2020-07-21_23h33.57.320,fisher_task,2020.1.3,MacIntel,60,-0.118563368,-0.295368924,1,0,0,1.23487,scale,,,,,,0.1234,0.1,0.3702,0.3,stimuli/lakes/1080107_left.png,stimuli/lakes/1080107_right.png,,,,0,125,125,107,1,,,,,
,,,,,,$5ec970f3e657d60c8e4db3a4,2020-07-21_23h33.57.320,fisher_task,2020.1.3,MacIntel,60,-0.123263889,-0.289105903,1,0,0,0.969385,scale,,,,,,0.302267034,0.244948974,0.2468,0.2,stimuli/lakes/606076_left.png,stimuli/lakes/606076_right.png,,,,0,126,126,76,1,,,,,
,,,,,,$5ec970f3e657d60c8e4db3a4,2020-07-21_23h33.57.320,fisher_task,2020.1.3,MacIntel,60,-0.138224826,-0.32796875,1,0,0,1.20484,scale,,,,,,0.2468,0.2,0.302267034,0.244948974,stimuli/lakes/4080112_left.png,stimuli/lakes/4080112_right.png,,,,0,127,127,112,1,,,,,
,,,,,,$5ec970f3e657d60c8e4db3a4,2020-07-21_23h33.57.320,fisher_task,2020.1.3,MacIntel,60,0.131501736,-0.309327257,1,0,0,1.15189,scale,,,,,,0.275930788,0.223606798,0.275930788,0.223606798,stimuli/lakes/502016_left.png,stimuli/lakes/502016_right.png,,,,0,128,128,16,1,,,,,
,,,,,,$5ec970f3e657d60c8e4db3a4,2020-07-21_23h33.57.320,fisher_task,2020.1.3,MacIntel,60,0.165568576,-0.403728299,1,0,0,0.852015,scale,,,,,,0.2468,0.2,0.302267034,0.244948974,stimuli/lakes/40102_left.png,stimuli/lakes/40102_right.png,,,,0,129,129,2,1,,,,,
,,,,,,$5ec970f3e657d60c8e4db3a4,2020-07-21_23h33.57.320,fisher_task,2020.1.3,MacIntel,60,,,,,,,,,,,,,,,,,,,,,,,,,,,,space,4.56094,space,31.608095
