keySpace.keys,instructions.thisRepN,instructions.thisTrialN,instructions.thisN,instructions.thisIndex,instructions.ran,participant,date,expName,psychopyVersion,OS,frameRate,mouse.x,mouse.y,mouse.leftButton,mouse.midButton,mouse.rightButton,mouse.time,mouse.clicked_name,training.thisRepN,training.thisTrialN,training.thisN,training.thisIndex,training.ran,widthBasketLeft,heightBasketLeft,widthBasketRight,heightBasketRight,leftLake,rightLake,space2.keys,space2.rt,space1.keys,trials.thisRepN,trials.thisTrialN,trials.thisN,trials.thisIndex,trials.ran,space1.rt,finalSpace1.keys,finalSpace1.rt,finalSpace2.keys,finalSpace2.rt
,0,0,0,0,1,$$5dcbea3588381e87f60cb202,2020-07-23_11h52.25.568,fisher_task,2020.1.3,Win32,60,,,,,,,,,,,,,,,,,,,,,,,,,,,,,,,
,,,,,,$$5dcbea3588381e87f60cb202,2020-07-23_11h52.25.568,fisher_task,2020.1.3,Win32,60,0.160185185,-0.374074074,1,0,0,2.04981,scale,0,0,0,0,1,0.275930788,0.223606798,0.275930788,0.223606798,stimuli/training/20_left.png,stimuli/training/20_right.png,,,,,,,,,,,,,
,,,,,,$$5dcbea3588381e87f60cb202,2020-07-23_11h52.25.568,fisher_task,2020.1.3,Win32,60,-0.173148148,-0.408333333,1,0,0,1.56546,scale,0,1,1,1,1,0.275930788,0.223606798,0.275930788,0.223606798,stimuli/training/80_left.png,stimuli/training/80_right.png,,,,,,,,,,,,,
,,,,,,$$5dcbea3588381e87f60cb202,2020-07-23_11h52.25.568,fisher_task,2020.1.3,Win32,60,0.063888889,-0.264814815,1,0,0,2.299685,scale,0,2,2,2,1,0.174513954,0.141421356,0.349027907,0.282842712,stimuli/training/50_left.png,stimuli/training/50_right.png,,,,,,,,,,,,,
,,,,,,$$5dcbea3588381e87f60cb202,2020-07-23_11h52.25.568,fisher_task,2020.1.3,Win32,60,-0.075,-0.271296296,1,0,0,2.032185,scale,0,3,3,3,1,0.349027907,0.282842712,0.174513954,0.141421356,stimuli/training/50_left.png,stimuli/training/50_right.png,,,,,,,,,,,,,
,,,,,,$$5dcbea3588381e87f60cb202,2020-07-23_11h52.25.568,fisher_task,2020.1.3,Win32,60,0.072222222,-0.296296296,1,0,0,2.066115,scale,0,4,4,4,1,0.275930788,0.223606798,0.275930788,0.223606798,stimuli/training/50_left.png,stimuli/training/50_right.png,,,,,,,,,,,,,
,,,,,,$$5dcbea3588381e87f60cb202,2020-07-23_11h52.25.568,fisher_task,2020.1.3,Win32,60,0.165740741,-0.4,1,0,0,1.166785,scale,0,5,5,5,1,0.174513954,0.141421356,0.349027907,0.282842712,stimuli/training/20_left.png,stimuli/training/20_right.png,,,,,,,,,,,,,
,,,,,,$$5dcbea3588381e87f60cb202,2020-07-23_11h52.25.568,fisher_task,2020.1.3,Win32,60,-0.176851852,-0.400925926,1,0,0,1.099375,scale,0,6,6,6,1,0.349027907,0.282842712,0.174513954,0.141421356,stimuli/training/80_left.png,stimuli/training/80_right.png,,,,,,,,,,,,,
,,,,,,$$5dcbea3588381e87f60cb202,2020-07-23_11h52.25.568,fisher_task,2020.1.3,Win32,60,0.144444444,-0.353703704,1,0,0,1.132145,scale,0,7,7,7,1,0.1234,0.1,0.3702,0.3,stimuli/training/30_left.png,stimuli/training/30_right.png,,,,,,,,,,,,,
,,,,,,$$5dcbea3588381e87f60cb202,2020-07-23_11h52.25.568,fisher_task,2020.1.3,Win32,60,-0.131481481,-0.303703704,1,0,0,1.09998,scale,0,8,8,8,1,0.3702,0.3,0.1234,0.1,stimuli/training/70_left.png,stimuli/training/70_right.png,,,,,,,,,,,,,
,,,,,,$$5dcbea3588381e87f60cb202,2020-07-23_11h52.25.568,fisher_task,2020.1.3,Win32,60,-0.160185185,-0.388888889,1,0,0,1.01656,scale,0,9,9,9,1,0.326485712,0.264575131,0.21373507,0.173205081,stimuli/training/90_left.png,stimuli/training/90_right.png,,,,,,,,,,,,,
,,,,,,$$5dcbea3588381e87f60cb202,2020-07-23_11h52.25.568,fisher_task,2020.1.3,Win32,60,0.118518519,-0.318518519,1,0,0,1.915815,scale,0,10,10,10,1,0.21373507,0.173205081,0.326485712,0.264575131,stimuli/training/10_left.png,stimuli/training/10_right.png,,,,,,,,,,,,,
,,,,,,$$5dcbea3588381e87f60cb202,2020-07-23_11h52.25.568,fisher_task,2020.1.3,Win32,60,0.134259259,-0.349074074,1,0,0,1.36684,scale,,,,,,0.275930788,0.223606798,0.275930788,0.223606798,stimuli/lakes/50104_left.png,stimuli/lakes/50104_right.png,space,5.354785,,0,0,0,4,1,,,,,
,,,,,,$$5dcbea3588381e87f60cb202,2020-07-23_11h52.25.568,fisher_task,2020.1.3,Win32,60,-0.077777778,-0.282407407,1,0,0,1.26652,scale,,,,,,0.326485712,0.264575131,0.21373507,0.173205081,stimuli/lakes/707095_left.png,stimuli/lakes/707095_right.png,,,,0,1,1,95,1,,,,,
,,,,,,$$5dcbea3588381e87f60cb202,2020-07-23_11h52.25.568,fisher_task,2020.1.3,Win32,60,0.071296296,-0.278703704,1,0,0,1.533735,scale,,,,,,0.174513954,0.141421356,0.349027907,0.282842712,stimuli/lakes/206072_left.png,stimuli/lakes/206072_right.png,,,,0,2,2,72,1,,,,,
,,,,,,$$5dcbea3588381e87f60cb202,2020-07-23_11h52.25.568,fisher_task,2020.1.3,Win32,60,-0.071296296,-0.275925926,1,0,0,1.36611,scale,,,,,,0.302267034,0.244948974,0.2468,0.2,stimuli/lakes/605065_left.png,stimuli/lakes/605065_right.png,,,,0,3,3,65,1,,,,,
,,,,,,$$5dcbea3588381e87f60cb202,2020-07-23_11h52.25.568,fisher_task,2020.1.3,Win32,60,0.137037037,-0.341666667,1,0,0,1.00033,scale,,,,,,0.21373507,0.173205081,0.326485712,0.264575131,stimuli/lakes/304052_left.png,stimuli/lakes/304052_right.png,,,,0,4,4,52,1,,,,,
,,,,,,$$5dcbea3588381e87f60cb202,2020-07-23_11h52.25.568,fisher_task,2020.1.3,Win32,60,0.148148148,-0.377777778,1,0,0,1.13332,scale,,,,,,0.1234,0.1,0.3702,0.3,stimuli/lakes/103032_left.png,stimuli/lakes/103032_right.png,,,,0,5,5,32,1,,,,,
,,,,,,$$5dcbea3588381e87f60cb202,2020-07-23_11h52.25.568,fisher_task,2020.1.3,Win32,60,-0.118518519,-0.292592593,1,0,0,1.416675,scale,,,,,,0.275930788,0.223606798,0.275930788,0.223606798,stimuli/lakes/506084_left.png,stimuli/lakes/506084_right.png,,,,0,6,6,84,1,,,,,
,,,,,,$$5dcbea3588381e87f60cb202,2020-07-23_11h52.25.568,fisher_task,2020.1.3,Win32,60,0.035185185,-0.260185185,1,0,0,2.116585,scale,,,,,,0.21373507,0.173205081,0.326485712,0.264575131,stimuli/lakes/3070100_left.png,stimuli/lakes/3070100_right.png,,,,0,7,7,100,1,,,,,
,,,,,,$$5dcbea3588381e87f60cb202,2020-07-23_11h52.25.568,fisher_task,2020.1.3,Win32,60,-0.033333333,-0.248148148,1,0,0,1.716415,scale,,,,,,0.326485712,0.264575131,0.21373507,0.173205081,stimuli/lakes/702019_left.png,stimuli/lakes/702019_right.png,,,,0,8,8,19,1,,,,,
,,,,,,$$5dcbea3588381e87f60cb202,2020-07-23_11h52.25.568,fisher_task,2020.1.3,Win32,60,-0.108333333,-0.310185185,1,0,0,1.817695,scale,,,,,,0.21373507,0.173205081,0.326485712,0.264575131,stimuli/lakes/3090122_left.png,stimuli/lakes/3090122_right.png,,,,0,9,9,122,1,,,,,
,,,,,,$$5dcbea3588381e87f60cb202,2020-07-23_11h52.25.568,fisher_task,2020.1.3,Win32,60,0.058333333,-0.275,1,0,0,1.399385,scale,,,,,,0.21373507,0.173205081,0.326485712,0.264575131,stimuli/lakes/306082_left.png,stimuli/lakes/306082_right.png,,,,0,10,10,82,1,,,,,
,,,,,,$$5dcbea3588381e87f60cb202,2020-07-23_11h52.25.568,fisher_task,2020.1.3,Win32,60,0.111111111,-0.288888889,1,0,0,1.299665,scale,,,,,,0.2468,0.2,0.302267034,0.244948974,stimuli/lakes/402014_left.png,stimuli/lakes/402014_right.png,,,,0,11,11,14,1,,,,,
,,,,,,$$5dcbea3588381e87f60cb202,2020-07-23_11h52.25.568,fisher_task,2020.1.3,Win32,60,-0.124074074,-0.322222222,1,0,0,1.01595,scale,,,,,,0.349027907,0.282842712,0.174513954,0.141421356,stimuli/lakes/8080118_left.png,stimuli/lakes/8080118_right.png,,,,0,12,12,118,1,,,,,
,,,,,,$$5dcbea3588381e87f60cb202,2020-07-23_11h52.25.568,fisher_task,2020.1.3,Win32,60,-0.111111111,-0.292592593,1,0,0,0.95024,scale,,,,,,0.302267034,0.244948974,0.2468,0.2,stimuli/lakes/605066_left.png,stimuli/lakes/605066_right.png,,,,0,13,13,66,1,,,,,
,,,,,,$$5dcbea3588381e87f60cb202,2020-07-23_11h52.25.568,fisher_task,2020.1.3,Win32,60,0.086111111,-0.297222222,1,0,0,1.14909,scale,,,,,,0.1234,0.1,0.3702,0.3,stimuli/lakes/106080_left.png,stimuli/lakes/106080_right.png,,,,0,14,14,80,1,,,,,
,,,,,,$$5dcbea3588381e87f60cb202,2020-07-23_11h52.25.568,fisher_task,2020.1.3,Win32,60,-0.080555556,-0.281481481,1,0,0,1.5662,scale,,,,,,0.2468,0.2,0.302267034,0.244948974,stimuli/lakes/4080111_left.png,stimuli/lakes/4080111_right.png,,,,0,15,15,111,1,,,,,
,,,,,,$$5dcbea3588381e87f60cb202,2020-07-23_11h52.25.568,fisher_task,2020.1.3,Win32,60,-0.080555556,-0.278703704,1,0,0,1.40069,scale,,,,,,0.326485712,0.264575131,0.21373507,0.173205081,stimuli/lakes/705067_left.png,stimuli/lakes/705067_right.png,,,,0,16,16,67,1,,,,,
,,,,,,$$5dcbea3588381e87f60cb202,2020-07-23_11h52.25.568,fisher_task,2020.1.3,Win32,60,-0.030555556,-0.251851852,1,0,0,1.83285,scale,,,,,,0.2468,0.2,0.302267034,0.244948974,stimuli/lakes/4090123_left.png,stimuli/lakes/4090123_right.png,,,,0,17,17,123,1,,,,,
,,,,,,$$5dcbea3588381e87f60cb202,2020-07-23_11h52.25.568,fisher_task,2020.1.3,Win32,60,0.178703704,-0.401851852,1,0,0,1.03185,scale,,,,,,0.21373507,0.173205081,0.326485712,0.264575131,stimuli/lakes/30100_left.png,stimuli/lakes/30100_right.png,,,,0,18,18,0,1,,,,,
,,,,,,$$5dcbea3588381e87f60cb202,2020-07-23_11h52.25.568,fisher_task,2020.1.3,Win32,60,-0.088888889,-0.276851852,1,0,0,1.36655,scale,,,,,,0.349027907,0.282842712,0.174513954,0.141421356,stimuli/lakes/806078_left.png,stimuli/lakes/806078_right.png,,,,0,19,19,78,1,,,,,
,,,,,,$$5dcbea3588381e87f60cb202,2020-07-23_11h52.25.568,fisher_task,2020.1.3,Win32,60,-0.015740741,-0.243518519,1,0,0,2.76681,scale,,,,,,0.1234,0.1,0.3702,0.3,stimuli/lakes/1090119_left.png,stimuli/lakes/1090119_right.png,,,,0,20,20,119,1,,,,,
,,,,,,$$5dcbea3588381e87f60cb202,2020-07-23_11h52.25.568,fisher_task,2020.1.3,Win32,60,0.061111111,-0.287037037,1,0,0,1.14979,scale,,,,,,0.2468,0.2,0.302267034,0.244948974,stimuli/lakes/406083_left.png,stimuli/lakes/406083_right.png,,,,0,21,21,83,1,,,,,
,,,,,,$$5dcbea3588381e87f60cb202,2020-07-23_11h52.25.568,fisher_task,2020.1.3,Win32,60,0.035185185,-0.248148148,1,0,0,1.533235,scale,,,,,,0.3702,0.3,0.1234,0.1,stimuli/lakes/902022_left.png,stimuli/lakes/902022_right.png,,,space,0,22,22,22,1,3.29685,,,,
,,,,,,$$5dcbea3588381e87f60cb202,2020-07-23_11h52.25.568,fisher_task,2020.1.3,Win32,60,-0.172222222,-0.393518519,1,0,0,1.25003,scale,,,,,,0.275930788,0.223606798,0.275930788,0.223606798,stimuli/lakes/5080113_left.png,stimuli/lakes/5080113_right.png,,,,0,23,23,113,1,,,,,
,,,,,,$$5dcbea3588381e87f60cb202,2020-07-23_11h52.25.568,fisher_task,2020.1.3,Win32,60,0.162962963,-0.417592593,1,0,0,0.932845,scale,,,,,,0.21373507,0.173205081,0.326485712,0.264575131,stimuli/lakes/302013_left.png,stimuli/lakes/302013_right.png,,,,0,24,24,13,1,,,,,
,,,,,,$$5dcbea3588381e87f60cb202,2020-07-23_11h52.25.568,fisher_task,2020.1.3,Win32,60,-0.10462963,-0.300925926,1,0,0,1.11639,scale,,,,,,0.326485712,0.264575131,0.21373507,0.173205081,stimuli/lakes/7070104_left.png,stimuli/lakes/7070104_right.png,,,,0,25,25,104,1,,,,,
,,,,,,$$5dcbea3588381e87f60cb202,2020-07-23_11h52.25.568,fisher_task,2020.1.3,Win32,60,-0.136111111,-0.361111111,1,0,0,1.249715,scale,,,,,,0.3702,0.3,0.1234,0.1,stimuli/lakes/9070106_left.png,stimuli/lakes/9070106_right.png,,,,0,26,26,106,1,,,,,
,,,,,,$$5dcbea3588381e87f60cb202,2020-07-23_11h52.25.568,fisher_task,2020.1.3,Win32,60,0.117592593,-0.332407407,1,0,0,0.93301,scale,,,,,,0.21373507,0.173205081,0.326485712,0.264575131,stimuli/lakes/303025_left.png,stimuli/lakes/303025_right.png,,,,0,27,27,25,1,,,,,
,,,,,,$$5dcbea3588381e87f60cb202,2020-07-23_11h52.25.568,fisher_task,2020.1.3,Win32,60,-0.106481481,-0.321296296,1,0,0,0.966495,scale,,,,,,0.3702,0.3,0.1234,0.1,stimuli/lakes/906079_left.png,stimuli/lakes/906079_right.png,,,,0,28,28,79,1,,,,,
,,,,,,$$5dcbea3588381e87f60cb202,2020-07-23_11h52.25.568,fisher_task,2020.1.3,Win32,60,-0.04537037,-0.267592593,1,0,0,1.133695,scale,,,,,,0.326485712,0.264575131,0.21373507,0.173205081,stimuli/lakes/703029_left.png,stimuli/lakes/703029_right.png,,,,0,29,29,29,1,,,,,
,,,,,,$$5dcbea3588381e87f60cb202,2020-07-23_11h52.25.568,fisher_task,2020.1.3,Win32,60,-0.101851852,-0.290740741,1,0,0,1.45021,scale,,,,,,0.3702,0.3,0.1234,0.1,stimuli/lakes/904058_left.png,stimuli/lakes/904058_right.png,,,,0,30,30,58,1,,,,,
,,,,,,$$5dcbea3588381e87f60cb202,2020-07-23_11h52.25.568,fisher_task,2020.1.3,Win32,60,0.051851852,-0.242592593,1,0,0,1.516575,scale,,,,,,0.302267034,0.244948974,0.2468,0.2,stimuli/lakes/60106_left.png,stimuli/lakes/60106_right.png,,,,0,31,31,6,1,,,,,
,,,,,,$$5dcbea3588381e87f60cb202,2020-07-23_11h52.25.568,fisher_task,2020.1.3,Win32,60,-0.093518519,-0.277777778,1,0,0,1.083015,scale,,,,,,0.326485712,0.264575131,0.21373507,0.173205081,stimuli/lakes/706077_left.png,stimuli/lakes/706077_right.png,,,,0,32,32,77,1,,,,,
,,,,,,$$5dcbea3588381e87f60cb202,2020-07-23_11h52.25.568,fisher_task,2020.1.3,Win32,60,-0.123148148,-0.330555556,1,0,0,1.08301,scale,,,,,,0.302267034,0.244948974,0.2468,0.2,stimuli/lakes/607094_left.png,stimuli/lakes/607094_right.png,,,,0,33,33,94,1,,,,,
,,,,,,$$5dcbea3588381e87f60cb202,2020-07-23_11h52.25.568,fisher_task,2020.1.3,Win32,60,-0.063888889,-0.276851852,1,0,0,1.05025,scale,,,,,,0.3702,0.3,0.1234,0.1,stimuli/lakes/901010_left.png,stimuli/lakes/901010_right.png,,,,0,34,34,10,1,,,,,
,,,,,,$$5dcbea3588381e87f60cb202,2020-07-23_11h52.25.568,fisher_task,2020.1.3,Win32,60,-0.037962963,-0.25,1,0,0,1.449715,scale,,,,,,0.2468,0.2,0.302267034,0.244948974,stimuli/lakes/4070101_left.png,stimuli/lakes/4070101_right.png,,,,0,35,35,101,1,,,,,
,,,,,,$$5dcbea3588381e87f60cb202,2020-07-23_11h52.25.568,fisher_task,2020.1.3,Win32,60,0.024074074,-0.253703704,1,0,0,1.249645,scale,,,,,,0.275930788,0.223606798,0.275930788,0.223606798,stimuli/lakes/504054_left.png,stimuli/lakes/504054_right.png,,,,0,36,36,54,1,,,,,
,,,,,,$$5dcbea3588381e87f60cb202,2020-07-23_11h52.25.568,fisher_task,2020.1.3,Win32,60,0.014814815,-0.250925926,1,0,0,1.31641,scale,,,,,,0.302267034,0.244948974,0.2468,0.2,stimuli/lakes/603037_left.png,stimuli/lakes/603037_right.png,,,,0,37,37,37,1,,,,,
,,,,,,$$5dcbea3588381e87f60cb202,2020-07-23_11h52.25.568,fisher_task,2020.1.3,Win32,60,-0.025,-0.251851852,1,0,0,1.466405,scale,,,,,,0.1234,0.1,0.3702,0.3,stimuli/lakes/107098_left.png,stimuli/lakes/107098_right.png,,,,0,38,38,98,1,,,,,
,,,,,,$$5dcbea3588381e87f60cb202,2020-07-23_11h52.25.568,fisher_task,2020.1.3,Win32,60,0.034259259,-0.263888889,1,0,0,1.015915,scale,,,,,,0.21373507,0.173205081,0.326485712,0.264575131,stimuli/lakes/305061_left.png,stimuli/lakes/305061_right.png,,,,0,39,39,61,1,,,,,
,,,,,,$$5dcbea3588381e87f60cb202,2020-07-23_11h52.25.568,fisher_task,2020.1.3,Win32,60,0.032407407,-0.259259259,1,0,0,1.91569,scale,,,,,,0.349027907,0.282842712,0.174513954,0.141421356,stimuli/lakes/803030_left.png,stimuli/lakes/803030_right.png,,,,0,40,40,30,1,,,,,
,,,,,,$$5dcbea3588381e87f60cb202,2020-07-23_11h52.25.568,fisher_task,2020.1.3,Win32,60,0.160185185,-0.406481481,1,0,0,1.03328,scale,,,,,,0.21373507,0.173205081,0.326485712,0.264575131,stimuli/lakes/30101_left.png,stimuli/lakes/30101_right.png,,,,0,41,41,1,1,,,,,
,,,,,,$$5dcbea3588381e87f60cb202,2020-07-23_11h52.25.568,fisher_task,2020.1.3,Win32,60,-0.146296296,-0.366666667,1,0,0,0.98369,scale,,,,,,0.302267034,0.244948974,0.2468,0.2,stimuli/lakes/6070103_left.png,stimuli/lakes/6070103_right.png,,,,0,42,42,103,1,,,,,
,,,,,,$$5dcbea3588381e87f60cb202,2020-07-23_11h52.25.568,fisher_task,2020.1.3,Win32,60,0.126851852,-0.32962963,1,0,0,1.133675,scale,,,,,,0.174513954,0.141421356,0.349027907,0.282842712,stimuli/lakes/204051_left.png,stimuli/lakes/204051_right.png,,,,0,43,43,51,1,,,,,
,,,,,,$$5dcbea3588381e87f60cb202,2020-07-23_11h52.25.568,fisher_task,2020.1.3,Win32,60,-0.161111111,-0.394444444,1,0,0,0.998535,scale,,,,,,0.302267034,0.244948974,0.2468,0.2,stimuli/lakes/6080115_left.png,stimuli/lakes/6080115_right.png,,,space,0,44,44,115,1,1.506095,,,,
,,,,,,$$5dcbea3588381e87f60cb202,2020-07-23_11h52.25.568,fisher_task,2020.1.3,Win32,60,0.144444444,-0.341666667,1,0,0,1.499595,scale,,,,,,0.275930788,0.223606798,0.275930788,0.223606798,stimuli/lakes/502016_left.png,stimuli/lakes/502016_right.png,,,,0,45,45,16,1,,,,,
,,,,,,$$5dcbea3588381e87f60cb202,2020-07-23_11h52.25.568,fisher_task,2020.1.3,Win32,60,0.161111111,-0.380555556,1,0,0,0.899165,scale,,,,,,0.21373507,0.173205081,0.326485712,0.264575131,stimuli/lakes/304043_left.png,stimuli/lakes/304043_right.png,,,,0,46,46,43,1,,,,,
,,,,,,$$5dcbea3588381e87f60cb202,2020-07-23_11h52.25.568,fisher_task,2020.1.3,Win32,60,-0.034259259,-0.258333333,1,0,0,1.33326,scale,,,,,,0.21373507,0.173205081,0.326485712,0.264575131,stimuli/lakes/3080109_left.png,stimuli/lakes/3080109_right.png,,,,0,47,47,109,1,,,,,
,,,,,,$$5dcbea3588381e87f60cb202,2020-07-23_11h52.25.568,fisher_task,2020.1.3,Win32,60,-0.137037037,-0.359259259,1,0,0,1.266045,scale,,,,,,0.302267034,0.244948974,0.2468,0.2,stimuli/lakes/606076_left.png,stimuli/lakes/606076_right.png,,,,0,48,48,76,1,,,,,
,,,,,,$$5dcbea3588381e87f60cb202,2020-07-23_11h52.25.568,fisher_task,2020.1.3,Win32,60,-0.028703704,-0.233333333,1,0,0,1.58301,scale,,,,,,0.3702,0.3,0.1234,0.1,stimuli/lakes/903040_left.png,stimuli/lakes/903040_right.png,,,,0,49,49,40,1,,,,,
,,,,,,$$5dcbea3588381e87f60cb202,2020-07-23_11h52.25.568,fisher_task,2020.1.3,Win32,60,-0.097222222,-0.274074074,1,0,0,1.53309,scale,,,,,,0.2468,0.2,0.302267034,0.244948974,stimuli/lakes/4080112_left.png,stimuli/lakes/4080112_right.png,,,,0,50,50,112,1,,,,,
,,,,,,$$5dcbea3588381e87f60cb202,2020-07-23_11h52.25.568,fisher_task,2020.1.3,Win32,60,0.131481481,-0.326851852,1,0,0,1.21591,scale,,,,,,0.2468,0.2,0.302267034,0.244948974,stimuli/lakes/404053_left.png,stimuli/lakes/404053_right.png,,,,0,51,51,53,1,,,,,
,,,,,,$$5dcbea3588381e87f60cb202,2020-07-23_11h52.25.568,fisher_task,2020.1.3,Win32,60,-0.182407407,-0.40462963,1,0,0,1.016245,scale,,,,,,0.275930788,0.223606798,0.275930788,0.223606798,stimuli/lakes/5070102_left.png,stimuli/lakes/5070102_right.png,,,,0,52,52,102,1,,,,,
,,,,,,$$5dcbea3588381e87f60cb202,2020-07-23_11h52.25.568,fisher_task,2020.1.3,Win32,60,0.022222222,-0.240740741,1,0,0,1.40017,scale,,,,,,0.349027907,0.282842712,0.174513954,0.141421356,stimuli/lakes/80109_left.png,stimuli/lakes/80109_right.png,,,,0,53,53,9,1,,,,,
,,,,,,$$5dcbea3588381e87f60cb202,2020-07-23_11h52.25.568,fisher_task,2020.1.3,Win32,60,-0.047222222,-0.262037037,1,0,0,1.666435,scale,,,,,,0.21373507,0.173205081,0.326485712,0.264575131,stimuli/lakes/3090121_left.png,stimuli/lakes/3090121_right.png,,,,0,54,54,121,1,,,,,
,,,,,,$$5dcbea3588381e87f60cb202,2020-07-23_11h52.25.568,fisher_task,2020.1.3,Win32,60,0.157407407,-0.388888889,1,0,0,1.033525,scale,,,,,,0.21373507,0.173205081,0.326485712,0.264575131,stimuli/lakes/302012_left.png,stimuli/lakes/302012_right.png,,,,0,55,55,12,1,,,,,
,,,,,,$$5dcbea3588381e87f60cb202,2020-07-23_11h52.25.568,fisher_task,2020.1.3,Win32,60,0.060185185,-0.251851852,1,0,0,1.39815,scale,,,,,,0.302267034,0.244948974,0.2468,0.2,stimuli/lakes/60105_left.png,stimuli/lakes/60105_right.png,,,,0,56,56,5,1,,,,,
,,,,,,$$5dcbea3588381e87f60cb202,2020-07-23_11h52.25.568,fisher_task,2020.1.3,Win32,60,0.100925926,-0.277777778,1,0,0,1.0327,scale,,,,,,0.2468,0.2,0.302267034,0.244948974,stimuli/lakes/403026_left.png,stimuli/lakes/403026_right.png,,,,0,57,57,26,1,,,,,
,,,,,,$$5dcbea3588381e87f60cb202,2020-07-23_11h52.25.568,fisher_task,2020.1.3,Win32,60,-0.062962963,-0.259259259,1,0,0,1.199235,scale,,,,,,0.174513954,0.141421356,0.349027907,0.282842712,stimuli/lakes/2080108_left.png,stimuli/lakes/2080108_right.png,,,,0,58,58,108,1,,,,,
,,,,,,$$5dcbea3588381e87f60cb202,2020-07-23_11h52.25.568,fisher_task,2020.1.3,Win32,60,-0.060185185,-0.260185185,1,0,0,1.147765,scale,,,,,,0.2468,0.2,0.302267034,0.244948974,stimuli/lakes/4090124_left.png,stimuli/lakes/4090124_right.png,,,,0,59,59,124,1,,,,,
,,,,,,$$5dcbea3588381e87f60cb202,2020-07-23_11h52.25.568,fisher_task,2020.1.3,Win32,60,-0.114814815,-0.296296296,1,0,0,1.5331,scale,,,,,,0.302267034,0.244948974,0.2468,0.2,stimuli/lakes/606085_left.png,stimuli/lakes/606085_right.png,,,,0,60,60,85,1,,,,,
,,,,,,$$5dcbea3588381e87f60cb202,2020-07-23_11h52.25.568,fisher_task,2020.1.3,Win32,60,-0.127777778,-0.326851852,1,0,0,1.283305,scale,,,,,,0.3702,0.3,0.1234,0.1,stimuli/lakes/906088_left.png,stimuli/lakes/906088_right.png,,,,0,61,61,88,1,,,,,
,,,,,,$$5dcbea3588381e87f60cb202,2020-07-23_11h52.25.568,fisher_task,2020.1.3,Win32,60,0.130555556,-0.337962963,1,0,0,0.96671,scale,,,,,,0.2468,0.2,0.302267034,0.244948974,stimuli/lakes/402015_left.png,stimuli/lakes/402015_right.png,,,,0,62,62,15,1,,,,,
,,,,,,$$5dcbea3588381e87f60cb202,2020-07-23_11h52.25.568,fisher_task,2020.1.3,Win32,60,0.108333333,-0.301851852,1,0,0,1.066405,scale,,,,,,0.2468,0.2,0.302267034,0.244948974,stimuli/lakes/40102_left.png,stimuli/lakes/40102_right.png,,,,0,63,63,2,1,,,,,
,,,,,,$$5dcbea3588381e87f60cb202,2020-07-23_11h52.25.568,fisher_task,2020.1.3,Win32,60,-0.15462963,-0.316666667,1,0,0,1.032715,scale,,,,,,0.326485712,0.264575131,0.21373507,0.173205081,stimuli/lakes/7090128_left.png,stimuli/lakes/7090128_right.png,,,,0,64,64,128,1,,,,,
,,,,,,$$5dcbea3588381e87f60cb202,2020-07-23_11h52.25.568,fisher_task,2020.1.3,Win32,60,-0.091666667,-0.275925926,1,0,0,1.63417,scale,,,,,,0.2468,0.2,0.302267034,0.244948974,stimuli/lakes/406074_left.png,stimuli/lakes/406074_right.png,,,,0,65,65,74,1,,,,,
,,,,,,$$5dcbea3588381e87f60cb202,2020-07-23_11h52.25.568,fisher_task,2020.1.3,Win32,60,-0.032407407,-0.261111111,1,0,0,1.250135,scale,,,,,,0.326485712,0.264575131,0.21373507,0.173205081,stimuli/lakes/703038_left.png,stimuli/lakes/703038_right.png,,,space,0,66,66,38,1,1.8281,,,,
,,,,,,$$5dcbea3588381e87f60cb202,2020-07-23_11h52.25.568,fisher_task,2020.1.3,Win32,60,-0.096296296,-0.280555556,1,0,0,1.366805,scale,,,,,,0.3702,0.3,0.1234,0.1,stimuli/lakes/905070_left.png,stimuli/lakes/905070_right.png,,,,0,67,67,70,1,,,,,
,,,,,,$$5dcbea3588381e87f60cb202,2020-07-23_11h52.25.568,fisher_task,2020.1.3,Win32,60,-0.086111111,-0.275,1,0,0,1.049595,scale,,,,,,0.349027907,0.282842712,0.174513954,0.141421356,stimuli/lakes/804048_left.png,stimuli/lakes/804048_right.png,,,,0,68,68,48,1,,,,,
,,,,,,$$5dcbea3588381e87f60cb202,2020-07-23_11h52.25.568,fisher_task,2020.1.3,Win32,60,-0.058333333,-0.260185185,1,0,0,1.066425,scale,,,,,,0.174513954,0.141421356,0.349027907,0.282842712,stimuli/lakes/207090_left.png,stimuli/lakes/207090_right.png,,,,0,69,69,90,1,,,,,
,,,,,,$$5dcbea3588381e87f60cb202,2020-07-23_11h52.25.568,fisher_task,2020.1.3,Win32,60,-0.161111111,-0.387037037,1,0,0,0.883925,scale,,,,,,0.275930788,0.223606798,0.275930788,0.223606798,stimuli/lakes/5090125_left.png,stimuli/lakes/5090125_right.png,,,,0,70,70,125,1,,,,,
,,,,,,$$5dcbea3588381e87f60cb202,2020-07-23_11h52.25.568,fisher_task,2020.1.3,Win32,60,0.117592593,-0.299074074,1,0,0,0.89979,scale,,,,,,0.21373507,0.173205081,0.326485712,0.264575131,stimuli/lakes/303034_left.png,stimuli/lakes/303034_right.png,,,,0,71,71,34,1,,,,,
,,,,,,$$5dcbea3588381e87f60cb202,2020-07-23_11h52.25.568,fisher_task,2020.1.3,Win32,60,-0.041666667,-0.276851852,1,0,0,1.564765,scale,,,,,,0.302267034,0.244948974,0.2468,0.2,stimuli/lakes/602017_left.png,stimuli/lakes/602017_right.png,,,,0,72,72,17,1,,,,,
,,,,,,$$5dcbea3588381e87f60cb202,2020-07-23_11h52.25.568,fisher_task,2020.1.3,Win32,60,-0.052777778,-0.271296296,1,0,0,1.716605,scale,,,,,,0.174513954,0.141421356,0.349027907,0.282842712,stimuli/lakes/206081_left.png,stimuli/lakes/206081_right.png,,,,0,73,73,81,1,,,,,
,,,,,,$$5dcbea3588381e87f60cb202,2020-07-23_11h52.25.568,fisher_task,2020.1.3,Win32,60,-0.052777778,-0.271296296,1,0,0,1.099135,scale,,,,,,0.21373507,0.173205081,0.326485712,0.264575131,stimuli/lakes/307091_left.png,stimuli/lakes/307091_right.png,,,,0,74,74,91,1,,,,,
,,,,,,$$5dcbea3588381e87f60cb202,2020-07-23_11h52.25.568,fisher_task,2020.1.3,Win32,60,0.092592593,-0.286111111,1,0,0,1.15009,scale,,,,,,0.21373507,0.173205081,0.326485712,0.264575131,stimuli/lakes/305062_left.png,stimuli/lakes/305062_right.png,,,,0,75,75,62,1,,,,,
,,,,,,$$5dcbea3588381e87f60cb202,2020-07-23_11h52.25.568,fisher_task,2020.1.3,Win32,60,-0.087962963,-0.287037037,1,0,0,1.650175,scale,,,,,,0.326485712,0.264575131,0.21373507,0.173205081,stimuli/lakes/705068_left.png,stimuli/lakes/705068_right.png,,,,0,76,76,68,1,,,,,
,,,,,,$$5dcbea3588381e87f60cb202,2020-07-23_11h52.25.568,fisher_task,2020.1.3,Win32,60,0.077777778,-0.281481481,1,0,0,1.183345,scale,,,,,,0.326485712,0.264575131,0.21373507,0.173205081,stimuli/lakes/70108_left.png,stimuli/lakes/70108_right.png,,,,0,77,77,8,1,,,,,
,,,,,,$$5dcbea3588381e87f60cb202,2020-07-23_11h52.25.568,fisher_task,2020.1.3,Win32,60,0.115740741,-0.330555556,1,0,0,0.93242,scale,,,,,,0.1234,0.1,0.3702,0.3,stimuli/lakes/104041_left.png,stimuli/lakes/104041_right.png,,,,0,78,78,41,1,,,,,
,,,,,,$$5dcbea3588381e87f60cb202,2020-07-23_11h52.25.568,fisher_task,2020.1.3,Win32,60,0.119444444,-0.338888889,1,0,0,0.849245,scale,,,,,,0.2468,0.2,0.302267034,0.244948974,stimuli/lakes/40103_left.png,stimuli/lakes/40103_right.png,,,,0,79,79,3,1,,,,,
,,,,,,$$5dcbea3588381e87f60cb202,2020-07-23_11h52.25.568,fisher_task,2020.1.3,Win32,60,0.093518519,-0.301851852,1,0,0,1.21648,scale,,,,,,0.349027907,0.282842712,0.174513954,0.141421356,stimuli/lakes/802021_left.png,stimuli/lakes/802021_right.png,,,,0,80,80,21,1,,,,,
,,,,,,$$5dcbea3588381e87f60cb202,2020-07-23_11h52.25.568,fisher_task,2020.1.3,Win32,60,-0.077777778,-0.263888889,1,0,0,1.182155,scale,,,,,,0.302267034,0.244948974,0.2468,0.2,stimuli/lakes/604055_left.png,stimuli/lakes/604055_right.png,,,,0,81,81,55,1,,,,,
,,,,,,$$5dcbea3588381e87f60cb202,2020-07-23_11h52.25.568,fisher_task,2020.1.3,Win32,60,-0.064814815,-0.272222222,1,0,0,1.26469,scale,,,,,,0.2468,0.2,0.302267034,0.244948974,stimuli/lakes/407092_left.png,stimuli/lakes/407092_right.png,,,,0,82,82,92,1,,,,,
,,,,,,$$5dcbea3588381e87f60cb202,2020-07-23_11h52.25.568,fisher_task,2020.1.3,Win32,60,0.049074074,-0.247222222,1,0,0,1.81621,scale,,,,,,0.302267034,0.244948974,0.2468,0.2,stimuli/lakes/602018_left.png,stimuli/lakes/602018_right.png,,,,0,83,83,18,1,,,,,
,,,,,,$$5dcbea3588381e87f60cb202,2020-07-23_11h52.25.568,fisher_task,2020.1.3,Win32,60,0.09537037,-0.282407407,1,0,0,0.79973,scale,,,,,,0.1234,0.1,0.3702,0.3,stimuli/lakes/106071_left.png,stimuli/lakes/106071_right.png,,,,0,84,84,71,1,,,,,
,,,,,,$$5dcbea3588381e87f60cb202,2020-07-23_11h52.25.568,fisher_task,2020.1.3,Win32,60,0.12962963,-0.330555556,1,0,0,0.867265,scale,,,,,,0.174513954,0.141421356,0.349027907,0.282842712,stimuli/lakes/203033_left.png,stimuli/lakes/203033_right.png,,,,0,85,85,33,1,,,,,
,,,,,,$$5dcbea3588381e87f60cb202,2020-07-23_11h52.25.568,fisher_task,2020.1.3,Win32,60,-0.00462963,-0.263888889,1,0,0,1.38327,scale,,,,,,0.2468,0.2,0.302267034,0.244948974,stimuli/lakes/405064_left.png,stimuli/lakes/405064_right.png,,,,0,86,86,64,1,,,,,
,,,,,,$$5dcbea3588381e87f60cb202,2020-07-23_11h52.25.568,fisher_task,2020.1.3,Win32,60,0.132407407,-0.387037037,1,0,0,1.01638,scale,,,,,,0.1234,0.1,0.3702,0.3,stimuli/lakes/103023_left.png,stimuli/lakes/103023_right.png,,,,0,87,87,23,1,,,,,
,,,,,,$$5dcbea3588381e87f60cb202,2020-07-23_11h52.25.568,fisher_task,2020.1.3,Win32,60,0.10462963,-0.296296296,1,0,0,1.032665,scale,,,,,,0.174513954,0.141421356,0.349027907,0.282842712,stimuli/lakes/205060_left.png,stimuli/lakes/205060_right.png,,,space,0,88,88,60,1,1.589465,,,,
,,,,,,$$5dcbea3588381e87f60cb202,2020-07-23_11h52.25.568,fisher_task,2020.1.3,Win32,60,0.125,-0.333333333,1,0,0,0.88323,scale,,,,,,0.1234,0.1,0.3702,0.3,stimuli/lakes/104050_left.png,stimuli/lakes/104050_right.png,,,,0,89,89,50,1,,,,,
,,,,,,$$5dcbea3588381e87f60cb202,2020-07-23_11h52.25.568,fisher_task,2020.1.3,Win32,60,-0.180555556,-0.405555556,1,0,0,0.91591,scale,,,,,,0.302267034,0.244948974,0.2468,0.2,stimuli/lakes/6090126_left.png,stimuli/lakes/6090126_right.png,,,,0,90,90,126,1,,,,,
,,,,,,$$5dcbea3588381e87f60cb202,2020-07-23_11h52.25.568,fisher_task,2020.1.3,Win32,60,-0.074074074,-0.282407407,1,0,0,1.049625,scale,,,,,,0.174513954,0.141421356,0.349027907,0.282842712,stimuli/lakes/2090120_left.png,stimuli/lakes/2090120_right.png,,,,0,91,91,120,1,,,,,
,,,,,,$$5dcbea3588381e87f60cb202,2020-07-23_11h52.25.568,fisher_task,2020.1.3,Win32,60,0.07037037,-0.27037037,1,0,0,1.29945,scale,,,,,,0.3702,0.3,0.1234,0.1,stimuli/lakes/903031_left.png,stimuli/lakes/903031_right.png,,,,0,92,92,31,1,,,,,
,,,,,,$$5dcbea3588381e87f60cb202,2020-07-23_11h52.25.568,fisher_task,2020.1.3,Win32,60,-0.103703704,-0.275925926,1,0,0,1.8169,scale,,,,,,0.326485712,0.264575131,0.21373507,0.173205081,stimuli/lakes/704056_left.png,stimuli/lakes/704056_right.png,,,,0,93,93,56,1,,,,,
,,,,,,$$5dcbea3588381e87f60cb202,2020-07-23_11h52.25.568,fisher_task,2020.1.3,Win32,60,-0.10462963,-0.30462963,1,0,0,1.23333,scale,,,,,,0.349027907,0.282842712,0.174513954,0.141421356,stimuli/lakes/805069_left.png,stimuli/lakes/805069_right.png,,,,0,94,94,69,1,,,,,
,,,,,,$$5dcbea3588381e87f60cb202,2020-07-23_11h52.25.568,fisher_task,2020.1.3,Win32,60,-0.066666667,-0.271296296,1,0,0,1.04947,scale,,,,,,0.3702,0.3,0.1234,0.1,stimuli/lakes/904049_left.png,stimuli/lakes/904049_right.png,,,,0,95,95,49,1,,,,,
,,,,,,$$5dcbea3588381e87f60cb202,2020-07-23_11h52.25.568,fisher_task,2020.1.3,Win32,60,-0.137037037,-0.348148148,1,0,0,1.016385,scale,,,,,,0.302267034,0.244948974,0.2468,0.2,stimuli/lakes/6080114_left.png,stimuli/lakes/6080114_right.png,,,,0,96,96,114,1,,,,,
,,,,,,$$5dcbea3588381e87f60cb202,2020-07-23_11h52.25.568,fisher_task,2020.1.3,Win32,60,-0.098148148,-0.302777778,1,0,0,0.966765,scale,,,,,,0.275930788,0.223606798,0.275930788,0.223606798,stimuli/lakes/506075_left.png,stimuli/lakes/506075_right.png,,,,0,97,97,75,1,,,,,
,,,,,,$$5dcbea3588381e87f60cb202,2020-07-23_11h52.25.568,fisher_task,2020.1.3,Win32,60,0.058333333,-0.272222222,1,0,0,1.000475,scale,,,,,,0.349027907,0.282842712,0.174513954,0.141421356,stimuli/lakes/804057_left.png,stimuli/lakes/804057_right.png,,,,0,98,98,57,1,,,,,
,,,,,,$$5dcbea3588381e87f60cb202,2020-07-23_11h52.25.568,fisher_task,2020.1.3,Win32,60,0.078703704,-0.275,1,0,0,0.93129,scale,,,,,,0.2468,0.2,0.302267034,0.244948974,stimuli/lakes/403035_left.png,stimuli/lakes/403035_right.png,,,,0,99,99,35,1,,,,,
,,,,,,$$5dcbea3588381e87f60cb202,2020-07-23_11h52.25.568,fisher_task,2020.1.3,Win32,60,-0.12962963,-0.369444444,1,0,0,0.983165,scale,,,,,,0.326485712,0.264575131,0.21373507,0.173205081,stimuli/lakes/7090129_left.png,stimuli/lakes/7090129_right.png,,,,0,100,100,129,1,,,,,
,,,,,,$$5dcbea3588381e87f60cb202,2020-07-23_11h52.25.568,fisher_task,2020.1.3,Win32,60,0.089814815,-0.290740741,1,0,0,0.93386,scale,,,,,,0.174513954,0.141421356,0.349027907,0.282842712,stimuli/lakes/202011_left.png,stimuli/lakes/202011_right.png,,,,0,101,101,11,1,,,,,
,,,,,,$$5dcbea3588381e87f60cb202,2020-07-23_11h52.25.568,fisher_task,2020.1.3,Win32,60,-0.062037037,-0.284259259,1,0,0,1.09889,scale,,,,,,0.326485712,0.264575131,0.21373507,0.173205081,stimuli/lakes/704047_left.png,stimuli/lakes/704047_right.png,,,,0,102,102,47,1,,,,,
,,,,,,$$5dcbea3588381e87f60cb202,2020-07-23_11h52.25.568,fisher_task,2020.1.3,Win32,60,0.155555556,-0.377777778,1,0,0,1.21625,scale,,,,,,0.1234,0.1,0.3702,0.3,stimuli/lakes/105059_left.png,stimuli/lakes/105059_right.png,,,,0,103,103,59,1,,,,,
,,,,,,$$5dcbea3588381e87f60cb202,2020-07-23_11h52.25.568,fisher_task,2020.1.3,Win32,60,-0.162037037,-0.42037037,1,0,0,0.882335,scale,,,,,,0.302267034,0.244948974,0.2468,0.2,stimuli/lakes/6090127_left.png,stimuli/lakes/6090127_right.png,,,,0,104,104,127,1,,,,,
,,,,,,$$5dcbea3588381e87f60cb202,2020-07-23_11h52.25.568,fisher_task,2020.1.3,Win32,60,0.02962963,-0.246296296,1,0,0,2.433055,scale,,,,,,0.349027907,0.282842712,0.174513954,0.141421356,stimuli/lakes/803039_left.png,stimuli/lakes/803039_right.png,,,,0,105,105,39,1,,,,,
,,,,,,$$5dcbea3588381e87f60cb202,2020-07-23_11h52.25.568,fisher_task,2020.1.3,Win32,60,-0.15,-0.408333333,1,0,0,0.933345,scale,,,,,,0.326485712,0.264575131,0.21373507,0.173205081,stimuli/lakes/7080117_left.png,stimuli/lakes/7080117_right.png,,,,0,106,106,117,1,,,,,
,,,,,,$$5dcbea3588381e87f60cb202,2020-07-23_11h52.25.568,fisher_task,2020.1.3,Win32,60,-0.152777778,-0.398148148,1,0,0,1.31707,scale,,,,,,0.349027907,0.282842712,0.174513954,0.141421356,stimuli/lakes/807096_left.png,stimuli/lakes/807096_right.png,,,,0,107,107,96,1,,,,,
,,,,,,$$5dcbea3588381e87f60cb202,2020-07-23_11h52.25.568,fisher_task,2020.1.3,Win32,60,-0.131481481,-0.324074074,1,0,0,1.01702,scale,,,,,,0.326485712,0.264575131,0.21373507,0.173205081,stimuli/lakes/706086_left.png,stimuli/lakes/706086_right.png,,,,0,108,108,86,1,,,,,
,,,,,,$$5dcbea3588381e87f60cb202,2020-07-23_11h52.25.568,fisher_task,2020.1.3,Win32,60,0.12962963,-0.332407407,1,0,0,1.166765,scale,,,,,,0.2468,0.2,0.302267034,0.244948974,stimuli/lakes/404044_left.png,stimuli/lakes/404044_right.png,,,,0,109,109,44,1,,,,,
,,,,,,$$5dcbea3588381e87f60cb202,2020-07-23_11h52.25.568,fisher_task,2020.1.3,Win32,60,-0.117592593,-0.309259259,1,0,0,1.465995,scale,,,,,,0.3702,0.3,0.1234,0.1,stimuli/lakes/907097_left.png,stimuli/lakes/907097_right.png,,,space,0,110,110,97,1,1.600615,,,,
,,,,,,$$5dcbea3588381e87f60cb202,2020-07-23_11h52.25.568,fisher_task,2020.1.3,Win32,60,0.134259259,-0.312037037,1,0,0,0.76625,scale,,,,,,0.174513954,0.141421356,0.349027907,0.282842712,stimuli/lakes/204042_left.png,stimuli/lakes/204042_right.png,,,,0,111,111,42,1,,,,,
,,,,,,$$5dcbea3588381e87f60cb202,2020-07-23_11h52.25.568,fisher_task,2020.1.3,Win32,60,0.084259259,-0.273148148,1,0,0,1.149205,scale,,,,,,0.302267034,0.244948974,0.2468,0.2,stimuli/lakes/603028_left.png,stimuli/lakes/603028_right.png,,,,0,112,112,28,1,,,,,
,,,,,,$$5dcbea3588381e87f60cb202,2020-07-23_11h52.25.568,fisher_task,2020.1.3,Win32,60,-0.066666667,-0.250925926,1,0,0,1.16701,scale,,,,,,0.174513954,0.141421356,0.349027907,0.282842712,stimuli/lakes/207099_left.png,stimuli/lakes/207099_right.png,,,,0,113,113,99,1,,,,,
,,,,,,$$5dcbea3588381e87f60cb202,2020-07-23_11h52.25.568,fisher_task,2020.1.3,Win32,60,0.087037037,-0.262962963,1,0,0,1.13356,scale,,,,,,0.2468,0.2,0.302267034,0.244948974,stimuli/lakes/405063_left.png,stimuli/lakes/405063_right.png,,,,0,114,114,63,1,,,,,
,,,,,,$$5dcbea3588381e87f60cb202,2020-07-23_11h52.25.568,fisher_task,2020.1.3,Win32,60,0.02037037,-0.230555556,1,0,0,1.73285,scale,,,,,,0.1234,0.1,0.3702,0.3,stimuli/lakes/107089_left.png,stimuli/lakes/107089_right.png,,,,0,115,115,89,1,,,,,
,,,,,,$$5dcbea3588381e87f60cb202,2020-07-23_11h52.25.568,fisher_task,2020.1.3,Win32,60,-0.148148148,-0.382407407,1,0,0,0.96618,scale,,,,,,0.349027907,0.282842712,0.174513954,0.141421356,stimuli/lakes/8070105_left.png,stimuli/lakes/8070105_right.png,,,,0,116,116,105,1,,,,,
,,,,,,$$5dcbea3588381e87f60cb202,2020-07-23_11h52.25.568,fisher_task,2020.1.3,Win32,60,-0.085185185,-0.275,1,0,0,1.032895,scale,,,,,,0.275930788,0.223606798,0.275930788,0.223606798,stimuli/lakes/507093_left.png,stimuli/lakes/507093_right.png,,,,0,117,117,93,1,,,,,
,,,,,,$$5dcbea3588381e87f60cb202,2020-07-23_11h52.25.568,fisher_task,2020.1.3,Win32,60,0.084259259,-0.27037037,1,0,0,0.849895,scale,,,,,,0.275930788,0.223606798,0.275930788,0.223606798,stimuli/lakes/503027_left.png,stimuli/lakes/503027_right.png,,,,0,118,118,27,1,,,,,
,,,,,,$$5dcbea3588381e87f60cb202,2020-07-23_11h52.25.568,fisher_task,2020.1.3,Win32,60,0.12037037,-0.303703704,1,0,0,0.899795,scale,,,,,,0.275930788,0.223606798,0.275930788,0.223606798,stimuli/lakes/504045_left.png,stimuli/lakes/504045_right.png,,,,0,119,119,45,1,,,,,
,,,,,,$$5dcbea3588381e87f60cb202,2020-07-23_11h52.25.568,fisher_task,2020.1.3,Win32,60,-0.061111111,-0.264814815,1,0,0,1.46696,scale,,,,,,0.21373507,0.173205081,0.326485712,0.264575131,stimuli/lakes/306073_left.png,stimuli/lakes/306073_right.png,,,,0,120,120,73,1,,,,,
,,,,,,$$5dcbea3588381e87f60cb202,2020-07-23_11h52.25.568,fisher_task,2020.1.3,Win32,60,-0.132407407,-0.373148148,1,0,0,0.79979,scale,,,,,,0.326485712,0.264575131,0.21373507,0.173205081,stimuli/lakes/7080116_left.png,stimuli/lakes/7080116_right.png,,,,0,121,121,116,1,,,,,
,,,,,,$$5dcbea3588381e87f60cb202,2020-07-23_11h52.25.568,fisher_task,2020.1.3,Win32,60,-0.032407407,-0.265740741,1,0,0,0.98359,scale,,,,,,0.21373507,0.173205081,0.326485712,0.264575131,stimuli/lakes/3080110_left.png,stimuli/lakes/3080110_right.png,,,,0,122,122,110,1,,,,,
,,,,,,$$5dcbea3588381e87f60cb202,2020-07-23_11h52.25.568,fisher_task,2020.1.3,Win32,60,0.096296296,-0.273148148,1,0,0,0.75024,scale,,,,,,0.275930788,0.223606798,0.275930788,0.223606798,stimuli/lakes/503036_left.png,stimuli/lakes/503036_right.png,,,,0,123,123,36,1,,,,,
,,,,,,$$5dcbea3588381e87f60cb202,2020-07-23_11h52.25.568,fisher_task,2020.1.3,Win32,60,0.103703704,-0.289814815,1,0,0,0.966655,scale,,,,,,0.174513954,0.141421356,0.349027907,0.282842712,stimuli/lakes/203024_left.png,stimuli/lakes/203024_right.png,,,,0,124,124,24,1,,,,,
,,,,,,$$5dcbea3588381e87f60cb202,2020-07-23_11h52.25.568,fisher_task,2020.1.3,Win32,60,-0.098148148,-0.301851852,1,0,0,0.76614,scale,,,,,,0.349027907,0.282842712,0.174513954,0.141421356,stimuli/lakes/806087_left.png,stimuli/lakes/806087_right.png,,,,0,125,125,87,1,,,,,
,,,,,,$$5dcbea3588381e87f60cb202,2020-07-23_11h52.25.568,fisher_task,2020.1.3,Win32,60,-0.137037037,-0.350925926,1,0,0,1.249555,scale,,,,,,0.1234,0.1,0.3702,0.3,stimuli/lakes/1080107_left.png,stimuli/lakes/1080107_right.png,,,,0,126,126,107,1,,,,,
,,,,,,$$5dcbea3588381e87f60cb202,2020-07-23_11h52.25.568,fisher_task,2020.1.3,Win32,60,0.083333333,-0.272222222,1,0,0,0.949575,scale,,,,,,0.326485712,0.264575131,0.21373507,0.173205081,stimuli/lakes/702020_left.png,stimuli/lakes/702020_right.png,,,,0,127,127,20,1,,,,,
,,,,,,$$5dcbea3588381e87f60cb202,2020-07-23_11h52.25.568,fisher_task,2020.1.3,Win32,60,0.041666667,-0.265740741,1,0,0,1.450425,scale,,,,,,0.302267034,0.244948974,0.2468,0.2,stimuli/lakes/604046_left.png,stimuli/lakes/604046_right.png,,,,0,128,128,46,1,,,,,
,,,,,,$$5dcbea3588381e87f60cb202,2020-07-23_11h52.25.568,fisher_task,2020.1.3,Win32,60,0.064814815,-0.258333333,1,0,0,1.11574,scale,,,,,,0.326485712,0.264575131,0.21373507,0.173205081,stimuli/lakes/70107_left.png,stimuli/lakes/70107_right.png,,,,0,129,129,7,1,,,,,
,,,,,,$$5dcbea3588381e87f60cb202,2020-07-23_11h52.25.568,fisher_task,2020.1.3,Win32,60,,,,,,,,,,,,,,,,,,,,,,,,,,,,space,4.079165,space,11.02781
