keySpace.keys,instructions.thisRepN,instructions.thisTrialN,instructions.thisN,instructions.thisIndex,instructions.ran,participant,date,expName,psychopyVersion,OS,frameRate,mouse.x,mouse.y,mouse.leftButton,mouse.midButton,mouse.rightButton,mouse.time,mouse.clicked_name,training.thisRepN,training.thisTrialN,training.thisN,training.thisIndex,training.ran,widthBasketLeft,heightBasketLeft,widthBasketRight,heightBasketRight,leftLake,rightLake,space2.keys,space2.rt,space1.keys,trials.thisRepN,trials.thisTrialN,trials.thisN,trials.thisIndex,trials.ran,space1.rt,finalSpace1.keys,finalSpace1.rt,finalSpace2.keys,finalSpace2.rt
,0,0,0,0,1,$5dee93e2bc4b5c53f28dfcff,2020-07-20_16h35.32.271,fisher_task,2020.1.3,Win32,60,,,,,,,,,,,,,,,,,,,,,,,,,,,,,,,
,,,,,,$5dee93e2bc4b5c53f28dfcff,2020-07-20_16h35.32.271,fisher_task,2020.1.3,Win32,60,0.164814831,-0.436111125,1,0,0,2.73322,scale,0,0,0,0,1,0.275930788,0.223606798,0.275930788,0.223606798,stimuli/training/20_left.png,stimuli/training/20_right.png,,,,,,,,,,,,,
,,,,,,$5dee93e2bc4b5c53f28dfcff,2020-07-20_16h35.32.271,fisher_task,2020.1.3,Win32,60,-0.1611111,-0.402777791,1,0,0,1.23315,scale,0,1,1,1,1,0.275930788,0.223606798,0.275930788,0.223606798,stimuli/training/80_left.png,stimuli/training/80_right.png,,,,,,,,,,,,,
,,,,,,$5dee93e2bc4b5c53f28dfcff,2020-07-20_16h35.32.271,fisher_task,2020.1.3,Win32,60,0.119444459,-0.317592605,1,0,0,2.399765,scale,0,2,2,2,1,0.174513954,0.141421356,0.349027907,0.282842712,stimuli/training/50_left.png,stimuli/training/50_right.png,,,,,,,,,,,,,
,,,,,,$5dee93e2bc4b5c53f28dfcff,2020-07-20_16h35.32.271,fisher_task,2020.1.3,Win32,60,-0.104629561,-0.300000012,1,0,0,2.46644,scale,0,3,3,3,1,0.349027907,0.282842712,0.174513954,0.141421356,stimuli/training/50_left.png,stimuli/training/50_right.png,,,,,,,,,,,,,
,,,,,,$5dee93e2bc4b5c53f28dfcff,2020-07-20_16h35.32.271,fisher_task,2020.1.3,Win32,60,0.000925939,-0.256481549,1,0,0,1.899785,scale,0,4,4,4,1,0.275930788,0.223606798,0.275930788,0.223606798,stimuli/training/50_left.png,stimuli/training/50_right.png,,,,,,,,,,,,,
,,,,,,$5dee93e2bc4b5c53f28dfcff,2020-07-20_16h35.32.271,fisher_task,2020.1.3,Win32,60,0.179629646,-0.430555569,1,0,0,1.533145,scale,0,5,5,5,1,0.174513954,0.141421356,0.349027907,0.282842712,stimuli/training/20_left.png,stimuli/training/20_right.png,,,,,,,,,,,,,
,,,,,,$5dee93e2bc4b5c53f28dfcff,2020-07-20_16h35.32.271,fisher_task,2020.1.3,Win32,60,-0.16574073,-0.430555569,1,0,0,1.43317,scale,0,6,6,6,1,0.349027907,0.282842712,0.174513954,0.141421356,stimuli/training/80_left.png,stimuli/training/80_right.png,,,,,,,,,,,,,
,,,,,,$5dee93e2bc4b5c53f28dfcff,2020-07-20_16h35.32.271,fisher_task,2020.1.3,Win32,60,0.151851867,-0.433333347,1,0,0,1.66642,scale,0,7,7,7,1,0.1234,0.1,0.3702,0.3,stimuli/training/30_left.png,stimuli/training/30_right.png,,,,,,,,,,,,,
,,,,,,$5dee93e2bc4b5c53f28dfcff,2020-07-20_16h35.32.271,fisher_task,2020.1.3,Win32,60,-0.149074063,-0.424074088,1,0,0,1.249815,scale,0,8,8,8,1,0.3702,0.3,0.1234,0.1,stimuli/training/70_left.png,stimuli/training/70_right.png,,,,,,,,,,,,,
,,,,,,$5dee93e2bc4b5c53f28dfcff,2020-07-20_16h35.32.271,fisher_task,2020.1.3,Win32,60,-0.158333322,-0.426851866,1,0,0,1.14973,scale,0,9,9,9,1,0.326485712,0.264575131,0.21373507,0.173205081,stimuli/training/90_left.png,stimuli/training/90_right.png,,,,,,,,,,,,,
,,,,,,$5dee93e2bc4b5c53f28dfcff,2020-07-20_16h35.32.271,fisher_task,2020.1.3,Win32,60,0.143518534,-0.437962977,1,0,0,1.13312,scale,0,10,10,10,1,0.21373507,0.173205081,0.326485712,0.264575131,stimuli/training/10_left.png,stimuli/training/10_right.png,,,,,,,,,,,,,
,,,,,,$5dee93e2bc4b5c53f28dfcff,2020-07-20_16h35.32.271,fisher_task,2020.1.3,Win32,60,0.136111126,-0.367592662,1,0,0,2.68308,scale,,,,,,0.2468,0.2,0.302267034,0.244948974,stimuli/lakes/403026_left.png,stimuli/lakes/403026_right.png,space,8.86385,,0,0,0,26,1,,,,,
,,,,,,$5dee93e2bc4b5c53f28dfcff,2020-07-20_16h35.32.271,fisher_task,2020.1.3,Win32,60,0.087037052,-0.280555567,1,0,0,3.46638,scale,,,,,,0.275930788,0.223606798,0.275930788,0.223606798,stimuli/lakes/504054_left.png,stimuli/lakes/504054_right.png,,,,0,1,1,54,1,,,,,
,,,,,,$5dee93e2bc4b5c53f28dfcff,2020-07-20_16h35.32.271,fisher_task,2020.1.3,Win32,60,-0.070370358,-0.27314816,1,0,0,2.916195,scale,,,,,,0.21373507,0.173205081,0.326485712,0.264575131,stimuli/lakes/3080109_left.png,stimuli/lakes/3080109_right.png,,,,0,2,2,109,1,,,,,
,,,,,,$5dee93e2bc4b5c53f28dfcff,2020-07-20_16h35.32.271,fisher_task,2020.1.3,Win32,60,-0.078703692,-0.287962975,1,0,0,2.13311,scale,,,,,,0.2468,0.2,0.302267034,0.244948974,stimuli/lakes/406083_left.png,stimuli/lakes/406083_right.png,,,,0,3,3,83,1,,,,,
,,,,,,$5dee93e2bc4b5c53f28dfcff,2020-07-20_16h35.32.271,fisher_task,2020.1.3,Win32,60,-0.090740672,-0.301851864,1,0,0,2.316435,scale,,,,,,0.1234,0.1,0.3702,0.3,stimuli/lakes/106071_left.png,stimuli/lakes/106071_right.png,,,,0,4,4,71,1,,,,,
,,,,,,$5dee93e2bc4b5c53f28dfcff,2020-07-20_16h35.32.271,fisher_task,2020.1.3,Win32,60,-0.137962952,-0.362963032,1,0,0,2.299785,scale,,,,,,0.3702,0.3,0.1234,0.1,stimuli/lakes/905070_left.png,stimuli/lakes/905070_right.png,,,,0,5,5,70,1,,,,,
,,,,,,$5dee93e2bc4b5c53f28dfcff,2020-07-20_16h35.32.271,fisher_task,2020.1.3,Win32,60,-0.119444433,-0.325000012,1,0,0,1.283075,scale,,,,,,0.302267034,0.244948974,0.2468,0.2,stimuli/lakes/6070103_left.png,stimuli/lakes/6070103_right.png,,,,0,6,6,103,1,,,,,
,,,,,,$5dee93e2bc4b5c53f28dfcff,2020-07-20_16h35.32.271,fisher_task,2020.1.3,Win32,60,-0.149074063,-0.402777791,1,0,0,1.933075,scale,,,,,,0.349027907,0.282842712,0.174513954,0.141421356,stimuli/lakes/806087_left.png,stimuli/lakes/806087_right.png,,,,0,7,7,87,1,,,,,
,,,,,,$5dee93e2bc4b5c53f28dfcff,2020-07-20_16h35.32.271,fisher_task,2020.1.3,Win32,60,0.11481483,-0.300000012,1,0,0,1.916405,scale,,,,,,0.21373507,0.173205081,0.326485712,0.264575131,stimuli/lakes/304052_left.png,stimuli/lakes/304052_right.png,,,,0,8,8,52,1,,,,,
,,,,,,$5dee93e2bc4b5c53f28dfcff,2020-07-20_16h35.32.271,fisher_task,2020.1.3,Win32,60,-0.090740672,-0.300000012,1,0,0,1.666445,scale,,,,,,0.275930788,0.223606798,0.275930788,0.223606798,stimuli/lakes/506075_left.png,stimuli/lakes/506075_right.png,,,,0,9,9,75,1,,,,,
,,,,,,$5dee93e2bc4b5c53f28dfcff,2020-07-20_16h35.32.271,fisher_task,2020.1.3,Win32,60,0.111111126,-0.295370382,1,0,0,1.51645,scale,,,,,,0.275930788,0.223606798,0.275930788,0.223606798,stimuli/lakes/503027_left.png,stimuli/lakes/503027_right.png,,,,0,10,10,27,1,,,,,
,,,,,,$5dee93e2bc4b5c53f28dfcff,2020-07-20_16h35.32.271,fisher_task,2020.1.3,Win32,60,-0.142592581,-0.420370384,1,0,0,1.533075,scale,,,,,,0.302267034,0.244948974,0.2468,0.2,stimuli/lakes/6080114_left.png,stimuli/lakes/6080114_right.png,,,,0,11,11,114,1,,,,,
,,,,,,$5dee93e2bc4b5c53f28dfcff,2020-07-20_16h35.32.271,fisher_task,2020.1.3,Win32,60,-0.151851841,-0.417592606,1,0,0,1.01641,scale,,,,,,0.326485712,0.264575131,0.21373507,0.173205081,stimuli/lakes/7080116_left.png,stimuli/lakes/7080116_right.png,,,,0,12,12,116,1,,,,,
,,,,,,$5dee93e2bc4b5c53f28dfcff,2020-07-20_16h35.32.271,fisher_task,2020.1.3,Win32,60,-0.071296284,-0.276851863,1,0,0,3.64965,scale,,,,,,0.3702,0.3,0.1234,0.1,stimuli/lakes/903031_left.png,stimuli/lakes/903031_right.png,,,,0,13,13,31,1,,,,,
,,,,,,$5dee93e2bc4b5c53f28dfcff,2020-07-20_16h35.32.271,fisher_task,2020.1.3,Win32,60,0.112962978,-0.326851864,1,0,0,1.699775,scale,,,,,,0.21373507,0.173205081,0.326485712,0.264575131,stimuli/lakes/303025_left.png,stimuli/lakes/303025_right.png,,,,0,14,14,25,1,,,,,
,,,,,,$5dee93e2bc4b5c53f28dfcff,2020-07-20_16h35.32.271,fisher_task,2020.1.3,Win32,60,0.109259274,-0.310185197,1,0,0,1.56643,scale,,,,,,0.21373507,0.173205081,0.326485712,0.264575131,stimuli/lakes/304043_left.png,stimuli/lakes/304043_right.png,,,,0,15,15,43,1,,,,,
,,,,,,$5dee93e2bc4b5c53f28dfcff,2020-07-20_16h35.32.271,fisher_task,2020.1.3,Win32,60,0.033333347,-0.261111179,1,0,0,3.43302,scale,,,,,,0.21373507,0.173205081,0.326485712,0.264575131,stimuli/lakes/3070100_left.png,stimuli/lakes/3070100_right.png,,,,0,16,16,100,1,,,,,
,,,,,,$5dee93e2bc4b5c53f28dfcff,2020-07-20_16h35.32.271,fisher_task,2020.1.3,Win32,60,0.154629645,-0.434259273,1,0,0,1.35,scale,,,,,,0.1234,0.1,0.3702,0.3,stimuli/lakes/104050_left.png,stimuli/lakes/104050_right.png,,,,0,17,17,50,1,,,,,
,,,,,,$5dee93e2bc4b5c53f28dfcff,2020-07-20_16h35.32.271,fisher_task,2020.1.3,Win32,60,-0.069444432,-0.272222234,1,0,0,1.88308,scale,,,,,,0.326485712,0.264575131,0.21373507,0.173205081,stimuli/lakes/702019_left.png,stimuli/lakes/702019_right.png,,,,0,18,18,19,1,,,,,
,,,,,,$5dee93e2bc4b5c53f28dfcff,2020-07-20_16h35.32.271,fisher_task,2020.1.3,Win32,60,0.075000014,-0.26851853,1,0,0,1.8831,scale,,,,,,0.2468,0.2,0.302267034,0.244948974,stimuli/lakes/405063_left.png,stimuli/lakes/405063_right.png,,,,0,19,19,63,1,,,,,
,,,,,,$5dee93e2bc4b5c53f28dfcff,2020-07-20_16h35.32.271,fisher_task,2020.1.3,Win32,60,0.02129631,-0.256481549,1,0,0,1.433095,scale,,,,,,0.21373507,0.173205081,0.326485712,0.264575131,stimuli/lakes/307091_left.png,stimuli/lakes/307091_right.png,,,,0,20,20,91,1,,,,,
,,,,,,$5dee93e2bc4b5c53f28dfcff,2020-07-20_16h35.32.271,fisher_task,2020.1.3,Win32,60,-0.079629618,-0.285185197,1,0,0,1.9164,scale,,,,,,0.302267034,0.244948974,0.2468,0.2,stimuli/lakes/604046_left.png,stimuli/lakes/604046_right.png,,,,0,21,21,46,1,,,,,
,,,,,,$5dee93e2bc4b5c53f28dfcff,2020-07-20_16h35.32.271,fisher_task,2020.1.3,Win32,60,-0.09722221,-0.284259327,1,0,0,1.466455,scale,,,,,,0.275930788,0.223606798,0.275930788,0.223606798,stimuli/lakes/507093_left.png,stimuli/lakes/507093_right.png,,,space,0,22,22,93,1,6.710315,,,,
,,,,,,$5dee93e2bc4b5c53f28dfcff,2020-07-20_16h35.32.271,fisher_task,2020.1.3,Win32,60,-0.121296285,-0.321296365,1,0,0,1.66646,scale,,,,,,0.3702,0.3,0.1234,0.1,stimuli/lakes/9070106_left.png,stimuli/lakes/9070106_right.png,,,,0,23,23,106,1,,,,,
,,,,,,$5dee93e2bc4b5c53f28dfcff,2020-07-20_16h35.32.271,fisher_task,2020.1.3,Win32,60,0.122222237,-0.326851864,1,0,0,1.699755,scale,,,,,,0.2468,0.2,0.302267034,0.244948974,stimuli/lakes/403035_left.png,stimuli/lakes/403035_right.png,,,,0,24,24,35,1,,,,,
,,,,,,$5dee93e2bc4b5c53f28dfcff,2020-07-20_16h35.32.271,fisher_task,2020.1.3,Win32,60,0.014814828,-0.261111179,1,0,0,1.76644,scale,,,,,,0.1234,0.1,0.3702,0.3,stimuli/lakes/107098_left.png,stimuli/lakes/107098_right.png,,,,0,25,25,98,1,,,,,
,,,,,,$5dee93e2bc4b5c53f28dfcff,2020-07-20_16h35.32.271,fisher_task,2020.1.3,Win32,60,0.035185199,-0.26851853,1,0,0,1.633085,scale,,,,,,0.21373507,0.173205081,0.326485712,0.264575131,stimuli/lakes/305061_left.png,stimuli/lakes/305061_right.png,,,,0,26,26,61,1,,,,,
,,,,,,$5dee93e2bc4b5c53f28dfcff,2020-07-20_16h35.32.271,fisher_task,2020.1.3,Win32,60,-0.068518506,-0.275000068,1,0,0,4.133005,scale,,,,,,0.349027907,0.282842712,0.174513954,0.141421356,stimuli/lakes/80109_left.png,stimuli/lakes/80109_right.png,,,,0,27,27,9,1,,,,,
,,,,,,$5dee93e2bc4b5c53f28dfcff,2020-07-20_16h35.32.271,fisher_task,2020.1.3,Win32,60,0.150925941,-0.39166668,1,0,0,1.64993,scale,,,,,,0.2468,0.2,0.302267034,0.244948974,stimuli/lakes/402015_left.png,stimuli/lakes/402015_right.png,,,,0,28,28,15,1,,,,,
,,,,,,$5dee93e2bc4b5c53f28dfcff,2020-07-20_16h35.32.271,fisher_task,2020.1.3,Win32,60,0.150000015,-0.427777848,1,0,0,1.13315,scale,,,,,,0.21373507,0.173205081,0.326485712,0.264575131,stimuli/lakes/302013_left.png,stimuli/lakes/302013_right.png,,,,0,29,29,13,1,,,,,
,,,,,,$5dee93e2bc4b5c53f28dfcff,2020-07-20_16h35.32.271,fisher_task,2020.1.3,Win32,60,-0.116666655,-0.345370383,1,0,0,1.38313,scale,,,,,,0.302267034,0.244948974,0.2468,0.2,stimuli/lakes/606076_left.png,stimuli/lakes/606076_right.png,,,,0,30,30,76,1,,,,,
,,,,,,$5dee93e2bc4b5c53f28dfcff,2020-07-20_16h35.32.271,fisher_task,2020.1.3,Win32,60,0.136111126,-0.32777779,1,0,0,2.4997,scale,,,,,,0.275930788,0.223606798,0.275930788,0.223606798,stimuli/lakes/502016_left.png,stimuli/lakes/502016_right.png,,,,0,31,31,16,1,,,,,
,,,,,,$5dee93e2bc4b5c53f28dfcff,2020-07-20_16h35.32.271,fisher_task,2020.1.3,Win32,60,0.036111125,-0.277777789,1,0,0,1.366425,scale,,,,,,0.174513954,0.141421356,0.349027907,0.282842712,stimuli/lakes/207090_left.png,stimuli/lakes/207090_right.png,,,,0,32,32,90,1,,,,,
,,,,,,$5dee93e2bc4b5c53f28dfcff,2020-07-20_16h35.32.271,fisher_task,2020.1.3,Win32,60,0.061111125,-0.274074086,1,0,0,1.39979,scale,,,,,,0.2468,0.2,0.302267034,0.244948974,stimuli/lakes/404044_left.png,stimuli/lakes/404044_right.png,,,,0,33,33,44,1,,,,,
,,,,,,$5dee93e2bc4b5c53f28dfcff,2020-07-20_16h35.32.271,fisher_task,2020.1.3,Win32,60,0.062962977,-0.282407419,1,0,0,1.332955,scale,,,,,,0.21373507,0.173205081,0.326485712,0.264575131,stimuli/lakes/3080110_left.png,stimuli/lakes/3080110_right.png,,,,0,34,34,110,1,,,,,
,,,,,,$5dee93e2bc4b5c53f28dfcff,2020-07-20_16h35.32.271,fisher_task,2020.1.3,Win32,60,0.11481483,-0.320370383,1,0,0,1.966405,scale,,,,,,0.21373507,0.173205081,0.326485712,0.264575131,stimuli/lakes/303034_left.png,stimuli/lakes/303034_right.png,,,,0,35,35,34,1,,,,,
,,,,,,$5dee93e2bc4b5c53f28dfcff,2020-07-20_16h35.32.271,fisher_task,2020.1.3,Win32,60,0.122222237,-0.331481494,1,0,0,2.06639,scale,,,,,,0.1234,0.1,0.3702,0.3,stimuli/lakes/103032_left.png,stimuli/lakes/103032_right.png,,,,0,36,36,32,1,,,,,
,,,,,,$5dee93e2bc4b5c53f28dfcff,2020-07-20_16h35.32.271,fisher_task,2020.1.3,Win32,60,-0.115740729,-0.328703716,1,0,0,2.233045,scale,,,,,,0.326485712,0.264575131,0.21373507,0.173205081,stimuli/lakes/705067_left.png,stimuli/lakes/705067_right.png,,,,0,37,37,67,1,,,,,
,,,,,,$5dee93e2bc4b5c53f28dfcff,2020-07-20_16h35.32.271,fisher_task,2020.1.3,Win32,60,-0.143518507,-0.434259273,1,0,0,0.99981,scale,,,,,,0.326485712,0.264575131,0.21373507,0.173205081,stimuli/lakes/7090128_left.png,stimuli/lakes/7090128_right.png,,,,0,38,38,128,1,,,,,
,,,,,,$5dee93e2bc4b5c53f28dfcff,2020-07-20_16h35.32.271,fisher_task,2020.1.3,Win32,60,-0.041666654,-0.265740809,1,0,0,1.349845,scale,,,,,,0.326485712,0.264575131,0.21373507,0.173205081,stimuli/lakes/70108_left.png,stimuli/lakes/70108_right.png,,,,0,39,39,8,1,,,,,
,,,,,,$5dee93e2bc4b5c53f28dfcff,2020-07-20_16h35.32.271,fisher_task,2020.1.3,Win32,60,-0.091666655,-0.300925938,1,0,0,2.76639,scale,,,,,,0.302267034,0.244948974,0.2468,0.2,stimuli/lakes/604055_left.png,stimuli/lakes/604055_right.png,,,,0,40,40,55,1,,,,,
,,,,,,$5dee93e2bc4b5c53f28dfcff,2020-07-20_16h35.32.271,fisher_task,2020.1.3,Win32,60,-0.129629618,-0.355555568,1,0,0,3.016365,scale,,,,,,0.349027907,0.282842712,0.174513954,0.141421356,stimuli/lakes/805069_left.png,stimuli/lakes/805069_right.png,,,,0,41,41,69,1,,,,,
,,,,,,$5dee93e2bc4b5c53f28dfcff,2020-07-20_16h35.32.271,fisher_task,2020.1.3,Win32,60,-0.105555544,-0.291666678,1,0,0,2.93298,scale,,,,,,0.326485712,0.264575131,0.21373507,0.173205081,stimuli/lakes/703038_left.png,stimuli/lakes/703038_right.png,,,,0,42,42,38,1,,,,,
,,,,,,$5dee93e2bc4b5c53f28dfcff,2020-07-20_16h35.32.271,fisher_task,2020.1.3,Win32,60,0.132407423,-0.341666679,1,0,0,1.59977,scale,,,,,,0.2468,0.2,0.302267034,0.244948974,stimuli/lakes/402014_left.png,stimuli/lakes/402014_right.png,,,,0,43,43,14,1,,,,,
,,,,,,$5dee93e2bc4b5c53f28dfcff,2020-07-20_16h35.32.271,fisher_task,2020.1.3,Win32,60,-0.151851841,-0.423148218,1,0,0,1.35003,scale,,,,,,0.326485712,0.264575131,0.21373507,0.173205081,stimuli/lakes/706077_left.png,stimuli/lakes/706077_right.png,,,space,0,44,44,77,1,1.84039,,,,
,,,,,,$5dee93e2bc4b5c53f28dfcff,2020-07-20_16h35.32.271,fisher_task,2020.1.3,Win32,60,-0.103703692,-0.306481493,1,0,0,1.683115,scale,,,,,,0.2468,0.2,0.302267034,0.244948974,stimuli/lakes/4090123_left.png,stimuli/lakes/4090123_right.png,,,,0,45,45,123,1,,,,,
,,,,,,$5dee93e2bc4b5c53f28dfcff,2020-07-20_16h35.32.271,fisher_task,2020.1.3,Win32,60,0.058333347,-0.256481549,1,0,0,2.783015,scale,,,,,,0.302267034,0.244948974,0.2468,0.2,stimuli/lakes/60105_left.png,stimuli/lakes/60105_right.png,,,,0,46,46,5,1,,,,,
,,,,,,$5dee93e2bc4b5c53f28dfcff,2020-07-20_16h35.32.271,fisher_task,2020.1.3,Win32,60,0.002777791,-0.255555567,1,0,0,3.68303,scale,,,,,,0.349027907,0.282842712,0.174513954,0.141421356,stimuli/lakes/804057_left.png,stimuli/lakes/804057_right.png,,,,0,47,47,57,1,,,,,
,,,,,,$5dee93e2bc4b5c53f28dfcff,2020-07-20_16h35.32.271,fisher_task,2020.1.3,Win32,60,0.001851922,-0.255555567,1,0,0,2.16638,scale,,,,,,0.2468,0.2,0.302267034,0.244948974,stimuli/lakes/405064_left.png,stimuli/lakes/405064_right.png,,,,0,48,48,64,1,,,,,
,,,,,,$5dee93e2bc4b5c53f28dfcff,2020-07-20_16h35.32.271,fisher_task,2020.1.3,Win32,60,-0.058333264,-0.275925937,1,0,0,1.633105,scale,,,,,,0.349027907,0.282842712,0.174513954,0.141421356,stimuli/lakes/802021_left.png,stimuli/lakes/802021_right.png,,,,0,49,49,21,1,,,,,
,,,,,,$5dee93e2bc4b5c53f28dfcff,2020-07-20_16h35.32.271,fisher_task,2020.1.3,Win32,60,-0.058333264,-0.265740809,1,0,0,1.699765,scale,,,,,,0.326485712,0.264575131,0.21373507,0.173205081,stimuli/lakes/703029_left.png,stimuli/lakes/703029_right.png,,,,0,50,50,29,1,,,,,
,,,,,,$5dee93e2bc4b5c53f28dfcff,2020-07-20_16h35.32.271,fisher_task,2020.1.3,Win32,60,-0.082407395,-0.291666678,1,0,0,1.36644,scale,,,,,,0.3702,0.3,0.1234,0.1,stimuli/lakes/901010_left.png,stimuli/lakes/901010_right.png,,,,0,51,51,10,1,,,,,
,,,,,,$5dee93e2bc4b5c53f28dfcff,2020-07-20_16h35.32.271,fisher_task,2020.1.3,Win32,60,0.124074089,-0.322222234,1,0,0,2.333015,scale,,,,,,0.275930788,0.223606798,0.275930788,0.223606798,stimuli/lakes/503036_left.png,stimuli/lakes/503036_right.png,,,,0,52,52,36,1,,,,,
,,,,,,$5dee93e2bc4b5c53f28dfcff,2020-07-20_16h35.32.271,fisher_task,2020.1.3,Win32,60,-0.135185174,-0.351851865,1,0,0,1.433125,scale,,,,,,0.275930788,0.223606798,0.275930788,0.223606798,stimuli/lakes/5090125_left.png,stimuli/lakes/5090125_right.png,,,,0,53,53,125,1,,,,,
,,,,,,$5dee93e2bc4b5c53f28dfcff,2020-07-20_16h35.32.271,fisher_task,2020.1.3,Win32,60,0.056481496,-0.262962974,1,0,0,2.866385,scale,,,,,,0.174513954,0.141421356,0.349027907,0.282842712,stimuli/lakes/205060_left.png,stimuli/lakes/205060_right.png,,,,0,54,54,60,1,,,,,
,,,,,,$5dee93e2bc4b5c53f28dfcff,2020-07-20_16h35.32.271,fisher_task,2020.1.3,Win32,60,-0.13240734,-0.346296309,1,0,0,3.249555,scale,,,,,,0.326485712,0.264575131,0.21373507,0.173205081,stimuli/lakes/705068_left.png,stimuli/lakes/705068_right.png,,,,0,55,55,68,1,,,,,
,,,,,,$5dee93e2bc4b5c53f28dfcff,2020-07-20_16h35.32.271,fisher_task,2020.1.3,Win32,60,0.014814828,-0.252777789,1,0,0,4.149665,scale,,,,,,0.2468,0.2,0.302267034,0.244948974,stimuli/lakes/4070101_left.png,stimuli/lakes/4070101_right.png,,,,0,56,56,101,1,,,,,
,,,,,,$5dee93e2bc4b5c53f28dfcff,2020-07-20_16h35.32.271,fisher_task,2020.1.3,Win32,60,-0.098148136,-0.287037049,1,0,0,3.48304,scale,,,,,,0.3702,0.3,0.1234,0.1,stimuli/lakes/902022_left.png,stimuli/lakes/902022_right.png,,,,0,57,57,22,1,,,,,
,,,,,,$5dee93e2bc4b5c53f28dfcff,2020-07-20_16h35.32.271,fisher_task,2020.1.3,Win32,60,-0.116666655,-0.33240742,1,0,0,1.399805,scale,,,,,,0.326485712,0.264575131,0.21373507,0.173205081,stimuli/lakes/704056_left.png,stimuli/lakes/704056_right.png,,,,0,58,58,56,1,,,,,
,,,,,,$5dee93e2bc4b5c53f28dfcff,2020-07-20_16h35.32.271,fisher_task,2020.1.3,Win32,60,-0.142592581,-0.433333347,1,0,0,1.23331,scale,,,,,,0.326485712,0.264575131,0.21373507,0.173205081,stimuli/lakes/7090129_left.png,stimuli/lakes/7090129_right.png,,,,0,59,59,129,1,,,,,
,,,,,,$5dee93e2bc4b5c53f28dfcff,2020-07-20_16h35.32.271,fisher_task,2020.1.3,Win32,60,0.044444458,-0.260185197,1,0,0,2.433095,scale,,,,,,0.21373507,0.173205081,0.326485712,0.264575131,stimuli/lakes/306073_left.png,stimuli/lakes/306073_right.png,,,,0,60,60,73,1,,,,,
,,,,,,$5dee93e2bc4b5c53f28dfcff,2020-07-20_16h35.32.271,fisher_task,2020.1.3,Win32,60,-0.052777765,-0.258333345,1,0,0,1.44984,scale,,,,,,0.349027907,0.282842712,0.174513954,0.141421356,stimuli/lakes/803039_left.png,stimuli/lakes/803039_right.png,,,,0,61,61,39,1,,,,,
,,,,,,$5dee93e2bc4b5c53f28dfcff,2020-07-20_16h35.32.271,fisher_task,2020.1.3,Win32,60,-0.138888878,-0.347222235,1,0,0,2.249695,scale,,,,,,0.3702,0.3,0.1234,0.1,stimuli/lakes/904058_left.png,stimuli/lakes/904058_right.png,,,,0,62,62,58,1,,,,,
,,,,,,$5dee93e2bc4b5c53f28dfcff,2020-07-20_16h35.32.271,fisher_task,2020.1.3,Win32,60,0.062037051,-0.26851853,1,0,0,2.116445,scale,,,,,,0.2468,0.2,0.302267034,0.244948974,stimuli/lakes/4080111_left.png,stimuli/lakes/4080111_right.png,,,,0,63,63,111,1,,,,,
,,,,,,$5dee93e2bc4b5c53f28dfcff,2020-07-20_16h35.32.271,fisher_task,2020.1.3,Win32,60,-0.053703635,-0.271296308,1,0,0,2.716605,scale,,,,,,0.326485712,0.264575131,0.21373507,0.173205081,stimuli/lakes/7080117_left.png,stimuli/lakes/7080117_right.png,,,,0,64,64,117,1,,,,,
,,,,,,$5dee93e2bc4b5c53f28dfcff,2020-07-20_16h35.32.271,fisher_task,2020.1.3,Win32,60,-0.139814804,-0.432407478,1,0,0,1.433185,scale,,,,,,0.302267034,0.244948974,0.2468,0.2,stimuli/lakes/6090127_left.png,stimuli/lakes/6090127_right.png,,,,0,65,65,127,1,,,,,
,,,,,,$5dee93e2bc4b5c53f28dfcff,2020-07-20_16h35.32.271,fisher_task,2020.1.3,Win32,60,0.156481497,-0.440740755,1,0,0,1.283135,scale,,,,,,0.2468,0.2,0.302267034,0.244948974,stimuli/lakes/40102_left.png,stimuli/lakes/40102_right.png,,,space,0,66,66,2,1,1.69531,,,,
,,,,,,$5dee93e2bc4b5c53f28dfcff,2020-07-20_16h35.32.271,fisher_task,2020.1.3,Win32,60,0.094444459,-0.280555567,1,0,0,1.666535,scale,,,,,,0.174513954,0.141421356,0.349027907,0.282842712,stimuli/lakes/206081_left.png,stimuli/lakes/206081_right.png,,,,0,67,67,81,1,,,,,
,,,,,,$5dee93e2bc4b5c53f28dfcff,2020-07-20_16h35.32.271,fisher_task,2020.1.3,Win32,60,0.069444459,-0.285185197,1,0,0,1.16649,scale,,,,,,0.174513954,0.141421356,0.349027907,0.282842712,stimuli/lakes/206072_left.png,stimuli/lakes/206072_right.png,,,,0,68,68,72,1,,,,,
,,,,,,$5dee93e2bc4b5c53f28dfcff,2020-07-20_16h35.32.271,fisher_task,2020.1.3,Win32,60,-0.13240734,-0.430555569,1,0,0,1.48311,scale,,,,,,0.3702,0.3,0.1234,0.1,stimuli/lakes/906088_left.png,stimuli/lakes/906088_right.png,,,,0,69,69,88,1,,,,,
,,,,,,$5dee93e2bc4b5c53f28dfcff,2020-07-20_16h35.32.271,fisher_task,2020.1.3,Win32,60,-0.116666655,-0.322222234,1,0,0,1.63313,scale,,,,,,0.2468,0.2,0.302267034,0.244948974,stimuli/lakes/4080112_left.png,stimuli/lakes/4080112_right.png,,,,0,70,70,112,1,,,,,
,,,,,,$5dee93e2bc4b5c53f28dfcff,2020-07-20_16h35.32.271,fisher_task,2020.1.3,Win32,60,-0.10648147,-0.300000012,1,0,0,4.649505,scale,,,,,,0.326485712,0.264575131,0.21373507,0.173205081,stimuli/lakes/704047_left.png,stimuli/lakes/704047_right.png,,,,0,71,71,47,1,,,,,
,,,,,,$5dee93e2bc4b5c53f28dfcff,2020-07-20_16h35.32.271,fisher_task,2020.1.3,Win32,60,0.079629644,-0.260185197,1,0,0,1.633165,scale,,,,,,0.302267034,0.244948974,0.2468,0.2,stimuli/lakes/60106_left.png,stimuli/lakes/60106_right.png,,,,0,72,72,6,1,,,,,
,,,,,,$5dee93e2bc4b5c53f28dfcff,2020-07-20_16h35.32.271,fisher_task,2020.1.3,Win32,60,-0.076851783,-0.275925937,1,0,0,1.99971,scale,,,,,,0.174513954,0.141421356,0.349027907,0.282842712,stimuli/lakes/207099_left.png,stimuli/lakes/207099_right.png,,,,0,73,73,99,1,,,,,
,,,,,,$5dee93e2bc4b5c53f28dfcff,2020-07-20_16h35.32.271,fisher_task,2020.1.3,Win32,60,-0.076851783,-0.2638889,1,0,0,1.98309,scale,,,,,,0.2468,0.2,0.302267034,0.244948974,stimuli/lakes/4090124_left.png,stimuli/lakes/4090124_right.png,,,,0,74,74,124,1,,,,,
,,,,,,$5dee93e2bc4b5c53f28dfcff,2020-07-20_16h35.32.271,fisher_task,2020.1.3,Win32,60,-0.093518507,-0.295370382,1,0,0,2.24979,scale,,,,,,0.349027907,0.282842712,0.174513954,0.141421356,stimuli/lakes/804048_left.png,stimuli/lakes/804048_right.png,,,,0,75,75,48,1,,,,,
,,,,,,$5dee93e2bc4b5c53f28dfcff,2020-07-20_16h35.32.271,fisher_task,2020.1.3,Win32,60,-0.119444433,-0.312962975,1,0,0,1.483145,scale,,,,,,0.21373507,0.173205081,0.326485712,0.264575131,stimuli/lakes/3090122_left.png,stimuli/lakes/3090122_right.png,,,,0,76,76,122,1,,,,,
,,,,,,$5dee93e2bc4b5c53f28dfcff,2020-07-20_16h35.32.271,fisher_task,2020.1.3,Win32,60,0.065740755,-0.266666678,1,0,0,4.49961,scale,,,,,,0.302267034,0.244948974,0.2468,0.2,stimuli/lakes/602017_left.png,stimuli/lakes/602017_right.png,,,,0,77,77,17,1,,,,,
,,,,,,$5dee93e2bc4b5c53f28dfcff,2020-07-20_16h35.32.271,fisher_task,2020.1.3,Win32,60,-0.099074062,-0.296296308,1,0,0,1.43314,scale,,,,,,0.275930788,0.223606798,0.275930788,0.223606798,stimuli/lakes/5070102_left.png,stimuli/lakes/5070102_right.png,,,,0,78,78,102,1,,,,,
,,,,,,$5dee93e2bc4b5c53f28dfcff,2020-07-20_16h35.32.271,fisher_task,2020.1.3,Win32,60,-0.065740728,-0.26851853,1,0,0,3.266365,scale,,,,,,0.349027907,0.282842712,0.174513954,0.141421356,stimuli/lakes/803030_left.png,stimuli/lakes/803030_right.png,,,,0,79,79,30,1,,,,,
,,,,,,$5dee93e2bc4b5c53f28dfcff,2020-07-20_16h35.32.271,fisher_task,2020.1.3,Win32,60,-0.143518507,-0.376851921,1,0,0,1.049905,scale,,,,,,0.3702,0.3,0.1234,0.1,stimuli/lakes/906079_left.png,stimuli/lakes/906079_right.png,,,,0,80,80,79,1,,,,,
,,,,,,$5dee93e2bc4b5c53f28dfcff,2020-07-20_16h35.32.271,fisher_task,2020.1.3,Win32,60,-0.087962951,-0.283333345,1,0,0,0.916465,scale,,,,,,0.302267034,0.244948974,0.2468,0.2,stimuli/lakes/605066_left.png,stimuli/lakes/605066_right.png,,,,0,81,81,66,1,,,,,
,,,,,,$5dee93e2bc4b5c53f28dfcff,2020-07-20_16h35.32.271,fisher_task,2020.1.3,Win32,60,-0.03796295,-0.250000011,1,0,0,2.933025,scale,,,,,,0.302267034,0.244948974,0.2468,0.2,stimuli/lakes/603028_left.png,stimuli/lakes/603028_right.png,,,,0,82,82,28,1,,,,,
,,,,,,$5dee93e2bc4b5c53f28dfcff,2020-07-20_16h35.32.271,fisher_task,2020.1.3,Win32,60,-0.023148135,-0.250000011,1,0,0,1.149765,scale,,,,,,0.326485712,0.264575131,0.21373507,0.173205081,stimuli/lakes/702020_left.png,stimuli/lakes/702020_right.png,,,,0,83,83,20,1,,,,,
,,,,,,$5dee93e2bc4b5c53f28dfcff,2020-07-20_16h35.32.271,fisher_task,2020.1.3,Win32,60,-0.090740672,-0.291666678,1,0,0,1.399825,scale,,,,,,0.3702,0.3,0.1234,0.1,stimuli/lakes/903040_left.png,stimuli/lakes/903040_right.png,,,,0,84,84,40,1,,,,,
,,,,,,$5dee93e2bc4b5c53f28dfcff,2020-07-20_16h35.32.271,fisher_task,2020.1.3,Win32,60,-0.098148136,-0.296296308,1,0,0,1.41649,scale,,,,,,0.302267034,0.244948974,0.2468,0.2,stimuli/lakes/603037_left.png,stimuli/lakes/603037_right.png,,,,0,85,85,37,1,,,,,
,,,,,,$5dee93e2bc4b5c53f28dfcff,2020-07-20_16h35.32.271,fisher_task,2020.1.3,Win32,60,-0.125925915,-0.322222234,1,0,0,1.39983,scale,,,,,,0.275930788,0.223606798,0.275930788,0.223606798,stimuli/lakes/506084_left.png,stimuli/lakes/506084_right.png,,,,0,86,86,84,1,,,,,
,,,,,,$5dee93e2bc4b5c53f28dfcff,2020-07-20_16h35.32.271,fisher_task,2020.1.3,Win32,60,0.151851867,-0.428703718,1,0,0,1.216275,scale,,,,,,0.174513954,0.141421356,0.349027907,0.282842712,stimuli/lakes/202011_left.png,stimuli/lakes/202011_right.png,,,,0,87,87,11,1,,,,,
,,,,,,$5dee93e2bc4b5c53f28dfcff,2020-07-20_16h35.32.271,fisher_task,2020.1.3,Win32,60,-0.071296284,-0.277777789,1,0,0,1.71649,scale,,,,,,0.174513954,0.141421356,0.349027907,0.282842712,stimuli/lakes/2080108_left.png,stimuli/lakes/2080108_right.png,,,space,0,88,88,108,1,2.080215,,,,
,,,,,,$5dee93e2bc4b5c53f28dfcff,2020-07-20_16h35.32.271,fisher_task,2020.1.3,Win32,60,0.150925941,-0.364814828,1,0,0,2.499815,scale,,,,,,0.21373507,0.173205081,0.326485712,0.264575131,stimuli/lakes/302012_left.png,stimuli/lakes/302012_right.png,,,,0,89,89,12,1,,,,,
,,,,,,$5dee93e2bc4b5c53f28dfcff,2020-07-20_16h35.32.271,fisher_task,2020.1.3,Win32,60,-0.155555488,-0.397222236,1,0,0,1.94974,scale,,,,,,0.326485712,0.264575131,0.21373507,0.173205081,stimuli/lakes/7070104_left.png,stimuli/lakes/7070104_right.png,,,,0,90,90,104,1,,,,,
,,,,,,$5dee93e2bc4b5c53f28dfcff,2020-07-20_16h35.32.271,fisher_task,2020.1.3,Win32,60,0.068518533,-0.26851853,1,0,0,1.683135,scale,,,,,,0.302267034,0.244948974,0.2468,0.2,stimuli/lakes/602018_left.png,stimuli/lakes/602018_right.png,,,,0,91,91,18,1,,,,,
,,,,,,$5dee93e2bc4b5c53f28dfcff,2020-07-20_16h35.32.271,fisher_task,2020.1.3,Win32,60,0.150925941,-0.447222236,1,0,0,0.899825,scale,,,,,,0.1234,0.1,0.3702,0.3,stimuli/lakes/103023_left.png,stimuli/lakes/103023_right.png,,,,0,92,92,23,1,,,,,
,,,,,,$5dee93e2bc4b5c53f28dfcff,2020-07-20_16h35.32.271,fisher_task,2020.1.3,Win32,60,-0.142592581,-0.435185199,1,0,0,1.29982,scale,,,,,,0.349027907,0.282842712,0.174513954,0.141421356,stimuli/lakes/806078_left.png,stimuli/lakes/806078_right.png,,,,0,93,93,78,1,,,,,
,,,,,,$5dee93e2bc4b5c53f28dfcff,2020-07-20_16h35.32.271,fisher_task,2020.1.3,Win32,60,-0.130555544,-0.365740754,1,0,0,1.36648,scale,,,,,,0.2468,0.2,0.302267034,0.244948974,stimuli/lakes/407092_left.png,stimuli/lakes/407092_right.png,,,,0,94,94,92,1,,,,,
,,,,,,$5dee93e2bc4b5c53f28dfcff,2020-07-20_16h35.32.271,fisher_task,2020.1.3,Win32,60,-0.130555544,-0.365740754,1,0,0,1.03314,scale,,,,,,0.302267034,0.244948974,0.2468,0.2,stimuli/lakes/607094_left.png,stimuli/lakes/607094_right.png,,,,0,95,95,94,1,,,,,
,,,,,,$5dee93e2bc4b5c53f28dfcff,2020-07-20_16h35.32.271,fisher_task,2020.1.3,Win32,60,0.077777792,-0.278703715,1,0,0,1.44981,scale,,,,,,0.326485712,0.264575131,0.21373507,0.173205081,stimuli/lakes/70107_left.png,stimuli/lakes/70107_right.png,,,,0,96,96,7,1,,,,,
,,,,,,$5dee93e2bc4b5c53f28dfcff,2020-07-20_16h35.32.271,fisher_task,2020.1.3,Win32,60,-0.148148137,-0.401851865,1,0,0,2.06645,scale,,,,,,0.349027907,0.282842712,0.174513954,0.141421356,stimuli/lakes/807096_left.png,stimuli/lakes/807096_right.png,,,,0,97,97,96,1,,,,,
,,,,,,$5dee93e2bc4b5c53f28dfcff,2020-07-20_16h35.32.271,fisher_task,2020.1.3,Win32,60,-0.151851841,-0.433333347,1,0,0,1.33314,scale,,,,,,0.349027907,0.282842712,0.174513954,0.141421356,stimuli/lakes/8080118_left.png,stimuli/lakes/8080118_right.png,,,,0,98,98,118,1,,,,,
,,,,,,$5dee93e2bc4b5c53f28dfcff,2020-07-20_16h35.32.271,fisher_task,2020.1.3,Win32,60,0.078703718,-0.279629698,1,0,0,2.21711,scale,,,,,,0.275930788,0.223606798,0.275930788,0.223606798,stimuli/lakes/504045_left.png,stimuli/lakes/504045_right.png,,,,0,99,99,45,1,,,,,
,,,,,,$5dee93e2bc4b5c53f28dfcff,2020-07-20_16h35.32.271,fisher_task,2020.1.3,Win32,60,-0.095370302,-0.293518587,1,0,0,2.2664,scale,,,,,,0.1234,0.1,0.3702,0.3,stimuli/lakes/107089_left.png,stimuli/lakes/107089_right.png,,,,0,100,100,89,1,,,,,
,,,,,,$5dee93e2bc4b5c53f28dfcff,2020-07-20_16h35.32.271,fisher_task,2020.1.3,Win32,60,-0.104629561,-0.278703715,1,0,0,3.26651,scale,,,,,,0.2468,0.2,0.302267034,0.244948974,stimuli/lakes/406074_left.png,stimuli/lakes/406074_right.png,,,,0,101,101,74,1,,,,,
,,,,,,$5dee93e2bc4b5c53f28dfcff,2020-07-20_16h35.32.271,fisher_task,2020.1.3,Win32,60,-0.10648147,-0.287962975,1,0,0,1.499805,scale,,,,,,0.1234,0.1,0.3702,0.3,stimuli/lakes/1080107_left.png,stimuli/lakes/1080107_right.png,,,,0,102,102,107,1,,,,,
,,,,,,$5dee93e2bc4b5c53f28dfcff,2020-07-20_16h35.32.271,fisher_task,2020.1.3,Win32,60,-0.129629618,-0.335185254,1,0,0,2.566385,scale,,,,,,0.3702,0.3,0.1234,0.1,stimuli/lakes/904049_left.png,stimuli/lakes/904049_right.png,,,,0,103,103,49,1,,,,,
,,,,,,$5dee93e2bc4b5c53f28dfcff,2020-07-20_16h35.32.271,fisher_task,2020.1.3,Win32,60,-0.144444433,-0.411111125,0,0,1,0.750385,scale,,,,,,0.302267034,0.244948974,0.2468,0.2,stimuli/lakes/6090126_left.png,stimuli/lakes/6090126_right.png,,,,0,104,104,126,1,,,,,
,,,,,,$5dee93e2bc4b5c53f28dfcff,2020-07-20_16h35.32.271,fisher_task,2020.1.3,Win32,60,0.147222238,-0.433333347,1,0,0,1.8998,scale,,,,,,0.174513954,0.141421356,0.349027907,0.282842712,stimuli/lakes/203024_left.png,stimuli/lakes/203024_right.png,,,,0,105,105,24,1,,,,,
,,,,,,$5dee93e2bc4b5c53f28dfcff,2020-07-20_16h35.32.271,fisher_task,2020.1.3,Win32,60,0.099074089,-0.295370382,1,0,0,1.23316,scale,,,,,,0.1234,0.1,0.3702,0.3,stimuli/lakes/106080_left.png,stimuli/lakes/106080_right.png,,,,0,106,106,80,1,,,,,
,,,,,,$5dee93e2bc4b5c53f28dfcff,2020-07-20_16h35.32.271,fisher_task,2020.1.3,Win32,60,-0.103703692,-0.318518531,1,0,0,1.166375,scale,,,,,,0.302267034,0.244948974,0.2468,0.2,stimuli/lakes/606085_left.png,stimuli/lakes/606085_right.png,,,,0,107,107,85,1,,,,,
,,,,,,$5dee93e2bc4b5c53f28dfcff,2020-07-20_16h35.32.271,fisher_task,2020.1.3,Win32,60,0.121296311,-0.321296365,1,0,0,0.949805,scale,,,,,,0.1234,0.1,0.3702,0.3,stimuli/lakes/104041_left.png,stimuli/lakes/104041_right.png,,,,0,108,108,41,1,,,,,
,,,,,,$5dee93e2bc4b5c53f28dfcff,2020-07-20_16h35.32.271,fisher_task,2020.1.3,Win32,60,-0.117592581,-0.337962975,1,0,0,0.9167,scale,,,,,,0.302267034,0.244948974,0.2468,0.2,stimuli/lakes/605065_left.png,stimuli/lakes/605065_right.png,,,,0,109,109,65,1,,,,,
,,,,,,$5dee93e2bc4b5c53f28dfcff,2020-07-20_16h35.32.271,fisher_task,2020.1.3,Win32,60,-0.063888877,-0.26851853,1,0,0,1.59976,scale,,,,,,0.21373507,0.173205081,0.326485712,0.264575131,stimuli/lakes/306082_left.png,stimuli/lakes/306082_right.png,,,space,0,110,110,82,1,1.354435,,,,
,,,,,,$5dee93e2bc4b5c53f28dfcff,2020-07-20_16h35.32.271,fisher_task,2020.1.3,Win32,60,-0.077777766,-0.257407419,1,0,0,0.766515,scale,,,,,,0.326485712,0.264575131,0.21373507,0.173205081,stimuli/lakes/706086_left.png,stimuli/lakes/706086_right.png,,,,0,111,111,86,1,,,,,
,,,,,,$5dee93e2bc4b5c53f28dfcff,2020-07-20_16h35.32.271,fisher_task,2020.1.3,Win32,60,0.107407422,-0.319444457,1,0,0,0.766575,scale,,,,,,0.174513954,0.141421356,0.349027907,0.282842712,stimuli/lakes/204042_left.png,stimuli/lakes/204042_right.png,,,,0,112,112,42,1,,,,,
,,,,,,$5dee93e2bc4b5c53f28dfcff,2020-07-20_16h35.32.271,fisher_task,2020.1.3,Win32,60,0.142592608,-0.432407478,1,0,0,0.916465,scale,,,,,,0.275930788,0.223606798,0.275930788,0.223606798,stimuli/lakes/50104_left.png,stimuli/lakes/50104_right.png,,,,0,113,113,4,1,,,,,
,,,,,,$5dee93e2bc4b5c53f28dfcff,2020-07-20_16h35.32.271,fisher_task,2020.1.3,Win32,60,-0.1611111,-0.39537044,1,0,0,1.26716,scale,,,,,,0.3702,0.3,0.1234,0.1,stimuli/lakes/907097_left.png,stimuli/lakes/907097_right.png,,,,0,114,114,97,1,,,,,
,,,,,,$5dee93e2bc4b5c53f28dfcff,2020-07-20_16h35.32.271,fisher_task,2020.1.3,Win32,60,-0.14074073,-0.399074087,1,0,0,1.199725,scale,,,,,,0.302267034,0.244948974,0.2468,0.2,stimuli/lakes/6080115_left.png,stimuli/lakes/6080115_right.png,,,,0,115,115,115,1,,,,,
,,,,,,$5dee93e2bc4b5c53f28dfcff,2020-07-20_16h35.32.271,fisher_task,2020.1.3,Win32,60,0.087037052,-0.291666678,1,0,0,1.64998,scale,,,,,,0.2468,0.2,0.302267034,0.244948974,stimuli/lakes/404053_left.png,stimuli/lakes/404053_right.png,,,,0,116,116,53,1,,,,,
,,,,,,$5dee93e2bc4b5c53f28dfcff,2020-07-20_16h35.32.271,fisher_task,2020.1.3,Win32,60,0.137037052,-0.412037051,1,0,0,1.315725,scale,,,,,,0.21373507,0.173205081,0.326485712,0.264575131,stimuli/lakes/30101_left.png,stimuli/lakes/30101_right.png,,,,0,117,117,1,1,,,,,
,,,,,,$5dee93e2bc4b5c53f28dfcff,2020-07-20_16h35.32.271,fisher_task,2020.1.3,Win32,60,-0.099999932,-0.350925939,1,0,0,3.04976,scale,,,,,,0.21373507,0.173205081,0.326485712,0.264575131,stimuli/lakes/3090121_left.png,stimuli/lakes/3090121_right.png,,,,0,118,118,121,1,,,,,
,,,,,,$5dee93e2bc4b5c53f28dfcff,2020-07-20_16h35.32.271,fisher_task,2020.1.3,Win32,60,-0.14074073,-0.39629631,1,0,0,2.883095,scale,,,,,,0.275930788,0.223606798,0.275930788,0.223606798,stimuli/lakes/5080113_left.png,stimuli/lakes/5080113_right.png,,,,0,119,119,113,1,,,,,
,,,,,,$5dee93e2bc4b5c53f28dfcff,2020-07-20_16h35.32.271,fisher_task,2020.1.3,Win32,60,0.143518534,-0.365740754,1,0,0,1.39982,scale,,,,,,0.174513954,0.141421356,0.349027907,0.282842712,stimuli/lakes/204051_left.png,stimuli/lakes/204051_right.png,,,,0,120,120,51,1,,,,,
,,,,,,$5dee93e2bc4b5c53f28dfcff,2020-07-20_16h35.32.271,fisher_task,2020.1.3,Win32,60,0.143518534,-0.365740754,1,0,0,2.06701,scale,,,,,,0.2468,0.2,0.302267034,0.244948974,stimuli/lakes/40103_left.png,stimuli/lakes/40103_right.png,,,,0,121,121,3,1,,,,,
,,,,,,$5dee93e2bc4b5c53f28dfcff,2020-07-20_16h35.32.271,fisher_task,2020.1.3,Win32,60,0.121296311,-0.318518531,1,0,0,2.18234,scale,,,,,,0.21373507,0.173205081,0.326485712,0.264575131,stimuli/lakes/305062_left.png,stimuli/lakes/305062_right.png,,,,0,122,122,62,1,,,,,
,,,,,,$5dee93e2bc4b5c53f28dfcff,2020-07-20_16h35.32.271,fisher_task,2020.1.3,Win32,60,-0.1611111,-0.397222236,1,0,0,1.083155,scale,,,,,,0.349027907,0.282842712,0.174513954,0.141421356,stimuli/lakes/8070105_left.png,stimuli/lakes/8070105_right.png,,,,0,123,123,105,1,,,,,
,,,,,,$5dee93e2bc4b5c53f28dfcff,2020-07-20_16h35.32.271,fisher_task,2020.1.3,Win32,60,0.138888904,-0.386111181,1,0,0,1.033165,scale,,,,,,0.1234,0.1,0.3702,0.3,stimuli/lakes/105059_left.png,stimuli/lakes/105059_right.png,,,,0,124,124,59,1,,,,,
,,,,,,$5dee93e2bc4b5c53f28dfcff,2020-07-20_16h35.32.271,fisher_task,2020.1.3,Win32,60,-0.133333322,-0.367592662,1,0,0,3.850235,scale,,,,,,0.1234,0.1,0.3702,0.3,stimuli/lakes/1090119_left.png,stimuli/lakes/1090119_right.png,,,,0,125,125,119,1,,,,,
,,,,,,$5dee93e2bc4b5c53f28dfcff,2020-07-20_16h35.32.271,fisher_task,2020.1.3,Win32,60,0.145370386,-0.365740754,1,0,0,1.683265,scale,,,,,,0.21373507,0.173205081,0.326485712,0.264575131,stimuli/lakes/30100_left.png,stimuli/lakes/30100_right.png,,,,0,126,126,0,1,,,,,
,,,,,,$5dee93e2bc4b5c53f28dfcff,2020-07-20_16h35.32.271,fisher_task,2020.1.3,Win32,60,-0.149074063,-0.4046297,1,0,0,1.116445,scale,,,,,,0.326485712,0.264575131,0.21373507,0.173205081,stimuli/lakes/707095_left.png,stimuli/lakes/707095_right.png,,,,0,127,127,95,1,,,,,
,,,,,,$5dee93e2bc4b5c53f28dfcff,2020-07-20_16h35.32.271,fisher_task,2020.1.3,Win32,60,0.16944446,-0.388888902,1,0,0,0.98297,scale,,,,,,0.174513954,0.141421356,0.349027907,0.282842712,stimuli/lakes/203033_left.png,stimuli/lakes/203033_right.png,,,,0,128,128,33,1,,,,,
,,,,,,$5dee93e2bc4b5c53f28dfcff,2020-07-20_16h35.32.271,fisher_task,2020.1.3,Win32,60,-0.098148136,-0.287037049,1,0,0,2.8997,scale,,,,,,0.174513954,0.141421356,0.349027907,0.282842712,stimuli/lakes/2090120_left.png,stimuli/lakes/2090120_right.png,,,,0,129,129,120,1,,,,,
,,,,,,$5dee93e2bc4b5c53f28dfcff,2020-07-20_16h35.32.271,fisher_task,2020.1.3,Win32,60,,,,,,,,,,,,,,,,,,,,,,,,,,,,space,7.31385,space,42.26582
