keySpace.keys,instructions.thisRepN,instructions.thisTrialN,instructions.thisN,instructions.thisIndex,instructions.ran,participant,date,expName,psychopyVersion,OS,frameRate,mouse.x,mouse.y,mouse.leftButton,mouse.midButton,mouse.rightButton,mouse.time,mouse.clicked_name,training.thisRepN,training.thisTrialN,training.thisN,training.thisIndex,training.ran,widthBasketLeft,heightBasketLeft,widthBasketRight,heightBasketRight,leftLake,rightLake,space2.keys,space2.rt,space1.keys,trials.thisRepN,trials.thisTrialN,trials.thisN,trials.thisIndex,trials.ran,space1.rt,finalSpace1.keys,finalSpace1.rt,finalSpace2.keys,finalSpace2.rt
,0,0,0,0,1,$5e7f88a70e227a03fedd7378,2020-07-20_15h34.25.186,fisher_task,2020.1.3,Win32,60,,,,,,,,,,,,,,,,,,,,,,,,,,,,,,,
,,,,,,$5e7f88a70e227a03fedd7378,2020-07-20_15h34.25.186,fisher_task,2020.1.3,Win32,60,0.186111111,-0.406481481,1,0,0,4.91474,scale,0,0,0,0,1,0.275930788,0.223606798,0.275930788,0.223606798,stimuli/training/20_left.png,stimuli/training/20_right.png,,,,,,,,,,,,,
,,,,,,$5e7f88a70e227a03fedd7378,2020-07-20_15h34.25.186,fisher_task,2020.1.3,Win32,60,-0.151851852,-0.359259259,1,0,0,4.815215,scale,0,1,1,1,1,0.275930788,0.223606798,0.275930788,0.223606798,stimuli/training/80_left.png,stimuli/training/80_right.png,,,,,,,,,,,,,
,,,,,,$5e7f88a70e227a03fedd7378,2020-07-20_15h34.25.186,fisher_task,2020.1.3,Win32,60,0.157407407,-0.373148148,1,0,0,2.86596,scale,0,2,2,2,1,0.174513954,0.141421356,0.349027907,0.282842712,stimuli/training/50_left.png,stimuli/training/50_right.png,,,,,,,,,,,,,
,,,,,,$5e7f88a70e227a03fedd7378,2020-07-20_15h34.25.186,fisher_task,2020.1.3,Win32,60,0.000925926,-0.272222222,1,0,0,2.94857,scale,0,3,3,3,1,0.349027907,0.282842712,0.174513954,0.141421356,stimuli/training/50_left.png,stimuli/training/50_right.png,,,,,,,,,,,,,
,,,,,,$5e7f88a70e227a03fedd7378,2020-07-20_15h34.25.186,fisher_task,2020.1.3,Win32,60,0.15,-0.387962963,1,0,0,1.68227,scale,0,4,4,4,1,0.275930788,0.223606798,0.275930788,0.223606798,stimuli/training/50_left.png,stimuli/training/50_right.png,,,,,,,,,,,,,
,,,,,,$5e7f88a70e227a03fedd7378,2020-07-20_15h34.25.186,fisher_task,2020.1.3,Win32,60,0.174074074,-0.423148148,1,0,0,1.610295,scale,0,5,5,5,1,0.174513954,0.141421356,0.349027907,0.282842712,stimuli/training/20_left.png,stimuli/training/20_right.png,,,,,,,,,,,,,
,,,,,,$5e7f88a70e227a03fedd7378,2020-07-20_15h34.25.186,fisher_task,2020.1.3,Win32,60,-0.175925926,-0.424074074,1,0,0,1.46568,scale,0,6,6,6,1,0.349027907,0.282842712,0.174513954,0.141421356,stimuli/training/80_left.png,stimuli/training/80_right.png,,,,,,,,,,,,,
,,,,,,$5e7f88a70e227a03fedd7378,2020-07-20_15h34.25.186,fisher_task,2020.1.3,Win32,60,0.15462963,-0.381481481,1,0,0,1.649895,scale,0,7,7,7,1,0.1234,0.1,0.3702,0.3,stimuli/training/30_left.png,stimuli/training/30_right.png,,,,,,,,,,,,,
,,,,,,$5e7f88a70e227a03fedd7378,2020-07-20_15h34.25.186,fisher_task,2020.1.3,Win32,60,-0.160185185,-0.407407407,1,0,0,1.282695,scale,0,8,8,8,1,0.3702,0.3,0.1234,0.1,stimuli/training/70_left.png,stimuli/training/70_right.png,,,,,,,,,,,,,
,,,,,,$5e7f88a70e227a03fedd7378,2020-07-20_15h34.25.186,fisher_task,2020.1.3,Win32,60,-0.153703704,-0.378703704,1,0,0,1.31592,scale,0,9,9,9,1,0.326485712,0.264575131,0.21373507,0.173205081,stimuli/training/90_left.png,stimuli/training/90_right.png,,,,,,,,,,,,,
,,,,,,$5e7f88a70e227a03fedd7378,2020-07-20_15h34.25.186,fisher_task,2020.1.3,Win32,60,0.163888889,-0.381481481,1,0,0,0.84882,scale,0,10,10,10,1,0.21373507,0.173205081,0.326485712,0.264575131,stimuli/training/10_left.png,stimuli/training/10_right.png,,,,,,,,,,,,,
,,,,,,$5e7f88a70e227a03fedd7378,2020-07-20_15h34.25.186,fisher_task,2020.1.3,Win32,60,0.160185185,-0.39537037,1,0,0,1.149675,scale,,,,,,0.1234,0.1,0.3702,0.3,stimuli/lakes/103023_left.png,stimuli/lakes/103023_right.png,space,8.07794,,0,0,0,23,1,,,,,
,,,,,,$5e7f88a70e227a03fedd7378,2020-07-20_15h34.25.186,fisher_task,2020.1.3,Win32,60,-0.14537037,-0.317592593,1,0,0,2.581075,scale,,,,,,0.3702,0.3,0.1234,0.1,stimuli/lakes/905070_left.png,stimuli/lakes/905070_right.png,,,,0,1,1,70,1,,,,,
,,,,,,$5e7f88a70e227a03fedd7378,2020-07-20_15h34.25.186,fisher_task,2020.1.3,Win32,60,-0.096296296,-0.272222222,1,0,0,2.866225,scale,,,,,,0.2468,0.2,0.302267034,0.244948974,stimuli/lakes/406083_left.png,stimuli/lakes/406083_right.png,,,,0,2,2,83,1,,,,,
,,,,,,$5e7f88a70e227a03fedd7378,2020-07-20_15h34.25.186,fisher_task,2020.1.3,Win32,60,0.064814815,-0.263888889,1,0,0,4.048565,scale,,,,,,0.326485712,0.264575131,0.21373507,0.173205081,stimuli/lakes/702020_left.png,stimuli/lakes/702020_right.png,,,,0,3,3,20,1,,,,,
,,,,,,$5e7f88a70e227a03fedd7378,2020-07-20_15h34.25.186,fisher_task,2020.1.3,Win32,60,0.07037037,-0.272222222,1,0,0,1.46464,scale,,,,,,0.3702,0.3,0.1234,0.1,stimuli/lakes/904049_left.png,stimuli/lakes/904049_right.png,,,,0,4,4,49,1,,,,,
,,,,,,$5e7f88a70e227a03fedd7378,2020-07-20_15h34.25.186,fisher_task,2020.1.3,Win32,60,0.135185185,-0.325925926,1,0,0,1.49957,scale,,,,,,0.302267034,0.244948974,0.2468,0.2,stimuli/lakes/604055_left.png,stimuli/lakes/604055_right.png,,,,0,5,5,55,1,,,,,
,,,,,,$5e7f88a70e227a03fedd7378,2020-07-20_15h34.25.186,fisher_task,2020.1.3,Win32,60,-0.115740741,-0.308333333,1,0,0,1.45064,scale,,,,,,0.275930788,0.223606798,0.275930788,0.223606798,stimuli/lakes/506084_left.png,stimuli/lakes/506084_right.png,,,,0,6,6,84,1,,,,,
,,,,,,$5e7f88a70e227a03fedd7378,2020-07-20_15h34.25.186,fisher_task,2020.1.3,Win32,60,-0.15462963,-0.37037037,1,0,0,1.181445,scale,,,,,,0.3702,0.3,0.1234,0.1,stimuli/lakes/906079_left.png,stimuli/lakes/906079_right.png,,,,0,7,7,79,1,,,,,
,,,,,,$5e7f88a70e227a03fedd7378,2020-07-20_15h34.25.186,fisher_task,2020.1.3,Win32,60,0.14537037,-0.355555556,1,0,0,1.36496,scale,,,,,,0.1234,0.1,0.3702,0.3,stimuli/lakes/104041_left.png,stimuli/lakes/104041_right.png,,,,0,8,8,41,1,,,,,
,,,,,,$5e7f88a70e227a03fedd7378,2020-07-20_15h34.25.186,fisher_task,2020.1.3,Win32,60,0.1,-0.284259259,1,0,0,2.18298,scale,,,,,,0.1234,0.1,0.3702,0.3,stimuli/lakes/106071_left.png,stimuli/lakes/106071_right.png,,,,0,9,9,71,1,,,,,
,,,,,,$5e7f88a70e227a03fedd7378,2020-07-20_15h34.25.186,fisher_task,2020.1.3,Win32,60,-0.149074074,-0.382407407,1,0,0,1.93179,scale,,,,,,0.349027907,0.282842712,0.174513954,0.141421356,stimuli/lakes/8070105_left.png,stimuli/lakes/8070105_right.png,,,,0,10,10,105,1,,,,,
,,,,,,$5e7f88a70e227a03fedd7378,2020-07-20_15h34.25.186,fisher_task,2020.1.3,Win32,60,-0.15462963,-0.382407407,1,0,0,2.39929,scale,,,,,,0.326485712,0.264575131,0.21373507,0.173205081,stimuli/lakes/705068_left.png,stimuli/lakes/705068_right.png,,,,0,11,11,68,1,,,,,
,,,,,,$5e7f88a70e227a03fedd7378,2020-07-20_15h34.25.186,fisher_task,2020.1.3,Win32,60,-0.175,-0.407407407,1,0,0,1.399185,scale,,,,,,0.3702,0.3,0.1234,0.1,stimuli/lakes/907097_left.png,stimuli/lakes/907097_right.png,,,,0,12,12,97,1,,,,,
,,,,,,$5e7f88a70e227a03fedd7378,2020-07-20_15h34.25.186,fisher_task,2020.1.3,Win32,60,-0.082407407,-0.267592593,1,0,0,1.565195,scale,,,,,,0.174513954,0.141421356,0.349027907,0.282842712,stimuli/lakes/207090_left.png,stimuli/lakes/207090_right.png,,,,0,13,13,90,1,,,,,
,,,,,,$5e7f88a70e227a03fedd7378,2020-07-20_15h34.25.186,fisher_task,2020.1.3,Win32,60,-0.126851852,-0.319444444,1,0,0,3.832145,scale,,,,,,0.174513954,0.141421356,0.349027907,0.282842712,stimuli/lakes/206081_left.png,stimuli/lakes/206081_right.png,,,,0,14,14,81,1,,,,,
,,,,,,$5e7f88a70e227a03fedd7378,2020-07-20_15h34.25.186,fisher_task,2020.1.3,Win32,60,-0.159259259,-0.409259259,1,0,0,1.06462,scale,,,,,,0.326485712,0.264575131,0.21373507,0.173205081,stimuli/lakes/7080117_left.png,stimuli/lakes/7080117_right.png,,,,0,15,15,117,1,,,,,
,,,,,,$5e7f88a70e227a03fedd7378,2020-07-20_15h34.25.186,fisher_task,2020.1.3,Win32,60,0.077777778,-0.268518519,1,0,0,2.133385,scale,,,,,,0.302267034,0.244948974,0.2468,0.2,stimuli/lakes/605065_left.png,stimuli/lakes/605065_right.png,,,,0,16,16,65,1,,,,,
,,,,,,$5e7f88a70e227a03fedd7378,2020-07-20_15h34.25.186,fisher_task,2020.1.3,Win32,60,-0.110185185,-0.280555556,1,0,0,1.98283,scale,,,,,,0.302267034,0.244948974,0.2468,0.2,stimuli/lakes/6070103_left.png,stimuli/lakes/6070103_right.png,,,,0,17,17,103,1,,,,,
,,,,,,$5e7f88a70e227a03fedd7378,2020-07-20_15h34.25.186,fisher_task,2020.1.3,Win32,60,-0.12962963,-0.27037037,1,0,0,2.048845,scale,,,,,,0.326485712,0.264575131,0.21373507,0.173205081,stimuli/lakes/7090129_left.png,stimuli/lakes/7090129_right.png,,,,0,18,18,129,1,,,,,
,,,,,,$5e7f88a70e227a03fedd7378,2020-07-20_15h34.25.186,fisher_task,2020.1.3,Win32,60,-0.071296296,-0.27037037,1,0,0,1.448995,scale,,,,,,0.1234,0.1,0.3702,0.3,stimuli/lakes/1090119_left.png,stimuli/lakes/1090119_right.png,,,,0,19,19,119,1,,,,,
,,,,,,$5e7f88a70e227a03fedd7378,2020-07-20_15h34.25.186,fisher_task,2020.1.3,Win32,60,0.160185185,-0.384259259,1,0,0,0.96666,scale,,,,,,0.2468,0.2,0.302267034,0.244948974,stimuli/lakes/40102_left.png,stimuli/lakes/40102_right.png,,,,0,20,20,2,1,,,,,
,,,,,,$5e7f88a70e227a03fedd7378,2020-07-20_15h34.25.186,fisher_task,2020.1.3,Win32,60,0.164814815,-0.368518519,1,0,0,1.898785,scale,,,,,,0.326485712,0.264575131,0.21373507,0.173205081,stimuli/lakes/704047_left.png,stimuli/lakes/704047_right.png,,,,0,21,21,47,1,,,,,
,,,,,,$5e7f88a70e227a03fedd7378,2020-07-20_15h34.25.186,fisher_task,2020.1.3,Win32,60,-0.163888889,-0.37037037,1,0,0,1.43182,scale,,,,,,0.326485712,0.264575131,0.21373507,0.173205081,stimuli/lakes/707095_left.png,stimuli/lakes/707095_right.png,,,space,0,22,22,95,1,186.537775,,,,
,,,,,,$5e7f88a70e227a03fedd7378,2020-07-20_15h34.25.186,fisher_task,2020.1.3,Win32,60,0.144444444,-0.369444444,1,0,0,1.21438,scale,,,,,,0.275930788,0.223606798,0.275930788,0.223606798,stimuli/lakes/504045_left.png,stimuli/lakes/504045_right.png,,,,0,23,23,45,1,,,,,
,,,,,,$5e7f88a70e227a03fedd7378,2020-07-20_15h34.25.186,fisher_task,2020.1.3,Win32,60,-0.085185185,-0.264814815,1,0,0,1.667025,scale,,,,,,0.21373507,0.173205081,0.326485712,0.264575131,stimuli/lakes/3090122_left.png,stimuli/lakes/3090122_right.png,,,,0,24,24,122,1,,,,,
,,,,,,$5e7f88a70e227a03fedd7378,2020-07-20_15h34.25.186,fisher_task,2020.1.3,Win32,60,0.103703704,-0.257407407,1,0,0,1.69735,scale,,,,,,0.3702,0.3,0.1234,0.1,stimuli/lakes/903040_left.png,stimuli/lakes/903040_right.png,,,,0,25,25,40,1,,,,,
,,,,,,$5e7f88a70e227a03fedd7378,2020-07-20_15h34.25.186,fisher_task,2020.1.3,Win32,60,-0.128703704,-0.312962963,1,0,0,1.181975,scale,,,,,,0.3702,0.3,0.1234,0.1,stimuli/lakes/906088_left.png,stimuli/lakes/906088_right.png,,,,0,26,26,88,1,,,,,
,,,,,,$5e7f88a70e227a03fedd7378,2020-07-20_15h34.25.186,fisher_task,2020.1.3,Win32,60,-0.098148148,-0.283333333,1,0,0,1.78265,scale,,,,,,0.2468,0.2,0.302267034,0.244948974,stimuli/lakes/4080112_left.png,stimuli/lakes/4080112_right.png,,,,0,27,27,112,1,,,,,
,,,,,,$5e7f88a70e227a03fedd7378,2020-07-20_15h34.25.186,fisher_task,2020.1.3,Win32,60,-0.089814815,-0.284259259,1,0,0,1.448835,scale,,,,,,0.2468,0.2,0.302267034,0.244948974,stimuli/lakes/4080111_left.png,stimuli/lakes/4080111_right.png,,,,0,28,28,111,1,,,,,
,,,,,,$5e7f88a70e227a03fedd7378,2020-07-20_15h34.25.186,fisher_task,2020.1.3,Win32,60,0.127777778,-0.326851852,1,0,0,1.3491,scale,,,,,,0.275930788,0.223606798,0.275930788,0.223606798,stimuli/lakes/503036_left.png,stimuli/lakes/503036_right.png,,,,0,29,29,36,1,,,,,
,,,,,,$5e7f88a70e227a03fedd7378,2020-07-20_15h34.25.186,fisher_task,2020.1.3,Win32,60,0.175,-0.387962963,1,0,0,0.9156,scale,,,,,,0.174513954,0.141421356,0.349027907,0.282842712,stimuli/lakes/203024_left.png,stimuli/lakes/203024_right.png,,,,0,30,30,24,1,,,,,
,,,,,,$5e7f88a70e227a03fedd7378,2020-07-20_15h34.25.186,fisher_task,2020.1.3,Win32,60,-0.112037037,-0.292592593,1,0,0,2.466345,scale,,,,,,0.21373507,0.173205081,0.326485712,0.264575131,stimuli/lakes/306082_left.png,stimuli/lakes/306082_right.png,,,,0,31,31,82,1,,,,,
,,,,,,$5e7f88a70e227a03fedd7378,2020-07-20_15h34.25.186,fisher_task,2020.1.3,Win32,60,0.137037037,-0.356481481,1,0,0,1.198565,scale,,,,,,0.2468,0.2,0.302267034,0.244948974,stimuli/lakes/405064_left.png,stimuli/lakes/405064_right.png,,,,0,32,32,64,1,,,,,
,,,,,,$5e7f88a70e227a03fedd7378,2020-07-20_15h34.25.186,fisher_task,2020.1.3,Win32,60,0.163888889,-0.364814815,1,0,0,1.34923,scale,,,,,,0.275930788,0.223606798,0.275930788,0.223606798,stimuli/lakes/502016_left.png,stimuli/lakes/502016_right.png,,,,0,33,33,16,1,,,,,
,,,,,,$5e7f88a70e227a03fedd7378,2020-07-20_15h34.25.186,fisher_task,2020.1.3,Win32,60,0.1,-0.289814815,1,0,0,0.998225,scale,,,,,,0.174513954,0.141421356,0.349027907,0.282842712,stimuli/lakes/207099_left.png,stimuli/lakes/207099_right.png,,,,0,34,34,99,1,,,,,
,,,,,,$5e7f88a70e227a03fedd7378,2020-07-20_15h34.25.186,fisher_task,2020.1.3,Win32,60,0.105555556,-0.277777778,1,0,0,2.264495,scale,,,,,,0.3702,0.3,0.1234,0.1,stimuli/lakes/902022_left.png,stimuli/lakes/902022_right.png,,,,0,35,35,22,1,,,,,
,,,,,,$5e7f88a70e227a03fedd7378,2020-07-20_15h34.25.186,fisher_task,2020.1.3,Win32,60,0.115740741,-0.299074074,1,0,0,1.09023,scale,,,,,,0.21373507,0.173205081,0.326485712,0.264575131,stimuli/lakes/30101_left.png,stimuli/lakes/30101_right.png,,,,0,36,36,1,1,,,,,
,,,,,,$5e7f88a70e227a03fedd7378,2020-07-20_15h34.25.186,fisher_task,2020.1.3,Win32,60,-0.083333333,-0.273148148,1,0,0,1.21633,scale,,,,,,0.174513954,0.141421356,0.349027907,0.282842712,stimuli/lakes/206072_left.png,stimuli/lakes/206072_right.png,,,,0,37,37,72,1,,,,,
,,,,,,$5e7f88a70e227a03fedd7378,2020-07-20_15h34.25.186,fisher_task,2020.1.3,Win32,60,0.107407407,-0.296296296,1,0,0,2.099055,scale,,,,,,0.21373507,0.173205081,0.326485712,0.264575131,stimuli/lakes/305061_left.png,stimuli/lakes/305061_right.png,,,,0,38,38,61,1,,,,,
,,,,,,$5e7f88a70e227a03fedd7378,2020-07-20_15h34.25.186,fisher_task,2020.1.3,Win32,60,0.131481481,-0.306481481,1,0,0,1.148395,scale,,,,,,0.21373507,0.173205081,0.326485712,0.264575131,stimuli/lakes/303025_left.png,stimuli/lakes/303025_right.png,,,,0,39,39,25,1,,,,,
,,,,,,$5e7f88a70e227a03fedd7378,2020-07-20_15h34.25.186,fisher_task,2020.1.3,Win32,60,0.175925926,-0.394444444,1,0,0,1.08229,scale,,,,,,0.2468,0.2,0.302267034,0.244948974,stimuli/lakes/403035_left.png,stimuli/lakes/403035_right.png,,,,0,40,40,35,1,,,,,
,,,,,,$5e7f88a70e227a03fedd7378,2020-07-20_15h34.25.186,fisher_task,2020.1.3,Win32,60,-0.137037037,-0.328703704,1,0,0,1.116595,scale,,,,,,0.275930788,0.223606798,0.275930788,0.223606798,stimuli/lakes/5080113_left.png,stimuli/lakes/5080113_right.png,,,,0,41,41,113,1,,,,,
,,,,,,$5e7f88a70e227a03fedd7378,2020-07-20_15h34.25.186,fisher_task,2020.1.3,Win32,60,0.097222222,-0.262962963,1,0,0,2.032265,scale,,,,,,0.302267034,0.244948974,0.2468,0.2,stimuli/lakes/604046_left.png,stimuli/lakes/604046_right.png,,,,0,42,42,46,1,,,,,
,,,,,,$5e7f88a70e227a03fedd7378,2020-07-20_15h34.25.186,fisher_task,2020.1.3,Win32,60,-0.12962963,-0.296296296,1,0,0,4.748905,scale,,,,,,0.21373507,0.173205081,0.326485712,0.264575131,stimuli/lakes/307091_left.png,stimuli/lakes/307091_right.png,,,,0,43,43,91,1,,,,,
,,,,,,$5e7f88a70e227a03fedd7378,2020-07-20_15h34.25.186,fisher_task,2020.1.3,Win32,60,-0.132407407,-0.307407407,1,0,0,1.76526,scale,,,,,,0.302267034,0.244948974,0.2468,0.2,stimuli/lakes/607094_left.png,stimuli/lakes/607094_right.png,,,space,0,44,44,94,1,3.588235,,,,
,,,,,,$5e7f88a70e227a03fedd7378,2020-07-20_15h34.25.186,fisher_task,2020.1.3,Win32,60,0.098148148,-0.300925926,1,0,0,1.782405,scale,,,,,,0.349027907,0.282842712,0.174513954,0.141421356,stimuli/lakes/80109_left.png,stimuli/lakes/80109_right.png,,,,0,45,45,9,1,,,,,
,,,,,,$5e7f88a70e227a03fedd7378,2020-07-20_15h34.25.186,fisher_task,2020.1.3,Win32,60,-0.098148148,-0.314814815,1,0,0,1.500575,scale,,,,,,0.302267034,0.244948974,0.2468,0.2,stimuli/lakes/6090127_left.png,stimuli/lakes/6090127_right.png,,,,0,46,46,127,1,,,,,
,,,,,,$5e7f88a70e227a03fedd7378,2020-07-20_15h34.25.186,fisher_task,2020.1.3,Win32,60,0.148148148,-0.325925926,1,0,0,0.931865,scale,,,,,,0.1234,0.1,0.3702,0.3,stimuli/lakes/104050_left.png,stimuli/lakes/104050_right.png,,,,0,47,47,50,1,,,,,
,,,,,,$5e7f88a70e227a03fedd7378,2020-07-20_15h34.25.186,fisher_task,2020.1.3,Win32,60,-0.09537037,-0.290740741,1,0,0,1.998985,scale,,,,,,0.349027907,0.282842712,0.174513954,0.141421356,stimuli/lakes/804057_left.png,stimuli/lakes/804057_right.png,,,,0,48,48,57,1,,,,,
,,,,,,$5e7f88a70e227a03fedd7378,2020-07-20_15h34.25.186,fisher_task,2020.1.3,Win32,60,-0.136111111,-0.353703704,1,0,0,1.282715,scale,,,,,,0.349027907,0.282842712,0.174513954,0.141421356,stimuli/lakes/806078_left.png,stimuli/lakes/806078_right.png,,,,0,49,49,78,1,,,,,
,,,,,,$5e7f88a70e227a03fedd7378,2020-07-20_15h34.25.186,fisher_task,2020.1.3,Win32,60,0.12037037,-0.285185185,1,0,0,1.64936,scale,,,,,,0.349027907,0.282842712,0.174513954,0.141421356,stimuli/lakes/805069_left.png,stimuli/lakes/805069_right.png,,,,0,50,50,69,1,,,,,
,,,,,,$5e7f88a70e227a03fedd7378,2020-07-20_15h34.25.186,fisher_task,2020.1.3,Win32,60,-0.131481481,-0.328703704,1,0,0,2.115035,scale,,,,,,0.21373507,0.173205081,0.326485712,0.264575131,stimuli/lakes/3090121_left.png,stimuli/lakes/3090121_right.png,,,,0,51,51,121,1,,,,,
,,,,,,$5e7f88a70e227a03fedd7378,2020-07-20_15h34.25.186,fisher_task,2020.1.3,Win32,60,0.115740741,-0.317592593,1,0,0,1.34767,scale,,,,,,0.275930788,0.223606798,0.275930788,0.223606798,stimuli/lakes/50104_left.png,stimuli/lakes/50104_right.png,,,,0,52,52,4,1,,,,,
,,,,,,$5e7f88a70e227a03fedd7378,2020-07-20_15h34.25.186,fisher_task,2020.1.3,Win32,60,0.122222222,-0.296296296,1,0,0,0.966495,scale,,,,,,0.275930788,0.223606798,0.275930788,0.223606798,stimuli/lakes/503027_left.png,stimuli/lakes/503027_right.png,,,,0,53,53,27,1,,,,,
,,,,,,$5e7f88a70e227a03fedd7378,2020-07-20_15h34.25.186,fisher_task,2020.1.3,Win32,60,0.123148148,-0.315740741,1,0,0,1.73277,scale,,,,,,0.21373507,0.173205081,0.326485712,0.264575131,stimuli/lakes/305062_left.png,stimuli/lakes/305062_right.png,,,,0,54,54,62,1,,,,,
,,,,,,$5e7f88a70e227a03fedd7378,2020-07-20_15h34.25.186,fisher_task,2020.1.3,Win32,60,0.167592593,-0.390740741,1,0,0,1.69886,scale,,,,,,0.3702,0.3,0.1234,0.1,stimuli/lakes/901010_left.png,stimuli/lakes/901010_right.png,,,,0,55,55,10,1,,,,,
,,,,,,$5e7f88a70e227a03fedd7378,2020-07-20_15h34.25.186,fisher_task,2020.1.3,Win32,60,0.164814815,-0.40462963,1,0,0,1.25021,scale,,,,,,0.21373507,0.173205081,0.326485712,0.264575131,stimuli/lakes/304052_left.png,stimuli/lakes/304052_right.png,,,,0,56,56,52,1,,,,,
,,,,,,$5e7f88a70e227a03fedd7378,2020-07-20_15h34.25.186,fisher_task,2020.1.3,Win32,60,0.119444444,-0.290740741,1,0,0,2.399595,scale,,,,,,0.3702,0.3,0.1234,0.1,stimuli/lakes/903031_left.png,stimuli/lakes/903031_right.png,,,,0,57,57,31,1,,,,,
,,,,,,$5e7f88a70e227a03fedd7378,2020-07-20_15h34.25.186,fisher_task,2020.1.3,Win32,60,-0.101851852,-0.299074074,1,0,0,0.98128,scale,,,,,,0.349027907,0.282842712,0.174513954,0.141421356,stimuli/lakes/806087_left.png,stimuli/lakes/806087_right.png,,,,0,58,58,87,1,,,,,
,,,,,,$5e7f88a70e227a03fedd7378,2020-07-20_15h34.25.186,fisher_task,2020.1.3,Win32,60,0.136111111,-0.321296296,1,0,0,1.1652,scale,,,,,,0.2468,0.2,0.302267034,0.244948974,stimuli/lakes/402014_left.png,stimuli/lakes/402014_right.png,,,,0,59,59,14,1,,,,,
,,,,,,$5e7f88a70e227a03fedd7378,2020-07-20_15h34.25.186,fisher_task,2020.1.3,Win32,60,0.127777778,-0.313888889,1,0,0,1.232365,scale,,,,,,0.302267034,0.244948974,0.2468,0.2,stimuli/lakes/602017_left.png,stimuli/lakes/602017_right.png,,,,0,60,60,17,1,,,,,
,,,,,,$5e7f88a70e227a03fedd7378,2020-07-20_15h34.25.186,fisher_task,2020.1.3,Win32,60,-0.116666667,-0.308333333,1,0,0,1.36662,scale,,,,,,0.275930788,0.223606798,0.275930788,0.223606798,stimuli/lakes/5090125_left.png,stimuli/lakes/5090125_right.png,,,,0,61,61,125,1,,,,,
,,,,,,$5e7f88a70e227a03fedd7378,2020-07-20_15h34.25.186,fisher_task,2020.1.3,Win32,60,0.131481481,-0.312962963,1,0,0,1.04907,scale,,,,,,0.21373507,0.173205081,0.326485712,0.264575131,stimuli/lakes/304043_left.png,stimuli/lakes/304043_right.png,,,,0,62,62,43,1,,,,,
,,,,,,$5e7f88a70e227a03fedd7378,2020-07-20_15h34.25.186,fisher_task,2020.1.3,Win32,60,0.17037037,-0.360185185,1,0,0,0.89954,scale,,,,,,0.21373507,0.173205081,0.326485712,0.264575131,stimuli/lakes/302013_left.png,stimuli/lakes/302013_right.png,,,,0,63,63,13,1,,,,,
,,,,,,$5e7f88a70e227a03fedd7378,2020-07-20_15h34.25.186,fisher_task,2020.1.3,Win32,60,-0.097222222,-0.303703704,1,0,0,1.39866,scale,,,,,,0.2468,0.2,0.302267034,0.244948974,stimuli/lakes/407092_left.png,stimuli/lakes/407092_right.png,,,,0,64,64,92,1,,,,,
,,,,,,$5e7f88a70e227a03fedd7378,2020-07-20_15h34.25.186,fisher_task,2020.1.3,Win32,60,-0.100925926,-0.292592593,1,0,0,2.832805,scale,,,,,,0.1234,0.1,0.3702,0.3,stimuli/lakes/1080107_left.png,stimuli/lakes/1080107_right.png,,,,0,65,65,107,1,,,,,
,,,,,,$5e7f88a70e227a03fedd7378,2020-07-20_15h34.25.186,fisher_task,2020.1.3,Win32,60,0.164814815,-0.381481481,1,0,0,1.215755,scale,,,,,,0.2468,0.2,0.302267034,0.244948974,stimuli/lakes/40103_left.png,stimuli/lakes/40103_right.png,,,space,0,66,66,3,1,402.00981,,,,
,,,,,,$5e7f88a70e227a03fedd7378,2020-07-20_15h34.25.186,fisher_task,2020.1.3,Win32,60,0.107407407,-0.286111111,1,0,0,1.414805,scale,,,,,,0.302267034,0.244948974,0.2468,0.2,stimuli/lakes/60105_left.png,stimuli/lakes/60105_right.png,,,,0,67,67,5,1,,,,,
,,,,,,$5e7f88a70e227a03fedd7378,2020-07-20_15h34.25.186,fisher_task,2020.1.3,Win32,60,0.137037037,-0.299074074,1,0,0,1.0992,scale,,,,,,0.349027907,0.282842712,0.174513954,0.141421356,stimuli/lakes/803039_left.png,stimuli/lakes/803039_right.png,,,,0,68,68,39,1,,,,,
,,,,,,$5e7f88a70e227a03fedd7378,2020-07-20_15h34.25.186,fisher_task,2020.1.3,Win32,60,-0.162962963,-0.388888889,1,0,0,1.48332,scale,,,,,,0.302267034,0.244948974,0.2468,0.2,stimuli/lakes/6080114_left.png,stimuli/lakes/6080114_right.png,,,,0,69,69,114,1,,,,,
,,,,,,$5e7f88a70e227a03fedd7378,2020-07-20_15h34.25.186,fisher_task,2020.1.3,Win32,60,0.150925926,-0.339814815,1,0,0,1.91491,scale,,,,,,0.275930788,0.223606798,0.275930788,0.223606798,stimuli/lakes/504054_left.png,stimuli/lakes/504054_right.png,,,,0,70,70,54,1,,,,,
,,,,,,$5e7f88a70e227a03fedd7378,2020-07-20_15h34.25.186,fisher_task,2020.1.3,Win32,60,0.135185185,-0.282407407,1,0,0,1.68313,scale,,,,,,0.3702,0.3,0.1234,0.1,stimuli/lakes/904058_left.png,stimuli/lakes/904058_right.png,,,,0,71,71,58,1,,,,,
,,,,,,$5e7f88a70e227a03fedd7378,2020-07-20_15h34.25.186,fisher_task,2020.1.3,Win32,60,0.167592593,-0.37037037,1,0,0,1.565625,scale,,,,,,0.174513954,0.141421356,0.349027907,0.282842712,stimuli/lakes/203033_left.png,stimuli/lakes/203033_right.png,,,,0,72,72,33,1,,,,,
,,,,,,$5e7f88a70e227a03fedd7378,2020-07-20_15h34.25.186,fisher_task,2020.1.3,Win32,60,-0.163888889,-0.39537037,1,0,0,1.13203,scale,,,,,,0.302267034,0.244948974,0.2468,0.2,stimuli/lakes/6090126_left.png,stimuli/lakes/6090126_right.png,,,,0,73,73,126,1,,,,,
,,,,,,$5e7f88a70e227a03fedd7378,2020-07-20_15h34.25.186,fisher_task,2020.1.3,Win32,60,-0.174074074,-0.42037037,1,0,0,0.798785,scale,,,,,,0.349027907,0.282842712,0.174513954,0.141421356,stimuli/lakes/8080118_left.png,stimuli/lakes/8080118_right.png,,,,0,74,74,118,1,,,,,
,,,,,,$5e7f88a70e227a03fedd7378,2020-07-20_15h34.25.186,fisher_task,2020.1.3,Win32,60,-0.112037037,-0.27962963,1,0,0,2.482905,scale,,,,,,0.174513954,0.141421356,0.349027907,0.282842712,stimuli/lakes/2080108_left.png,stimuli/lakes/2080108_right.png,,,,0,75,75,108,1,,,,,
,,,,,,$5e7f88a70e227a03fedd7378,2020-07-20_15h34.25.186,fisher_task,2020.1.3,Win32,60,0.147222222,-0.35,1,0,0,1.298035,scale,,,,,,0.21373507,0.173205081,0.326485712,0.264575131,stimuli/lakes/303034_left.png,stimuli/lakes/303034_right.png,,,,0,76,76,34,1,,,,,
,,,,,,$5e7f88a70e227a03fedd7378,2020-07-20_15h34.25.186,fisher_task,2020.1.3,Win32,60,0.155555556,-0.398148148,1,0,0,1.049135,scale,,,,,,0.21373507,0.173205081,0.326485712,0.264575131,stimuli/lakes/302012_left.png,stimuli/lakes/302012_right.png,,,,0,77,77,12,1,,,,,
,,,,,,$5e7f88a70e227a03fedd7378,2020-07-20_15h34.25.186,fisher_task,2020.1.3,Win32,60,-0.125925926,-0.291666667,1,0,0,1.465015,scale,,,,,,0.2468,0.2,0.302267034,0.244948974,stimuli/lakes/4090123_left.png,stimuli/lakes/4090123_right.png,,,,0,78,78,123,1,,,,,
,,,,,,$5e7f88a70e227a03fedd7378,2020-07-20_15h34.25.186,fisher_task,2020.1.3,Win32,60,0.142592593,-0.316666667,1,0,0,1.11657,scale,,,,,,0.1234,0.1,0.3702,0.3,stimuli/lakes/103032_left.png,stimuli/lakes/103032_right.png,,,,0,79,79,32,1,,,,,
,,,,,,$5e7f88a70e227a03fedd7378,2020-07-20_15h34.25.186,fisher_task,2020.1.3,Win32,60,0.140740741,-0.337037037,1,0,0,0.966325,scale,,,,,,0.2468,0.2,0.302267034,0.244948974,stimuli/lakes/403026_left.png,stimuli/lakes/403026_right.png,,,,0,80,80,26,1,,,,,
,,,,,,$5e7f88a70e227a03fedd7378,2020-07-20_15h34.25.186,fisher_task,2020.1.3,Win32,60,0.112962963,-0.287037037,1,0,0,1.464685,scale,,,,,,0.349027907,0.282842712,0.174513954,0.141421356,stimuli/lakes/802021_left.png,stimuli/lakes/802021_right.png,,,,0,81,81,21,1,,,,,
,,,,,,$5e7f88a70e227a03fedd7378,2020-07-20_15h34.25.186,fisher_task,2020.1.3,Win32,60,0.131481481,-0.309259259,1,0,0,1.1491,scale,,,,,,0.302267034,0.244948974,0.2468,0.2,stimuli/lakes/603037_left.png,stimuli/lakes/603037_right.png,,,,0,82,82,37,1,,,,,
,,,,,,$5e7f88a70e227a03fedd7378,2020-07-20_15h34.25.186,fisher_task,2020.1.3,Win32,60,0.123148148,-0.30462963,1,0,0,1.282015,scale,,,,,,0.302267034,0.244948974,0.2468,0.2,stimuli/lakes/60106_left.png,stimuli/lakes/60106_right.png,,,,0,83,83,6,1,,,,,
,,,,,,$5e7f88a70e227a03fedd7378,2020-07-20_15h34.25.186,fisher_task,2020.1.3,Win32,60,-0.138888889,-0.327777778,1,0,0,3.14775,scale,,,,,,0.326485712,0.264575131,0.21373507,0.173205081,stimuli/lakes/705067_left.png,stimuli/lakes/705067_right.png,,,,0,84,84,67,1,,,,,
,,,,,,$5e7f88a70e227a03fedd7378,2020-07-20_15h34.25.186,fisher_task,2020.1.3,Win32,60,0.109259259,-0.311111111,1,0,0,1.39852,scale,,,,,,0.174513954,0.141421356,0.349027907,0.282842712,stimuli/lakes/204042_left.png,stimuli/lakes/204042_right.png,,,,0,85,85,42,1,,,,,
,,,,,,$5e7f88a70e227a03fedd7378,2020-07-20_15h34.25.186,fisher_task,2020.1.3,Win32,60,0.150925926,-0.308333333,1,0,0,1.614315,scale,,,,,,0.349027907,0.282842712,0.174513954,0.141421356,stimuli/lakes/804048_left.png,stimuli/lakes/804048_right.png,,,,0,86,86,48,1,,,,,
,,,,,,$5e7f88a70e227a03fedd7378,2020-07-20_15h34.25.186,fisher_task,2020.1.3,Win32,60,0.136111111,-0.292592593,1,0,0,1.91631,scale,,,,,,0.302267034,0.244948974,0.2468,0.2,stimuli/lakes/602018_left.png,stimuli/lakes/602018_right.png,,,,0,87,87,18,1,,,,,
,,,,,,$5e7f88a70e227a03fedd7378,2020-07-20_15h34.25.186,fisher_task,2020.1.3,Win32,60,0.111111111,-0.306481481,1,0,0,1.11551,scale,,,,,,0.2468,0.2,0.302267034,0.244948974,stimuli/lakes/404053_left.png,stimuli/lakes/404053_right.png,,,space,0,88,88,53,1,2.46135,,,,
,,,,,,$5e7f88a70e227a03fedd7378,2020-07-20_15h34.25.186,fisher_task,2020.1.3,Win32,60,-0.137962963,-0.352777778,1,0,0,1.29818,scale,,,,,,0.174513954,0.141421356,0.349027907,0.282842712,stimuli/lakes/2090120_left.png,stimuli/lakes/2090120_right.png,,,,0,89,89,120,1,,,,,
,,,,,,$5e7f88a70e227a03fedd7378,2020-07-20_15h34.25.186,fisher_task,2020.1.3,Win32,60,-0.135185185,-0.272222222,1,0,0,0.93309,scale,,,,,,0.2468,0.2,0.302267034,0.244948974,stimuli/lakes/4070101_left.png,stimuli/lakes/4070101_right.png,,,,0,90,90,101,1,,,,,
,,,,,,$5e7f88a70e227a03fedd7378,2020-07-20_15h34.25.186,fisher_task,2020.1.3,Win32,60,-0.146296296,-0.326851852,1,0,0,0.916125,scale,,,,,,0.3702,0.3,0.1234,0.1,stimuli/lakes/9070106_left.png,stimuli/lakes/9070106_right.png,,,,0,91,91,106,1,,,,,
,,,,,,$5e7f88a70e227a03fedd7378,2020-07-20_15h34.25.186,fisher_task,2020.1.3,Win32,60,0.139814815,-0.319444444,1,0,0,1.247775,scale,,,,,,0.326485712,0.264575131,0.21373507,0.173205081,stimuli/lakes/703029_left.png,stimuli/lakes/703029_right.png,,,,0,92,92,29,1,,,,,
,,,,,,$5e7f88a70e227a03fedd7378,2020-07-20_15h34.25.186,fisher_task,2020.1.3,Win32,60,-0.140740741,-0.309259259,1,0,0,0.76513,scale,,,,,,0.326485712,0.264575131,0.21373507,0.173205081,stimuli/lakes/706077_left.png,stimuli/lakes/706077_right.png,,,,0,93,93,77,1,,,,,
,,,,,,$5e7f88a70e227a03fedd7378,2020-07-20_15h34.25.186,fisher_task,2020.1.3,Win32,60,0.162037037,-0.32962963,1,0,0,1.18228,scale,,,,,,0.326485712,0.264575131,0.21373507,0.173205081,stimuli/lakes/702019_left.png,stimuli/lakes/702019_right.png,,,,0,94,94,19,1,,,,,
,,,,,,$5e7f88a70e227a03fedd7378,2020-07-20_15h34.25.186,fisher_task,2020.1.3,Win32,60,-0.128703704,-0.338888889,1,0,0,1.11656,scale,,,,,,0.2468,0.2,0.302267034,0.244948974,stimuli/lakes/406074_left.png,stimuli/lakes/406074_right.png,,,,0,95,95,74,1,,,,,
,,,,,,$5e7f88a70e227a03fedd7378,2020-07-20_15h34.25.186,fisher_task,2020.1.3,Win32,60,0.162037037,-0.32962963,1,0,0,0.931415,scale,,,,,,0.2468,0.2,0.302267034,0.244948974,stimuli/lakes/402015_left.png,stimuli/lakes/402015_right.png,,,,0,96,96,15,1,,,,,
,,,,,,$5e7f88a70e227a03fedd7378,2020-07-20_15h34.25.186,fisher_task,2020.1.3,Win32,60,-0.163888889,-0.324074074,1,0,0,1.18232,scale,,,,,,0.302267034,0.244948974,0.2468,0.2,stimuli/lakes/6080115_left.png,stimuli/lakes/6080115_right.png,,,,0,97,97,115,1,,,,,
,,,,,,$5e7f88a70e227a03fedd7378,2020-07-20_15h34.25.186,fisher_task,2020.1.3,Win32,60,0.133333333,-0.340740741,1,0,0,1.18186,scale,,,,,,0.302267034,0.244948974,0.2468,0.2,stimuli/lakes/603028_left.png,stimuli/lakes/603028_right.png,,,,0,98,98,28,1,,,,,
,,,,,,$5e7f88a70e227a03fedd7378,2020-07-20_15h34.25.186,fisher_task,2020.1.3,Win32,60,0.15,-0.360185185,1,0,0,1.099,scale,,,,,,0.174513954,0.141421356,0.349027907,0.282842712,stimuli/lakes/202011_left.png,stimuli/lakes/202011_right.png,,,,0,99,99,11,1,,,,,
,,,,,,$5e7f88a70e227a03fedd7378,2020-07-20_15h34.25.186,fisher_task,2020.1.3,Win32,60,-0.163888889,-0.358333333,1,0,0,0.96591,scale,,,,,,0.326485712,0.264575131,0.21373507,0.173205081,stimuli/lakes/7070104_left.png,stimuli/lakes/7070104_right.png,,,,0,100,100,104,1,,,,,
,,,,,,$5e7f88a70e227a03fedd7378,2020-07-20_15h34.25.186,fisher_task,2020.1.3,Win32,60,-0.134259259,-0.30462963,1,0,0,1.065885,scale,,,,,,0.21373507,0.173205081,0.326485712,0.264575131,stimuli/lakes/3080110_left.png,stimuli/lakes/3080110_right.png,,,,0,101,101,110,1,,,,,
,,,,,,$5e7f88a70e227a03fedd7378,2020-07-20_15h34.25.186,fisher_task,2020.1.3,Win32,60,0.132407407,-0.317592593,1,0,0,0.932965,scale,,,,,,0.2468,0.2,0.302267034,0.244948974,stimuli/lakes/404044_left.png,stimuli/lakes/404044_right.png,,,,0,102,102,44,1,,,,,
,,,,,,$5e7f88a70e227a03fedd7378,2020-07-20_15h34.25.186,fisher_task,2020.1.3,Win32,60,0.165740741,-0.356481481,1,0,0,1.21609,scale,,,,,,0.326485712,0.264575131,0.21373507,0.173205081,stimuli/lakes/70107_left.png,stimuli/lakes/70107_right.png,,,,0,103,103,7,1,,,,,
,,,,,,$5e7f88a70e227a03fedd7378,2020-07-20_15h34.25.186,fisher_task,2020.1.3,Win32,60,0.131481481,-0.298148148,1,0,0,1.1477,scale,,,,,,0.1234,0.1,0.3702,0.3,stimuli/lakes/105059_left.png,stimuli/lakes/105059_right.png,,,,0,104,104,59,1,,,,,
,,,,,,$5e7f88a70e227a03fedd7378,2020-07-20_15h34.25.186,fisher_task,2020.1.3,Win32,60,-0.177777778,-0.37037037,1,0,0,1.365265,scale,,,,,,0.326485712,0.264575131,0.21373507,0.173205081,stimuli/lakes/7090128_left.png,stimuli/lakes/7090128_right.png,,,,0,105,105,128,1,,,,,
,,,,,,$5e7f88a70e227a03fedd7378,2020-07-20_15h34.25.186,fisher_task,2020.1.3,Win32,60,0.162962963,-0.359259259,1,0,0,1.31593,scale,,,,,,0.174513954,0.141421356,0.349027907,0.282842712,stimuli/lakes/204051_left.png,stimuli/lakes/204051_right.png,,,,0,106,106,51,1,,,,,
,,,,,,$5e7f88a70e227a03fedd7378,2020-07-20_15h34.25.186,fisher_task,2020.1.3,Win32,60,-0.159259259,-0.356481481,1,0,0,0.98225,scale,,,,,,0.326485712,0.264575131,0.21373507,0.173205081,stimuli/lakes/7080116_left.png,stimuli/lakes/7080116_right.png,,,,0,107,107,116,1,,,,,
,,,,,,$5e7f88a70e227a03fedd7378,2020-07-20_15h34.25.186,fisher_task,2020.1.3,Win32,60,0.175,-0.386111111,1,0,0,1.23207,scale,,,,,,0.21373507,0.173205081,0.326485712,0.264575131,stimuli/lakes/30100_left.png,stimuli/lakes/30100_right.png,,,,0,108,108,0,1,,,,,
,,,,,,$5e7f88a70e227a03fedd7378,2020-07-20_15h34.25.186,fisher_task,2020.1.3,Win32,60,-0.116666667,-0.302777778,1,0,0,1.199455,scale,,,,,,0.2468,0.2,0.302267034,0.244948974,stimuli/lakes/4090124_left.png,stimuli/lakes/4090124_right.png,,,,0,109,109,124,1,,,,,
,,,,,,$5e7f88a70e227a03fedd7378,2020-07-20_15h34.25.186,fisher_task,2020.1.3,Win32,60,-0.096296296,-0.309259259,1,0,0,1.099175,scale,,,,,,0.275930788,0.223606798,0.275930788,0.223606798,stimuli/lakes/506075_left.png,stimuli/lakes/506075_right.png,,,space,0,110,110,75,1,31.09701,,,,
,,,,,,$5e7f88a70e227a03fedd7378,2020-07-20_15h34.25.186,fisher_task,2020.1.3,Win32,60,0.133333333,-0.30462963,1,0,0,1.465645,scale,,,,,,0.326485712,0.264575131,0.21373507,0.173205081,stimuli/lakes/704056_left.png,stimuli/lakes/704056_right.png,,,,0,111,111,56,1,,,,,
,,,,,,$5e7f88a70e227a03fedd7378,2020-07-20_15h34.25.186,fisher_task,2020.1.3,Win32,60,-0.131481481,-0.341666667,1,0,0,1.33313,scale,,,,,,0.275930788,0.223606798,0.275930788,0.223606798,stimuli/lakes/5070102_left.png,stimuli/lakes/5070102_right.png,,,,0,112,112,102,1,,,,,
,,,,,,$5e7f88a70e227a03fedd7378,2020-07-20_15h34.25.186,fisher_task,2020.1.3,Win32,60,-0.132407407,-0.316666667,1,0,0,1.414805,scale,,,,,,0.302267034,0.244948974,0.2468,0.2,stimuli/lakes/605066_left.png,stimuli/lakes/605066_right.png,,,,0,113,113,66,1,,,,,
,,,,,,$5e7f88a70e227a03fedd7378,2020-07-20_15h34.25.186,fisher_task,2020.1.3,Win32,60,0.140740741,-0.319444444,1,0,0,1.11469,scale,,,,,,0.2468,0.2,0.302267034,0.244948974,stimuli/lakes/405063_left.png,stimuli/lakes/405063_right.png,,,,0,114,114,63,1,,,,,
,,,,,,$5e7f88a70e227a03fedd7378,2020-07-20_15h34.25.186,fisher_task,2020.1.3,Win32,60,0.119444444,-0.293518519,1,0,0,1.06594,scale,,,,,,0.326485712,0.264575131,0.21373507,0.173205081,stimuli/lakes/703038_left.png,stimuli/lakes/703038_right.png,,,,0,115,115,38,1,,,,,
,,,,,,$5e7f88a70e227a03fedd7378,2020-07-20_15h34.25.186,fisher_task,2020.1.3,Win32,60,0.114814815,-0.294444444,1,0,0,1.099865,scale,,,,,,0.349027907,0.282842712,0.174513954,0.141421356,stimuli/lakes/803030_left.png,stimuli/lakes/803030_right.png,,,,0,116,116,30,1,,,,,
,,,,,,$5e7f88a70e227a03fedd7378,2020-07-20_15h34.25.186,fisher_task,2020.1.3,Win32,60,0.125925926,-0.3,1,0,0,0.94803,scale,,,,,,0.326485712,0.264575131,0.21373507,0.173205081,stimuli/lakes/70108_left.png,stimuli/lakes/70108_right.png,,,,0,117,117,8,1,,,,,
,,,,,,$5e7f88a70e227a03fedd7378,2020-07-20_15h34.25.186,fisher_task,2020.1.3,Win32,60,-0.112962963,-0.300925926,1,0,0,0.91662,scale,,,,,,0.326485712,0.264575131,0.21373507,0.173205081,stimuli/lakes/706086_left.png,stimuli/lakes/706086_right.png,,,,0,118,118,86,1,,,,,
,,,,,,$5e7f88a70e227a03fedd7378,2020-07-20_15h34.25.186,fisher_task,2020.1.3,Win32,60,-0.135185185,-0.342592593,1,0,0,0.982325,scale,,,,,,0.302267034,0.244948974,0.2468,0.2,stimuli/lakes/606085_left.png,stimuli/lakes/606085_right.png,,,,0,119,119,85,1,,,,,
,,,,,,$5e7f88a70e227a03fedd7378,2020-07-20_15h34.25.186,fisher_task,2020.1.3,Win32,60,-0.132407407,-0.312037037,1,0,0,1.283935,scale,,,,,,0.1234,0.1,0.3702,0.3,stimuli/lakes/107089_left.png,stimuli/lakes/107089_right.png,,,,0,120,120,89,1,,,,,
,,,,,,$5e7f88a70e227a03fedd7378,2020-07-20_15h34.25.186,fisher_task,2020.1.3,Win32,60,-0.127777778,-0.324074074,1,0,0,1.598545,scale,,,,,,0.302267034,0.244948974,0.2468,0.2,stimuli/lakes/606076_left.png,stimuli/lakes/606076_right.png,,,,0,121,121,76,1,,,,,
,,,,,,$5e7f88a70e227a03fedd7378,2020-07-20_15h34.25.186,fisher_task,2020.1.3,Win32,60,-0.160185185,-0.363888889,1,0,0,0.81587,scale,,,,,,0.275930788,0.223606798,0.275930788,0.223606798,stimuli/lakes/507093_left.png,stimuli/lakes/507093_right.png,,,,0,122,122,93,1,,,,,
,,,,,,$5e7f88a70e227a03fedd7378,2020-07-20_15h34.25.186,fisher_task,2020.1.3,Win32,60,-0.126851852,-0.311111111,1,0,0,1.150205,scale,,,,,,0.21373507,0.173205081,0.326485712,0.264575131,stimuli/lakes/306073_left.png,stimuli/lakes/306073_right.png,,,,0,123,123,73,1,,,,,
,,,,,,$5e7f88a70e227a03fedd7378,2020-07-20_15h34.25.186,fisher_task,2020.1.3,Win32,60,-0.173148148,-0.397222222,1,0,0,1.116835,scale,,,,,,0.349027907,0.282842712,0.174513954,0.141421356,stimuli/lakes/807096_left.png,stimuli/lakes/807096_right.png,,,,0,124,124,96,1,,,,,
,,,,,,$5e7f88a70e227a03fedd7378,2020-07-20_15h34.25.186,fisher_task,2020.1.3,Win32,60,0.156481481,-0.361111111,1,0,0,1.28168,scale,,,,,,0.174513954,0.141421356,0.349027907,0.282842712,stimuli/lakes/205060_left.png,stimuli/lakes/205060_right.png,,,,0,125,125,60,1,,,,,
,,,,,,$5e7f88a70e227a03fedd7378,2020-07-20_15h34.25.186,fisher_task,2020.1.3,Win32,60,-0.12962963,-0.316666667,1,0,0,1.215705,scale,,,,,,0.21373507,0.173205081,0.326485712,0.264575131,stimuli/lakes/3080109_left.png,stimuli/lakes/3080109_right.png,,,,0,126,126,109,1,,,,,
,,,,,,$5e7f88a70e227a03fedd7378,2020-07-20_15h34.25.186,fisher_task,2020.1.3,Win32,60,-0.137962963,-0.314814815,1,0,0,1.149085,scale,,,,,,0.21373507,0.173205081,0.326485712,0.264575131,stimuli/lakes/3070100_left.png,stimuli/lakes/3070100_right.png,,,,0,127,127,100,1,,,,,
,,,,,,$5e7f88a70e227a03fedd7378,2020-07-20_15h34.25.186,fisher_task,2020.1.3,Win32,60,-0.124074074,-0.292592593,1,0,0,1.33256,scale,,,,,,0.1234,0.1,0.3702,0.3,stimuli/lakes/106080_left.png,stimuli/lakes/106080_right.png,,,,0,128,128,80,1,,,,,
,,,,,,$5e7f88a70e227a03fedd7378,2020-07-20_15h34.25.186,fisher_task,2020.1.3,Win32,60,-0.131481481,-0.309259259,1,0,0,0.948785,scale,,,,,,0.1234,0.1,0.3702,0.3,stimuli/lakes/107098_left.png,stimuli/lakes/107098_right.png,,,,0,129,129,98,1,,,,,
,,,,,,$5e7f88a70e227a03fedd7378,2020-07-20_15h34.25.186,fisher_task,2020.1.3,Win32,60,,,,,,,,,,,,,,,,,,,,,,,,,,,,space,7.48164,space,7.608125
