keySpace.keys,instructions.thisRepN,instructions.thisTrialN,instructions.thisN,instructions.thisIndex,instructions.ran,participant,date,expName,psychopyVersion,OS,frameRate,mouse.x,mouse.y,mouse.leftButton,mouse.midButton,mouse.rightButton,mouse.time,mouse.clicked_name,training.thisRepN,training.thisTrialN,training.thisN,training.thisIndex,training.ran,widthBasketLeft,heightBasketLeft,widthBasketRight,heightBasketRight,leftLake,rightLake,space2.keys,space2.rt,space1.keys,trials.thisRepN,trials.thisTrialN,trials.thisN,trials.thisIndex,trials.ran,space1.rt,finalSpace1.keys,finalSpace1.rt,finalSpace2.keys,finalSpace2.rt
,0,0,0,0,1,$5ebeb0f92abb6a23399fba3b,2020-07-20_15h34.20.116,fisher_task,2020.1.3,Win32,60,,,,,,,,,,,,,,,,,,,,,,,,,,,,,,,
,,,,,,$5ebeb0f92abb6a23399fba3b,2020-07-20_15h34.20.116,fisher_task,2020.1.3,Win32,60,-0.247222222,0.264814815,1,0,0,1.73332,scale,0,0,0,0,1,0.275930788,0.223606798,0.275930788,0.223606798,stimuli/training/20_left.png,stimuli/training/20_right.png,,,,,,,,,,,,,
,,,,,,$5ebeb0f92abb6a23399fba3b,2020-07-20_15h34.20.116,fisher_task,2020.1.3,Win32,60,-0.117592593,-0.331481481,1,0,0,3.499895,scale,0,1,1,1,1,0.275930788,0.223606798,0.275930788,0.223606798,stimuli/training/80_left.png,stimuli/training/80_right.png,,,,,,,,,,,,,
,,,,,,$5ebeb0f92abb6a23399fba3b,2020-07-20_15h34.20.116,fisher_task,2020.1.3,Win32,60,0.168518519,-0.435185185,1,0,0,3.51649,scale,0,2,2,2,1,0.174513954,0.141421356,0.349027907,0.282842712,stimuli/training/50_left.png,stimuli/training/50_right.png,,,,,,,,,,,,,
,,,,,,$5ebeb0f92abb6a23399fba3b,2020-07-20_15h34.20.116,fisher_task,2020.1.3,Win32,60,-0.162037037,-0.433333333,1,0,0,1.81651,scale,0,3,3,3,1,0.349027907,0.282842712,0.174513954,0.141421356,stimuli/training/50_left.png,stimuli/training/50_right.png,,,,,,,,,,,,,
,,,,,,$5ebeb0f92abb6a23399fba3b,2020-07-20_15h34.20.116,fisher_task,2020.1.3,Win32,60,0.00462963,-0.256481481,1,0,0,4.16663,scale,0,4,4,4,1,0.275930788,0.223606798,0.275930788,0.223606798,stimuli/training/50_left.png,stimuli/training/50_right.png,,,,,,,,,,,,,
,,,,,,$5ebeb0f92abb6a23399fba3b,2020-07-20_15h34.20.116,fisher_task,2020.1.3,Win32,60,0.157407407,-0.431481481,1,0,0,1.266515,scale,0,5,5,5,1,0.174513954,0.141421356,0.349027907,0.282842712,stimuli/training/20_left.png,stimuli/training/20_right.png,,,,,,,,,,,,,
,,,,,,$5ebeb0f92abb6a23399fba3b,2020-07-20_15h34.20.116,fisher_task,2020.1.3,Win32,60,-0.175925926,-0.440740741,1,0,0,1.099855,scale,0,6,6,6,1,0.349027907,0.282842712,0.174513954,0.141421356,stimuli/training/80_left.png,stimuli/training/80_right.png,,,,,,,,,,,,,
,,,,,,$5ebeb0f92abb6a23399fba3b,2020-07-20_15h34.20.116,fisher_task,2020.1.3,Win32,60,0.137962963,-0.424074074,1,0,0,1.29983,scale,0,7,7,7,1,0.1234,0.1,0.3702,0.3,stimuli/training/30_left.png,stimuli/training/30_right.png,,,,,,,,,,,,,
,,,,,,$5ebeb0f92abb6a23399fba3b,2020-07-20_15h34.20.116,fisher_task,2020.1.3,Win32,60,-0.143518519,-0.433333333,1,0,0,0.85034,scale,0,8,8,8,1,0.3702,0.3,0.1234,0.1,stimuli/training/70_left.png,stimuli/training/70_right.png,,,,,,,,,,,,,
,,,,,,$5ebeb0f92abb6a23399fba3b,2020-07-20_15h34.20.116,fisher_task,2020.1.3,Win32,60,-0.148148148,-0.425925926,1,0,0,0.999755,scale,0,9,9,9,1,0.326485712,0.264575131,0.21373507,0.173205081,stimuli/training/90_left.png,stimuli/training/90_right.png,,,,,,,,,,,,,
,,,,,,$5ebeb0f92abb6a23399fba3b,2020-07-20_15h34.20.116,fisher_task,2020.1.3,Win32,60,0.144444444,-0.419444444,1,0,0,0.933185,scale,0,10,10,10,1,0.21373507,0.173205081,0.326485712,0.264575131,stimuli/training/10_left.png,stimuli/training/10_right.png,,,,,,,,,,,,,
,,,,,,$5ebeb0f92abb6a23399fba3b,2020-07-20_15h34.20.116,fisher_task,2020.1.3,Win32,60,-0.156481481,-0.434259259,1,0,0,1.66656,scale,,,,,,0.326485712,0.264575131,0.21373507,0.173205081,stimuli/lakes/7080117_left.png,stimuli/lakes/7080117_right.png,space,17.86441,,0,0,0,117,1,,,,,
,,,,,,$5ebeb0f92abb6a23399fba3b,2020-07-20_15h34.20.116,fisher_task,2020.1.3,Win32,60,-0.110185185,-0.286111111,1,0,0,1.533145,scale,,,,,,0.275930788,0.223606798,0.275930788,0.223606798,stimuli/lakes/5070102_left.png,stimuli/lakes/5070102_right.png,,,,0,1,1,102,1,,,,,
,,,,,,$5ebeb0f92abb6a23399fba3b,2020-07-20_15h34.20.116,fisher_task,2020.1.3,Win32,60,-0.000925926,-0.247222222,1,0,0,1.916495,scale,,,,,,0.21373507,0.173205081,0.326485712,0.264575131,stimuli/lakes/306073_left.png,stimuli/lakes/306073_right.png,,,,0,2,2,73,1,,,,,
,,,,,,$5ebeb0f92abb6a23399fba3b,2020-07-20_15h34.20.116,fisher_task,2020.1.3,Win32,60,-0.135185185,-0.299074074,1,0,0,1.83322,scale,,,,,,0.3702,0.3,0.1234,0.1,stimuli/lakes/905070_left.png,stimuli/lakes/905070_right.png,,,,0,3,3,70,1,,,,,
,,,,,,$5ebeb0f92abb6a23399fba3b,2020-07-20_15h34.20.116,fisher_task,2020.1.3,Win32,60,0.184259259,-0.436111111,1,0,0,1.383205,scale,,,,,,0.326485712,0.264575131,0.21373507,0.173205081,stimuli/lakes/70107_left.png,stimuli/lakes/70107_right.png,,,,0,4,4,7,1,,,,,
,,,,,,$5ebeb0f92abb6a23399fba3b,2020-07-20_15h34.20.116,fisher_task,2020.1.3,Win32,60,0.176851852,-0.42962963,1,0,0,1.23308,scale,,,,,,0.275930788,0.223606798,0.275930788,0.223606798,stimuli/lakes/50104_left.png,stimuli/lakes/50104_right.png,,,,0,5,5,4,1,,,,,
,,,,,,$5ebeb0f92abb6a23399fba3b,2020-07-20_15h34.20.116,fisher_task,2020.1.3,Win32,60,-0.171296296,-0.415740741,1,0,0,1.816625,scale,,,,,,0.174513954,0.141421356,0.349027907,0.282842712,stimuli/lakes/2080108_left.png,stimuli/lakes/2080108_right.png,,,,0,6,6,108,1,,,,,
,,,,,,$5ebeb0f92abb6a23399fba3b,2020-07-20_15h34.20.116,fisher_task,2020.1.3,Win32,60,-0.157407407,-0.433333333,1,0,0,0.83305,scale,,,,,,0.326485712,0.264575131,0.21373507,0.173205081,stimuli/lakes/7080116_left.png,stimuli/lakes/7080116_right.png,,,,0,7,7,116,1,,,,,
,,,,,,$5ebeb0f92abb6a23399fba3b,2020-07-20_15h34.20.116,fisher_task,2020.1.3,Win32,60,0.165740741,-0.416666667,1,0,0,1.46657,scale,,,,,,0.1234,0.1,0.3702,0.3,stimuli/lakes/106080_left.png,stimuli/lakes/106080_right.png,,,,0,8,8,80,1,,,,,
,,,,,,$5ebeb0f92abb6a23399fba3b,2020-07-20_15h34.20.116,fisher_task,2020.1.3,Win32,60,-0.159259259,-0.427777778,1,0,0,1.283195,scale,,,,,,0.302267034,0.244948974,0.2468,0.2,stimuli/lakes/606076_left.png,stimuli/lakes/606076_right.png,,,,0,9,9,76,1,,,,,
,,,,,,$5ebeb0f92abb6a23399fba3b,2020-07-20_15h34.20.116,fisher_task,2020.1.3,Win32,60,-0.164814815,-0.418518519,1,0,0,1.36653,scale,,,,,,0.349027907,0.282842712,0.174513954,0.141421356,stimuli/lakes/806078_left.png,stimuli/lakes/806078_right.png,,,,0,10,10,78,1,,,,,
,,,,,,$5ebeb0f92abb6a23399fba3b,2020-07-20_15h34.20.116,fisher_task,2020.1.3,Win32,60,0.135185185,-0.408333333,1,0,0,1.333115,scale,,,,,,0.326485712,0.264575131,0.21373507,0.173205081,stimuli/lakes/704047_left.png,stimuli/lakes/704047_right.png,,,,0,11,11,47,1,,,,,
,,,,,,$5ebeb0f92abb6a23399fba3b,2020-07-20_15h34.20.116,fisher_task,2020.1.3,Win32,60,0.146296296,-0.421296296,1,0,0,1.26662,scale,,,,,,0.302267034,0.244948974,0.2468,0.2,stimuli/lakes/604046_left.png,stimuli/lakes/604046_right.png,,,,0,12,12,46,1,,,,,
,,,,,,$5ebeb0f92abb6a23399fba3b,2020-07-20_15h34.20.116,fisher_task,2020.1.3,Win32,60,-0.177777778,-0.408333333,1,0,0,1.066455,scale,,,,,,0.21373507,0.173205081,0.326485712,0.264575131,stimuli/lakes/3080109_left.png,stimuli/lakes/3080109_right.png,,,,0,13,13,109,1,,,,,
,,,,,,$5ebeb0f92abb6a23399fba3b,2020-07-20_15h34.20.116,fisher_task,2020.1.3,Win32,60,0.164814815,-0.415740741,1,0,0,1.06647,scale,,,,,,0.349027907,0.282842712,0.174513954,0.141421356,stimuli/lakes/803030_left.png,stimuli/lakes/803030_right.png,,,,0,14,14,30,1,,,,,
,,,,,,$5ebeb0f92abb6a23399fba3b,2020-07-20_15h34.20.116,fisher_task,2020.1.3,Win32,60,0.162037037,-0.430555556,1,0,0,1.14978,scale,,,,,,0.21373507,0.173205081,0.326485712,0.264575131,stimuli/lakes/305061_left.png,stimuli/lakes/305061_right.png,,,,0,15,15,61,1,,,,,
,,,,,,$5ebeb0f92abb6a23399fba3b,2020-07-20_15h34.20.116,fisher_task,2020.1.3,Win32,60,0.165740741,-0.423148148,1,0,0,0.983235,scale,,,,,,0.2468,0.2,0.302267034,0.244948974,stimuli/lakes/405063_left.png,stimuli/lakes/405063_right.png,,,,0,16,16,63,1,,,,,
,,,,,,$5ebeb0f92abb6a23399fba3b,2020-07-20_15h34.20.116,fisher_task,2020.1.3,Win32,60,0.186111111,-0.417592593,1,0,0,1.46662,scale,,,,,,0.3702,0.3,0.1234,0.1,stimuli/lakes/901010_left.png,stimuli/lakes/901010_right.png,,,,0,17,17,10,1,,,,,
,,,,,,$5ebeb0f92abb6a23399fba3b,2020-07-20_15h34.20.116,fisher_task,2020.1.3,Win32,60,-0.17037037,-0.412037037,1,0,0,1.28317,scale,,,,,,0.302267034,0.244948974,0.2468,0.2,stimuli/lakes/606085_left.png,stimuli/lakes/606085_right.png,,,,0,18,18,85,1,,,,,
,,,,,,$5ebeb0f92abb6a23399fba3b,2020-07-20_15h34.20.116,fisher_task,2020.1.3,Win32,60,0.180555556,-0.433333333,1,0,0,1.149835,scale,,,,,,0.174513954,0.141421356,0.349027907,0.282842712,stimuli/lakes/204051_left.png,stimuli/lakes/204051_right.png,,,,0,19,19,51,1,,,,,
,,,,,,$5ebeb0f92abb6a23399fba3b,2020-07-20_15h34.20.116,fisher_task,2020.1.3,Win32,60,-0.173148148,-0.407407407,1,0,0,1.21653,scale,,,,,,0.2468,0.2,0.302267034,0.244948974,stimuli/lakes/406074_left.png,stimuli/lakes/406074_right.png,,,,0,20,20,74,1,,,,,
,,,,,,$5ebeb0f92abb6a23399fba3b,2020-07-20_15h34.20.116,fisher_task,2020.1.3,Win32,60,0.151851852,-0.42962963,1,0,0,1.68322,scale,,,,,,0.2468,0.2,0.302267034,0.244948974,stimuli/lakes/40103_left.png,stimuli/lakes/40103_right.png,,,,0,21,21,3,1,,,,,
,,,,,,$5ebeb0f92abb6a23399fba3b,2020-07-20_15h34.20.116,fisher_task,2020.1.3,Win32,60,0.107407407,-0.426851852,1,0,0,2.0832,scale,,,,,,0.302267034,0.244948974,0.2468,0.2,stimuli/lakes/605065_left.png,stimuli/lakes/605065_right.png,,,space,0,22,22,65,1,7.36636,,,,
,,,,,,$5ebeb0f92abb6a23399fba3b,2020-07-20_15h34.20.116,fisher_task,2020.1.3,Win32,60,-0.203703704,-0.422222222,1,0,0,0.99992,scale,,,,,,0.275930788,0.223606798,0.275930788,0.223606798,stimuli/lakes/506075_left.png,stimuli/lakes/506075_right.png,,,,0,23,23,75,1,,,,,
,,,,,,$5ebeb0f92abb6a23399fba3b,2020-07-20_15h34.20.116,fisher_task,2020.1.3,Win32,60,-0.168518519,-0.413888889,1,0,0,1.24987,scale,,,,,,0.2468,0.2,0.302267034,0.244948974,stimuli/lakes/406083_left.png,stimuli/lakes/406083_right.png,,,,0,24,24,83,1,,,,,
,,,,,,$5ebeb0f92abb6a23399fba3b,2020-07-20_15h34.20.116,fisher_task,2020.1.3,Win32,60,0.161111111,-0.425,1,0,0,0.98308,scale,,,,,,0.21373507,0.173205081,0.326485712,0.264575131,stimuli/lakes/302013_left.png,stimuli/lakes/302013_right.png,,,,0,25,25,13,1,,,,,
,,,,,,$5ebeb0f92abb6a23399fba3b,2020-07-20_15h34.20.116,fisher_task,2020.1.3,Win32,60,-0.136111111,-0.423148148,1,0,0,1.133215,scale,,,,,,0.3702,0.3,0.1234,0.1,stimuli/lakes/906079_left.png,stimuli/lakes/906079_right.png,,,,0,26,26,79,1,,,,,
,,,,,,$5ebeb0f92abb6a23399fba3b,2020-07-20_15h34.20.116,fisher_task,2020.1.3,Win32,60,0.187037037,-0.425925926,1,0,0,1.19975,scale,,,,,,0.21373507,0.173205081,0.326485712,0.264575131,stimuli/lakes/30101_left.png,stimuli/lakes/30101_right.png,,,,0,27,27,1,1,,,,,
,,,,,,$5ebeb0f92abb6a23399fba3b,2020-07-20_15h34.20.116,fisher_task,2020.1.3,Win32,60,0.151851852,-0.419444444,1,0,0,0.61644,scale,,,,,,0.2468,0.2,0.302267034,0.244948974,stimuli/lakes/402014_left.png,stimuli/lakes/402014_right.png,,,,0,28,28,14,1,,,,,
,,,,,,$5ebeb0f92abb6a23399fba3b,2020-07-20_15h34.20.116,fisher_task,2020.1.3,Win32,60,0.037037037,-0.281481481,1,0,0,1.05,scale,,,,,,0.2468,0.2,0.302267034,0.244948974,stimuli/lakes/4070101_left.png,stimuli/lakes/4070101_right.png,,,,0,29,29,101,1,,,,,
,,,,,,$5ebeb0f92abb6a23399fba3b,2020-07-20_15h34.20.116,fisher_task,2020.1.3,Win32,60,-0.12037037,-0.287037037,1,0,0,1.14955,scale,,,,,,0.3702,0.3,0.1234,0.1,stimuli/lakes/903040_left.png,stimuli/lakes/903040_right.png,,,,0,30,30,40,1,,,,,
,,,,,,$5ebeb0f92abb6a23399fba3b,2020-07-20_15h34.20.116,fisher_task,2020.1.3,Win32,60,0.169444444,-0.324074074,1,0,0,0.13314,scale,,,,,,0.174513954,0.141421356,0.349027907,0.282842712,stimuli/lakes/207090_left.png,stimuli/lakes/207090_right.png,,,,0,31,31,90,1,,,,,
,,,,,,$5ebeb0f92abb6a23399fba3b,2020-07-20_15h34.20.116,fisher_task,2020.1.3,Win32,60,-0.12037037,-0.302777778,1,0,0,0.799855,scale,,,,,,0.3702,0.3,0.1234,0.1,stimuli/lakes/906088_left.png,stimuli/lakes/906088_right.png,,,,0,32,32,88,1,,,,,
,,,,,,$5ebeb0f92abb6a23399fba3b,2020-07-20_15h34.20.116,fisher_task,2020.1.3,Win32,60,-0.15462963,-0.396296296,1,0,0,0.533225,scale,,,,,,0.349027907,0.282842712,0.174513954,0.141421356,stimuli/lakes/807096_left.png,stimuli/lakes/807096_right.png,,,,0,33,33,96,1,,,,,
,,,,,,$5ebeb0f92abb6a23399fba3b,2020-07-20_15h34.20.116,fisher_task,2020.1.3,Win32,60,-0.140740741,-0.415740741,1,0,0,0.69994,scale,,,,,,0.21373507,0.173205081,0.326485712,0.264575131,stimuli/lakes/306082_left.png,stimuli/lakes/306082_right.png,,,,0,34,34,82,1,,,,,
,,,,,,$5ebeb0f92abb6a23399fba3b,2020-07-20_15h34.20.116,fisher_task,2020.1.3,Win32,60,0.158333333,-0.427777778,1,0,0,0.933165,scale,,,,,,0.2468,0.2,0.302267034,0.244948974,stimuli/lakes/403035_left.png,stimuli/lakes/403035_right.png,,,,0,35,35,35,1,,,,,
,,,,,,$5ebeb0f92abb6a23399fba3b,2020-07-20_15h34.20.116,fisher_task,2020.1.3,Win32,60,0.149074074,-0.387962963,1,0,0,0.683115,scale,,,,,,0.174513954,0.141421356,0.349027907,0.282842712,stimuli/lakes/204042_left.png,stimuli/lakes/204042_right.png,,,,0,36,36,42,1,,,,,
,,,,,,$5ebeb0f92abb6a23399fba3b,2020-07-20_15h34.20.116,fisher_task,2020.1.3,Win32,60,-0.140740741,-0.416666667,1,0,0,0.933205,scale,,,,,,0.174513954,0.141421356,0.349027907,0.282842712,stimuli/lakes/206072_left.png,stimuli/lakes/206072_right.png,,,,0,37,37,72,1,,,,,
,,,,,,$5ebeb0f92abb6a23399fba3b,2020-07-20_15h34.20.116,fisher_task,2020.1.3,Win32,60,0.130555556,-0.425925926,1,0,0,0.983165,scale,,,,,,0.3702,0.3,0.1234,0.1,stimuli/lakes/903031_left.png,stimuli/lakes/903031_right.png,,,,0,38,38,31,1,,,,,
,,,,,,$5ebeb0f92abb6a23399fba3b,2020-07-20_15h34.20.116,fisher_task,2020.1.3,Win32,60,0.135185185,-0.427777778,1,0,0,0.99984,scale,,,,,,0.21373507,0.173205081,0.326485712,0.264575131,stimuli/lakes/305062_left.png,stimuli/lakes/305062_right.png,,,,0,39,39,62,1,,,,,
,,,,,,$5ebeb0f92abb6a23399fba3b,2020-07-20_15h34.20.116,fisher_task,2020.1.3,Win32,60,-0.164814815,-0.412037037,1,0,0,1.516515,scale,,,,,,0.3702,0.3,0.1234,0.1,stimuli/lakes/9070106_left.png,stimuli/lakes/9070106_right.png,,,,0,40,40,106,1,,,,,
,,,,,,$5ebeb0f92abb6a23399fba3b,2020-07-20_15h34.20.116,fisher_task,2020.1.3,Win32,60,-0.134259259,-0.435185185,1,0,0,1.266505,scale,,,,,,0.349027907,0.282842712,0.174513954,0.141421356,stimuli/lakes/8080118_left.png,stimuli/lakes/8080118_right.png,,,,0,41,41,118,1,,,,,
,,,,,,$5ebeb0f92abb6a23399fba3b,2020-07-20_15h34.20.116,fisher_task,2020.1.3,Win32,60,0.159259259,-0.433333333,1,0,0,1.68312,scale,,,,,,0.21373507,0.173205081,0.326485712,0.264575131,stimuli/lakes/303034_left.png,stimuli/lakes/303034_right.png,,,,0,42,42,34,1,,,,,
,,,,,,$5ebeb0f92abb6a23399fba3b,2020-07-20_15h34.20.116,fisher_task,2020.1.3,Win32,60,-0.025925926,-0.244444444,1,0,0,1.99992,scale,,,,,,0.1234,0.1,0.3702,0.3,stimuli/lakes/1090119_left.png,stimuli/lakes/1090119_right.png,,,,0,43,43,119,1,,,,,
,,,,,,$5ebeb0f92abb6a23399fba3b,2020-07-20_15h34.20.116,fisher_task,2020.1.3,Win32,60,0.17962963,-0.426851852,1,0,0,1.183255,scale,,,,,,0.174513954,0.141421356,0.349027907,0.282842712,stimuli/lakes/205060_left.png,stimuli/lakes/205060_right.png,,,space,0,44,44,60,1,3.62782,,,,
,,,,,,$5ebeb0f92abb6a23399fba3b,2020-07-20_15h34.20.116,fisher_task,2020.1.3,Win32,60,-0.134259259,-0.425,1,0,0,3.166525,scale,,,,,,0.174513954,0.141421356,0.349027907,0.282842712,stimuli/lakes/207099_left.png,stimuli/lakes/207099_right.png,,,,0,45,45,99,1,,,,,
,,,,,,$5ebeb0f92abb6a23399fba3b,2020-07-20_15h34.20.116,fisher_task,2020.1.3,Win32,60,-0.157407407,-0.375925926,1,0,0,0.73319,scale,,,,,,0.174513954,0.141421356,0.349027907,0.282842712,stimuli/lakes/2090120_left.png,stimuli/lakes/2090120_right.png,,,,0,46,46,120,1,,,,,
,,,,,,$5ebeb0f92abb6a23399fba3b,2020-07-20_15h34.20.116,fisher_task,2020.1.3,Win32,60,0.14537037,-0.424074074,1,0,0,0.94987,scale,,,,,,0.174513954,0.141421356,0.349027907,0.282842712,stimuli/lakes/202011_left.png,stimuli/lakes/202011_right.png,,,,0,47,47,11,1,,,,,
,,,,,,$5ebeb0f92abb6a23399fba3b,2020-07-20_15h34.20.116,fisher_task,2020.1.3,Win32,60,0.126851852,-0.410185185,1,0,0,0.81651,scale,,,,,,0.2468,0.2,0.302267034,0.244948974,stimuli/lakes/404053_left.png,stimuli/lakes/404053_right.png,,,,0,48,48,53,1,,,,,
,,,,,,$5ebeb0f92abb6a23399fba3b,2020-07-20_15h34.20.116,fisher_task,2020.1.3,Win32,60,-0.081481481,-0.401851852,1,0,0,3.38322,scale,,,,,,0.349027907,0.282842712,0.174513954,0.141421356,stimuli/lakes/806087_left.png,stimuli/lakes/806087_right.png,,,,0,49,49,87,1,,,,,
,,,,,,$5ebeb0f92abb6a23399fba3b,2020-07-20_15h34.20.116,fisher_task,2020.1.3,Win32,60,0.156481481,-0.412037037,1,0,0,1.9165,scale,,,,,,0.2468,0.2,0.302267034,0.244948974,stimuli/lakes/40102_left.png,stimuli/lakes/40102_right.png,,,,0,50,50,2,1,,,,,
,,,,,,$5ebeb0f92abb6a23399fba3b,2020-07-20_15h34.20.116,fisher_task,2020.1.3,Win32,60,-0.149074074,-0.422222222,1,0,0,4.68318,scale,,,,,,0.302267034,0.244948974,0.2468,0.2,stimuli/lakes/6080115_left.png,stimuli/lakes/6080115_right.png,,,,0,51,51,115,1,,,,,
,,,,,,$5ebeb0f92abb6a23399fba3b,2020-07-20_15h34.20.116,fisher_task,2020.1.3,Win32,60,0.143518519,-0.287037037,1,0,0,0.899865,scale,,,,,,0.349027907,0.282842712,0.174513954,0.141421356,stimuli/lakes/803039_left.png,stimuli/lakes/803039_right.png,,,,0,52,52,39,1,,,,,
,,,,,,$5ebeb0f92abb6a23399fba3b,2020-07-20_15h34.20.116,fisher_task,2020.1.3,Win32,60,-0.167592593,-0.359259259,1,0,0,0.983295,scale,,,,,,0.302267034,0.244948974,0.2468,0.2,stimuli/lakes/6080114_left.png,stimuli/lakes/6080114_right.png,,,,0,53,53,114,1,,,,,
,,,,,,$5ebeb0f92abb6a23399fba3b,2020-07-20_15h34.20.116,fisher_task,2020.1.3,Win32,60,0.077777778,-0.275925926,1,0,0,1.233205,scale,,,,,,0.3702,0.3,0.1234,0.1,stimuli/lakes/904049_left.png,stimuli/lakes/904049_right.png,,,,0,54,54,49,1,,,,,
,,,,,,$5ebeb0f92abb6a23399fba3b,2020-07-20_15h34.20.116,fisher_task,2020.1.3,Win32,60,0.139814815,-0.393518519,1,0,0,1.183045,scale,,,,,,0.174513954,0.141421356,0.349027907,0.282842712,stimuli/lakes/203024_left.png,stimuli/lakes/203024_right.png,,,,0,55,55,24,1,,,,,
,,,,,,$5ebeb0f92abb6a23399fba3b,2020-07-20_15h34.20.116,fisher_task,2020.1.3,Win32,60,0.137962963,-0.378703704,1,0,0,0.749865,scale,,,,,,0.3702,0.3,0.1234,0.1,stimuli/lakes/902022_left.png,stimuli/lakes/902022_right.png,,,,0,56,56,22,1,,,,,
,,,,,,$5ebeb0f92abb6a23399fba3b,2020-07-20_15h34.20.116,fisher_task,2020.1.3,Win32,60,-0.169444444,-0.4,1,0,0,0.983235,scale,,,,,,0.302267034,0.244948974,0.2468,0.2,stimuli/lakes/6090127_left.png,stimuli/lakes/6090127_right.png,,,,0,57,57,127,1,,,,,
,,,,,,$5ebeb0f92abb6a23399fba3b,2020-07-20_15h34.20.116,fisher_task,2020.1.3,Win32,60,-0.15,-0.383333333,1,0,0,0.76644,scale,,,,,,0.1234,0.1,0.3702,0.3,stimuli/lakes/106071_left.png,stimuli/lakes/106071_right.png,,,,0,58,58,71,1,,,,,
,,,,,,$5ebeb0f92abb6a23399fba3b,2020-07-20_15h34.20.116,fisher_task,2020.1.3,Win32,60,-0.140740741,-0.373148148,1,0,0,0.48321,scale,,,,,,0.21373507,0.173205081,0.326485712,0.264575131,stimuli/lakes/3090121_left.png,stimuli/lakes/3090121_right.png,,,,0,59,59,121,1,,,,,
,,,,,,$5ebeb0f92abb6a23399fba3b,2020-07-20_15h34.20.116,fisher_task,2020.1.3,Win32,60,0.187962963,-0.416666667,1,0,0,0.79991,scale,,,,,,0.326485712,0.264575131,0.21373507,0.173205081,stimuli/lakes/70108_left.png,stimuli/lakes/70108_right.png,,,,0,60,60,8,1,,,,,
,,,,,,$5ebeb0f92abb6a23399fba3b,2020-07-20_15h34.20.116,fisher_task,2020.1.3,Win32,60,0.17962963,-0.413888889,1,0,0,0.51653,scale,,,,,,0.302267034,0.244948974,0.2468,0.2,stimuli/lakes/60105_left.png,stimuli/lakes/60105_right.png,,,,0,61,61,5,1,,,,,
,,,,,,$5ebeb0f92abb6a23399fba3b,2020-07-20_15h34.20.116,fisher_task,2020.1.3,Win32,60,-0.100925926,-0.421296296,1,0,0,0.69987,scale,,,,,,0.1234,0.1,0.3702,0.3,stimuli/lakes/1080107_left.png,stimuli/lakes/1080107_right.png,,,,0,62,62,107,1,,,,,
,,,,,,$5ebeb0f92abb6a23399fba3b,2020-07-20_15h34.20.116,fisher_task,2020.1.3,Win32,60,0.084259259,-0.343518519,1,0,0,0.699835,scale,,,,,,0.275930788,0.223606798,0.275930788,0.223606798,stimuli/lakes/502016_left.png,stimuli/lakes/502016_right.png,,,,0,63,63,16,1,,,,,
,,,,,,$5ebeb0f92abb6a23399fba3b,2020-07-20_15h34.20.116,fisher_task,2020.1.3,Win32,60,0.147222222,-0.325925926,1,0,0,0.88321,scale,,,,,,0.1234,0.1,0.3702,0.3,stimuli/lakes/104050_left.png,stimuli/lakes/104050_right.png,,,,0,64,64,50,1,,,,,
,,,,,,$5ebeb0f92abb6a23399fba3b,2020-07-20_15h34.20.116,fisher_task,2020.1.3,Win32,60,-0.115740741,-0.341666667,1,0,0,0.816525,scale,,,,,,0.21373507,0.173205081,0.326485712,0.264575131,stimuli/lakes/3080110_left.png,stimuli/lakes/3080110_right.png,,,,0,65,65,110,1,,,,,
,,,,,,$5ebeb0f92abb6a23399fba3b,2020-07-20_15h34.20.116,fisher_task,2020.1.3,Win32,60,-0.225925926,-0.248148148,1,0,0,0.89986,scale,,,,,,0.275930788,0.223606798,0.275930788,0.223606798,stimuli/lakes/5080113_left.png,stimuli/lakes/5080113_right.png,,,space,0,66,66,113,1,4.45949,,,,
,,,,,,$5ebeb0f92abb6a23399fba3b,2020-07-20_15h34.20.116,fisher_task,2020.1.3,Win32,60,-0.161111111,-0.389814815,1,0,0,0.93319,scale,,,,,,0.302267034,0.244948974,0.2468,0.2,stimuli/lakes/6090126_left.png,stimuli/lakes/6090126_right.png,,,,0,67,67,126,1,,,,,
,,,,,,$5ebeb0f92abb6a23399fba3b,2020-07-20_15h34.20.116,fisher_task,2020.1.3,Win32,60,0.164814815,-0.411111111,1,0,0,1.116725,scale,,,,,,0.275930788,0.223606798,0.275930788,0.223606798,stimuli/lakes/503036_left.png,stimuli/lakes/503036_right.png,,,,0,68,68,36,1,,,,,
,,,,,,$5ebeb0f92abb6a23399fba3b,2020-07-20_15h34.20.116,fisher_task,2020.1.3,Win32,60,-0.162962963,-0.406481481,1,0,0,0.799805,scale,,,,,,0.3702,0.3,0.1234,0.1,stimuli/lakes/907097_left.png,stimuli/lakes/907097_right.png,,,,0,69,69,97,1,,,,,
,,,,,,$5ebeb0f92abb6a23399fba3b,2020-07-20_15h34.20.116,fisher_task,2020.1.3,Win32,60,0.177777778,-0.399074074,1,0,0,0.833215,scale,,,,,,0.1234,0.1,0.3702,0.3,stimuli/lakes/105059_left.png,stimuli/lakes/105059_right.png,,,,0,70,70,59,1,,,,,
,,,,,,$5ebeb0f92abb6a23399fba3b,2020-07-20_15h34.20.116,fisher_task,2020.1.3,Win32,60,0.162962963,-0.391666667,1,0,0,0.466555,scale,,,,,,0.21373507,0.173205081,0.326485712,0.264575131,stimuli/lakes/303025_left.png,stimuli/lakes/303025_right.png,,,,0,71,71,25,1,,,,,
,,,,,,$5ebeb0f92abb6a23399fba3b,2020-07-20_15h34.20.116,fisher_task,2020.1.3,Win32,60,-0.006481481,-0.227777778,1,0,0,1.366545,scale,,,,,,0.349027907,0.282842712,0.174513954,0.141421356,stimuli/lakes/802021_left.png,stimuli/lakes/802021_right.png,,,,0,72,72,21,1,,,,,
,,,,,,$5ebeb0f92abb6a23399fba3b,2020-07-20_15h34.20.116,fisher_task,2020.1.3,Win32,60,0.242592593,-0.318518519,1,0,0,0.5833,scale,,,,,,0.302267034,0.244948974,0.2468,0.2,stimuli/lakes/60106_left.png,stimuli/lakes/60106_right.png,,,,0,73,73,6,1,,,,,
,,,,,,$5ebeb0f92abb6a23399fba3b,2020-07-20_15h34.20.116,fisher_task,2020.1.3,Win32,60,0.141666667,-0.376851852,1,0,0,1.19986,scale,,,,,,0.302267034,0.244948974,0.2468,0.2,stimuli/lakes/602017_left.png,stimuli/lakes/602017_right.png,,,,0,74,74,17,1,,,,,
,,,,,,$5ebeb0f92abb6a23399fba3b,2020-07-20_15h34.20.116,fisher_task,2020.1.3,Win32,60,-0.131481481,-0.331481481,1,0,0,1.216765,scale,,,,,,0.349027907,0.282842712,0.174513954,0.141421356,stimuli/lakes/804048_left.png,stimuli/lakes/804048_right.png,,,,0,75,75,48,1,,,,,
,,,,,,$5ebeb0f92abb6a23399fba3b,2020-07-20_15h34.20.116,fisher_task,2020.1.3,Win32,60,0.126851852,-0.310185185,1,0,0,0.74979,scale,,,,,,0.21373507,0.173205081,0.326485712,0.264575131,stimuli/lakes/302012_left.png,stimuli/lakes/302012_right.png,,,,0,76,76,12,1,,,,,
,,,,,,$5ebeb0f92abb6a23399fba3b,2020-07-20_15h34.20.116,fisher_task,2020.1.3,Win32,60,0.158333333,-0.346296296,1,0,0,0.766475,scale,,,,,,0.21373507,0.173205081,0.326485712,0.264575131,stimuli/lakes/30100_left.png,stimuli/lakes/30100_right.png,,,,0,77,77,0,1,,,,,
,,,,,,$5ebeb0f92abb6a23399fba3b,2020-07-20_15h34.20.116,fisher_task,2020.1.3,Win32,60,0.152777778,-0.388888889,1,0,0,0.98321,scale,,,,,,0.21373507,0.173205081,0.326485712,0.264575131,stimuli/lakes/304043_left.png,stimuli/lakes/304043_right.png,,,,0,78,78,43,1,,,,,
,,,,,,$5ebeb0f92abb6a23399fba3b,2020-07-20_15h34.20.116,fisher_task,2020.1.3,Win32,60,0.152777778,-0.387962963,1,0,0,0.749865,scale,,,,,,0.1234,0.1,0.3702,0.3,stimuli/lakes/103023_left.png,stimuli/lakes/103023_right.png,,,,0,79,79,23,1,,,,,
,,,,,,$5ebeb0f92abb6a23399fba3b,2020-07-20_15h34.20.116,fisher_task,2020.1.3,Win32,60,0.160185185,-0.373148148,1,0,0,0.74993,scale,,,,,,0.326485712,0.264575131,0.21373507,0.173205081,stimuli/lakes/703029_left.png,stimuli/lakes/703029_right.png,,,,0,80,80,29,1,,,,,
,,,,,,$5ebeb0f92abb6a23399fba3b,2020-07-20_15h34.20.116,fisher_task,2020.1.3,Win32,60,0.159259259,-0.337037037,1,0,0,0.816595,scale,,,,,,0.302267034,0.244948974,0.2468,0.2,stimuli/lakes/603028_left.png,stimuli/lakes/603028_right.png,,,,0,81,81,28,1,,,,,
,,,,,,$5ebeb0f92abb6a23399fba3b,2020-07-20_15h34.20.116,fisher_task,2020.1.3,Win32,60,-0.200925926,-0.384259259,1,0,0,0.99991,scale,,,,,,0.21373507,0.173205081,0.326485712,0.264575131,stimuli/lakes/3090122_left.png,stimuli/lakes/3090122_right.png,,,,0,82,82,122,1,,,,,
,,,,,,$5ebeb0f92abb6a23399fba3b,2020-07-20_15h34.20.116,fisher_task,2020.1.3,Win32,60,0.187037037,-0.417592593,1,0,0,0.94949,scale,,,,,,0.2468,0.2,0.302267034,0.244948974,stimuli/lakes/403026_left.png,stimuli/lakes/403026_right.png,,,,0,83,83,26,1,,,,,
,,,,,,$5ebeb0f92abb6a23399fba3b,2020-07-20_15h34.20.116,fisher_task,2020.1.3,Win32,60,-0.175,-0.391666667,1,0,0,0.883235,scale,,,,,,0.2468,0.2,0.302267034,0.244948974,stimuli/lakes/4080112_left.png,stimuli/lakes/4080112_right.png,,,,0,84,84,112,1,,,,,
,,,,,,$5ebeb0f92abb6a23399fba3b,2020-07-20_15h34.20.116,fisher_task,2020.1.3,Win32,60,0.150925926,-0.385185185,1,0,0,1.0164,scale,,,,,,0.326485712,0.264575131,0.21373507,0.173205081,stimuli/lakes/702019_left.png,stimuli/lakes/702019_right.png,,,,0,85,85,19,1,,,,,
,,,,,,$5ebeb0f92abb6a23399fba3b,2020-07-20_15h34.20.116,fisher_task,2020.1.3,Win32,60,-0.141666667,-0.412037037,1,0,0,0.799885,scale,,,,,,0.2468,0.2,0.302267034,0.244948974,stimuli/lakes/4080111_left.png,stimuli/lakes/4080111_right.png,,,,0,86,86,111,1,,,,,
,,,,,,$5ebeb0f92abb6a23399fba3b,2020-07-20_15h34.20.116,fisher_task,2020.1.3,Win32,60,-0.172222222,-0.407407407,1,0,0,0.999955,scale,,,,,,0.1234,0.1,0.3702,0.3,stimuli/lakes/107089_left.png,stimuli/lakes/107089_right.png,,,,0,87,87,89,1,,,,,
,,,,,,$5ebeb0f92abb6a23399fba3b,2020-07-20_15h34.20.116,fisher_task,2020.1.3,Win32,60,-0.15,-0.387037037,1,0,0,0.86653,scale,,,,,,0.326485712,0.264575131,0.21373507,0.173205081,stimuli/lakes/705067_left.png,stimuli/lakes/705067_right.png,,,space,0,88,88,67,1,1.43849,,,,
,,,,,,$5ebeb0f92abb6a23399fba3b,2020-07-20_15h34.20.116,fisher_task,2020.1.3,Win32,60,0.17962963,-0.34537037,1,0,0,0.533215,scale,,,,,,0.174513954,0.141421356,0.349027907,0.282842712,stimuli/lakes/203033_left.png,stimuli/lakes/203033_right.png,,,,0,89,89,33,1,,,,,
,,,,,,$5ebeb0f92abb6a23399fba3b,2020-07-20_15h34.20.116,fisher_task,2020.1.3,Win32,60,-0.143518519,-0.369444444,1,0,0,5.349735,scale,,,,,,0.275930788,0.223606798,0.275930788,0.223606798,stimuli/lakes/506084_left.png,stimuli/lakes/506084_right.png,,,,0,90,90,84,1,,,,,
,,,,,,$5ebeb0f92abb6a23399fba3b,2020-07-20_15h34.20.116,fisher_task,2020.1.3,Win32,60,0.109259259,-0.398148148,1,0,0,0.66657,scale,,,,,,0.21373507,0.173205081,0.326485712,0.264575131,stimuli/lakes/3070100_left.png,stimuli/lakes/3070100_right.png,,,,0,91,91,100,1,,,,,
,,,,,,$5ebeb0f92abb6a23399fba3b,2020-07-20_15h34.20.116,fisher_task,2020.1.3,Win32,60,-0.175,-0.360185185,1,0,0,0.099735,scale,,,,,,0.302267034,0.244948974,0.2468,0.2,stimuli/lakes/604055_left.png,stimuli/lakes/604055_right.png,,,,0,92,92,55,1,,,,,
,,,,,,$5ebeb0f92abb6a23399fba3b,2020-07-20_15h34.20.116,fisher_task,2020.1.3,Win32,60,-0.17037037,-0.364814815,1,0,0,0.09981,scale,,,,,,0.349027907,0.282842712,0.174513954,0.141421356,stimuli/lakes/80109_left.png,stimuli/lakes/80109_right.png,,,,0,93,93,9,1,,,,,
,,,,,,$5ebeb0f92abb6a23399fba3b,2020-07-20_15h34.20.116,fisher_task,2020.1.3,Win32,60,-0.111111111,-0.275,1,0,0,0.416485,scale,,,,,,0.326485712,0.264575131,0.21373507,0.173205081,stimuli/lakes/705068_left.png,stimuli/lakes/705068_right.png,,,,0,94,94,68,1,,,,,
,,,,,,$5ebeb0f92abb6a23399fba3b,2020-07-20_15h34.20.116,fisher_task,2020.1.3,Win32,60,-0.111111111,-0.275,1,0,0,0.01656,scale,,,,,,0.326485712,0.264575131,0.21373507,0.173205081,stimuli/lakes/704056_left.png,stimuli/lakes/704056_right.png,,,,0,95,95,56,1,,,,,
,,,,,,$5ebeb0f92abb6a23399fba3b,2020-07-20_15h34.20.116,fisher_task,2020.1.3,Win32,60,0.158333333,-0.338888889,1,0,0,0.31644,scale,,,,,,0.21373507,0.173205081,0.326485712,0.264575131,stimuli/lakes/304052_left.png,stimuli/lakes/304052_right.png,,,,0,96,96,52,1,,,,,
,,,,,,$5ebeb0f92abb6a23399fba3b,2020-07-20_15h34.20.116,fisher_task,2020.1.3,Win32,60,0.155555556,-0.427777778,1,0,0,0.699795,scale,,,,,,0.1234,0.1,0.3702,0.3,stimuli/lakes/103032_left.png,stimuli/lakes/103032_right.png,,,,0,97,97,32,1,,,,,
,,,,,,$5ebeb0f92abb6a23399fba3b,2020-07-20_15h34.20.116,fisher_task,2020.1.3,Win32,60,-0.196296296,-0.410185185,1,0,0,0.249865,scale,,,,,,0.349027907,0.282842712,0.174513954,0.141421356,stimuli/lakes/8070105_left.png,stimuli/lakes/8070105_right.png,,,,0,98,98,105,1,,,,,
,,,,,,$5ebeb0f92abb6a23399fba3b,2020-07-20_15h34.20.116,fisher_task,2020.1.3,Win32,60,-0.089814815,-0.277777778,1,0,0,0.799945,scale,,,,,,0.302267034,0.244948974,0.2468,0.2,stimuli/lakes/607094_left.png,stimuli/lakes/607094_right.png,,,,0,99,99,94,1,,,,,
,,,,,,$5ebeb0f92abb6a23399fba3b,2020-07-20_15h34.20.116,fisher_task,2020.1.3,Win32,60,-0.171296296,-0.438888889,1,0,0,0.19991,scale,,,,,,0.349027907,0.282842712,0.174513954,0.141421356,stimuli/lakes/805069_left.png,stimuli/lakes/805069_right.png,,,,0,100,100,69,1,,,,,
,,,,,,$5ebeb0f92abb6a23399fba3b,2020-07-20_15h34.20.116,fisher_task,2020.1.3,Win32,60,-0.014814815,-0.282407407,1,0,0,0.083135,scale,,,,,,0.275930788,0.223606798,0.275930788,0.223606798,stimuli/lakes/504054_left.png,stimuli/lakes/504054_right.png,,,,0,101,101,54,1,,,,,
,,,,,,$5ebeb0f92abb6a23399fba3b,2020-07-20_15h34.20.116,fisher_task,2020.1.3,Win32,60,0.177777778,-0.405555556,1,0,0,0.016515,scale,,,,,,0.174513954,0.141421356,0.349027907,0.282842712,stimuli/lakes/206081_left.png,stimuli/lakes/206081_right.png,,,,0,102,102,81,1,,,,,
,,,,,,$5ebeb0f92abb6a23399fba3b,2020-07-20_15h34.20.116,fisher_task,2020.1.3,Win32,60,-0.148148148,-0.42037037,1,0,0,1.166545,scale,,,,,,0.326485712,0.264575131,0.21373507,0.173205081,stimuli/lakes/706077_left.png,stimuli/lakes/706077_right.png,,,,0,103,103,77,1,,,,,
,,,,,,$5ebeb0f92abb6a23399fba3b,2020-07-20_15h34.20.116,fisher_task,2020.1.3,Win32,60,0.006481481,-0.240740741,1,0,0,0.316355,scale,,,,,,0.2468,0.2,0.302267034,0.244948974,stimuli/lakes/402015_left.png,stimuli/lakes/402015_right.png,,,,0,104,104,15,1,,,,,
,,,,,,$5ebeb0f92abb6a23399fba3b,2020-07-20_15h34.20.116,fisher_task,2020.1.3,Win32,60,-0.009259259,-0.25,1,0,0,0.01636,scale,,,,,,0.2468,0.2,0.302267034,0.244948974,stimuli/lakes/407092_left.png,stimuli/lakes/407092_right.png,,,,0,105,105,92,1,,,,,
,,,,,,$5ebeb0f92abb6a23399fba3b,2020-07-20_15h34.20.116,fisher_task,2020.1.3,Win32,60,-0.133333333,-0.337037037,1,0,0,0.581905,scale,,,,,,0.302267034,0.244948974,0.2468,0.2,stimuli/lakes/605066_left.png,stimuli/lakes/605066_right.png,,,,0,106,106,66,1,,,,,
,,,,,,$5ebeb0f92abb6a23399fba3b,2020-07-20_15h34.20.116,fisher_task,2020.1.3,Win32,60,0.163888889,-0.362962963,1,0,0,0.566455,scale,,,,,,0.1234,0.1,0.3702,0.3,stimuli/lakes/107098_left.png,stimuli/lakes/107098_right.png,,,,0,107,107,98,1,,,,,
,,,,,,$5ebeb0f92abb6a23399fba3b,2020-07-20_15h34.20.116,fisher_task,2020.1.3,Win32,60,-0.071296296,-0.34537037,1,0,0,0.816555,scale,,,,,,0.275930788,0.223606798,0.275930788,0.223606798,stimuli/lakes/5090125_left.png,stimuli/lakes/5090125_right.png,,,,0,108,108,125,1,,,,,
,,,,,,$5ebeb0f92abb6a23399fba3b,2020-07-20_15h34.20.116,fisher_task,2020.1.3,Win32,60,-0.144444444,-0.325925926,1,0,0,0.38312,scale,,,,,,0.275930788,0.223606798,0.275930788,0.223606798,stimuli/lakes/507093_left.png,stimuli/lakes/507093_right.png,,,,0,109,109,93,1,,,,,
,,,,,,$5ebeb0f92abb6a23399fba3b,2020-07-20_15h34.20.116,fisher_task,2020.1.3,Win32,60,-0.147222222,-0.305555556,1,0,0,0.44979,scale,,,,,,0.326485712,0.264575131,0.21373507,0.173205081,stimuli/lakes/707095_left.png,stimuli/lakes/707095_right.png,,,space,0,110,110,95,1,3.82415,,,,
,,,,,,$5ebeb0f92abb6a23399fba3b,2020-07-20_15h34.20.116,fisher_task,2020.1.3,Win32,60,0.137962963,-0.378703704,1,0,0,0.93323,scale,,,,,,0.2468,0.2,0.302267034,0.244948974,stimuli/lakes/404044_left.png,stimuli/lakes/404044_right.png,,,,0,111,111,44,1,,,,,
,,,,,,$5ebeb0f92abb6a23399fba3b,2020-07-20_15h34.20.116,fisher_task,2020.1.3,Win32,60,0.150925926,-0.398148148,1,0,0,0.949825,scale,,,,,,0.1234,0.1,0.3702,0.3,stimuli/lakes/104041_left.png,stimuli/lakes/104041_right.png,,,,0,112,112,41,1,,,,,
,,,,,,$5ebeb0f92abb6a23399fba3b,2020-07-20_15h34.20.116,fisher_task,2020.1.3,Win32,60,-0.137962963,-0.317592593,1,0,0,0.9999,scale,,,,,,0.2468,0.2,0.302267034,0.244948974,stimuli/lakes/4090124_left.png,stimuli/lakes/4090124_right.png,,,,0,113,113,124,1,,,,,
,,,,,,$5ebeb0f92abb6a23399fba3b,2020-07-20_15h34.20.116,fisher_task,2020.1.3,Win32,60,-0.150925926,-0.401851852,1,0,0,0.74989,scale,,,,,,0.326485712,0.264575131,0.21373507,0.173205081,stimuli/lakes/7090128_left.png,stimuli/lakes/7090128_right.png,,,,0,114,114,128,1,,,,,
,,,,,,$5ebeb0f92abb6a23399fba3b,2020-07-20_15h34.20.116,fisher_task,2020.1.3,Win32,60,0.131481481,-0.410185185,1,0,0,0.86656,scale,,,,,,0.302267034,0.244948974,0.2468,0.2,stimuli/lakes/602018_left.png,stimuli/lakes/602018_right.png,,,,0,115,115,18,1,,,,,
,,,,,,$5ebeb0f92abb6a23399fba3b,2020-07-20_15h34.20.116,fisher_task,2020.1.3,Win32,60,0.166666667,-0.364814815,1,0,0,0.94969,scale,,,,,,0.349027907,0.282842712,0.174513954,0.141421356,stimuli/lakes/804057_left.png,stimuli/lakes/804057_right.png,,,,0,116,116,57,1,,,,,
,,,,,,$5ebeb0f92abb6a23399fba3b,2020-07-20_15h34.20.116,fisher_task,2020.1.3,Win32,60,0.175925926,-0.440740741,1,0,0,0.999885,scale,,,,,,0.275930788,0.223606798,0.275930788,0.223606798,stimuli/lakes/504045_left.png,stimuli/lakes/504045_right.png,,,,0,117,117,45,1,,,,,
,,,,,,$5ebeb0f92abb6a23399fba3b,2020-07-20_15h34.20.116,fisher_task,2020.1.3,Win32,60,0.17037037,-0.418518519,1,0,0,0.598385,scale,,,,,,0.275930788,0.223606798,0.275930788,0.223606798,stimuli/lakes/503027_left.png,stimuli/lakes/503027_right.png,,,,0,118,118,27,1,,,,,
,,,,,,$5ebeb0f92abb6a23399fba3b,2020-07-20_15h34.20.116,fisher_task,2020.1.3,Win32,60,-0.142592593,-0.314814815,1,0,0,0.96651,scale,,,,,,0.302267034,0.244948974,0.2468,0.2,stimuli/lakes/6070103_left.png,stimuli/lakes/6070103_right.png,,,,0,119,119,103,1,,,,,
,,,,,,$5ebeb0f92abb6a23399fba3b,2020-07-20_15h34.20.116,fisher_task,2020.1.3,Win32,60,-0.165740741,-0.439814815,1,0,0,0.683225,scale,,,,,,0.3702,0.3,0.1234,0.1,stimuli/lakes/904058_left.png,stimuli/lakes/904058_right.png,,,,0,120,120,58,1,,,,,
,,,,,,$5ebeb0f92abb6a23399fba3b,2020-07-20_15h34.20.116,fisher_task,2020.1.3,Win32,60,-0.126851852,-0.311111111,1,0,0,0.38329,scale,,,,,,0.326485712,0.264575131,0.21373507,0.173205081,stimuli/lakes/702020_left.png,stimuli/lakes/702020_right.png,,,,0,121,121,20,1,,,,,
,,,,,,$5ebeb0f92abb6a23399fba3b,2020-07-20_15h34.20.116,fisher_task,2020.1.3,Win32,60,0.173148148,-0.394444444,1,0,0,0.999695,scale,,,,,,0.326485712,0.264575131,0.21373507,0.173205081,stimuli/lakes/706086_left.png,stimuli/lakes/706086_right.png,,,,0,122,122,86,1,,,,,
,,,,,,$5ebeb0f92abb6a23399fba3b,2020-07-20_15h34.20.116,fisher_task,2020.1.3,Win32,60,-0.139814815,-0.340740741,1,0,0,0.89987,scale,,,,,,0.326485712,0.264575131,0.21373507,0.173205081,stimuli/lakes/7070104_left.png,stimuli/lakes/7070104_right.png,,,,0,123,123,104,1,,,,,
,,,,,,$5ebeb0f92abb6a23399fba3b,2020-07-20_15h34.20.116,fisher_task,2020.1.3,Win32,60,-0.162962963,-0.40462963,1,0,0,1.083125,scale,,,,,,0.326485712,0.264575131,0.21373507,0.173205081,stimuli/lakes/7090129_left.png,stimuli/lakes/7090129_right.png,,,,0,124,124,129,1,,,,,
,,,,,,$5ebeb0f92abb6a23399fba3b,2020-07-20_15h34.20.116,fisher_task,2020.1.3,Win32,60,-0.15462963,-0.433333333,1,0,0,0.799895,scale,,,,,,0.2468,0.2,0.302267034,0.244948974,stimuli/lakes/4090123_left.png,stimuli/lakes/4090123_right.png,,,,0,125,125,123,1,,,,,
,,,,,,$5ebeb0f92abb6a23399fba3b,2020-07-20_15h34.20.116,fisher_task,2020.1.3,Win32,60,0.136111111,-0.378703704,1,0,0,0.099815,scale,,,,,,0.21373507,0.173205081,0.326485712,0.264575131,stimuli/lakes/307091_left.png,stimuli/lakes/307091_right.png,,,,0,126,126,91,1,,,,,
,,,,,,$5ebeb0f92abb6a23399fba3b,2020-07-20_15h34.20.116,fisher_task,2020.1.3,Win32,60,-0.137962963,-0.369444444,1,0,0,0.98322,scale,,,,,,0.326485712,0.264575131,0.21373507,0.173205081,stimuli/lakes/703038_left.png,stimuli/lakes/703038_right.png,,,,0,127,127,38,1,,,,,
,,,,,,$5ebeb0f92abb6a23399fba3b,2020-07-20_15h34.20.116,fisher_task,2020.1.3,Win32,60,0.137962963,-0.391666667,1,0,0,0.69982,scale,,,,,,0.302267034,0.244948974,0.2468,0.2,stimuli/lakes/603037_left.png,stimuli/lakes/603037_right.png,,,,0,128,128,37,1,,,,,
,,,,,,$5ebeb0f92abb6a23399fba3b,2020-07-20_15h34.20.116,fisher_task,2020.1.3,Win32,60,0.133333333,-0.381481481,1,0,0,0.56654,scale,,,,,,0.2468,0.2,0.302267034,0.244948974,stimuli/lakes/405064_left.png,stimuli/lakes/405064_right.png,,,,0,129,129,64,1,,,,,
,,,,,,$5ebeb0f92abb6a23399fba3b,2020-07-20_15h34.20.116,fisher_task,2020.1.3,Win32,60,,,,,,,,,,,,,,,,,,,,,,,,,,,,space,15.23289,space,3.41101
