keySpace.keys,keySpace.rt,instructions.thisRepN,instructions.thisTrialN,instructions.thisN,instructions.thisIndex,instructions.ran,participant,date,expName,psychopyVersion,OS,frameRate,mouse.x,mouse.y,mouse.leftButton,mouse.midButton,mouse.rightButton,mouse.time,mouse.clicked_name,training.thisRepN,training.thisTrialN,training.thisN,training.thisIndex,training.ran,widthBasketLeft,heightBasketLeft,widthBasketRight,heightBasketRight,leftLake,rightLake,space2.keys,space2.rt,space1.keys,trials.thisRepN,trials.thisTrialN,trials.thisN,trials.thisIndex,trials.ran,space1.rt,finalSpace1.keys,finalSpace1.rt,finalSpace2.keys,finalSpace2.rt
space,2.79308,0,0,0,0,1,$5d431d09a3ad410001fe386d,2020-07-20_16h40.21.420,fisher_task,2020.1.3,Win32,60,,,,,,,,,,,,,,,,,,,,,,,,,,,,,,,
,,1,0,1,0,1,$5d431d09a3ad410001fe386d,2020-07-20_16h40.21.420,fisher_task,2020.1.3,Win32,60,,,,,,,,,,,,,,,,,,,,,,,,,,,,,,,
,,,,,,,$5d431d09a3ad410001fe386d,2020-07-20_16h40.21.420,fisher_task,2020.1.3,Win32,60,0.161111111,-0.433333333,1,0,0,2.32673,scale,0,0,0,0,1,0.275930788,0.223606798,0.275930788,0.223606798,stimuli/training/20_left.png,stimuli/training/20_right.png,,,,,,,,,,,,,
,,,,,,,$5d431d09a3ad410001fe386d,2020-07-20_16h40.21.420,fisher_task,2020.1.3,Win32,60,-0.146296296,-0.426851852,1,0,0,2.396035,scale,0,1,1,1,1,0.275930788,0.223606798,0.275930788,0.223606798,stimuli/training/80_left.png,stimuli/training/80_right.png,,,,,,,,,,,,,
,,,,,,,$5d431d09a3ad410001fe386d,2020-07-20_16h40.21.420,fisher_task,2020.1.3,Win32,60,0.125925926,-0.343518519,1,0,0,2.72945,scale,0,2,2,2,1,0.174513954,0.141421356,0.349027907,0.282842712,stimuli/training/50_left.png,stimuli/training/50_right.png,,,,,,,,,,,,,
,,,,,,,$5d431d09a3ad410001fe386d,2020-07-20_16h40.21.420,fisher_task,2020.1.3,Win32,60,-0.058333333,-0.315740741,1,0,0,6.21609,scale,0,3,3,3,1,0.349027907,0.282842712,0.174513954,0.141421356,stimuli/training/50_left.png,stimuli/training/50_right.png,,,,,,,,,,,,,
,,,,,,,$5d431d09a3ad410001fe386d,2020-07-20_16h40.21.420,fisher_task,2020.1.3,Win32,60,0.060185185,-0.30462963,1,0,0,3.000385,scale,0,4,4,4,1,0.275930788,0.223606798,0.275930788,0.223606798,stimuli/training/50_left.png,stimuli/training/50_right.png,,,,,,,,,,,,,
,,,,,,,$5d431d09a3ad410001fe386d,2020-07-20_16h40.21.420,fisher_task,2020.1.3,Win32,60,0.159259259,-0.435185185,1,0,0,1.50696,scale,0,5,5,5,1,0.174513954,0.141421356,0.349027907,0.282842712,stimuli/training/20_left.png,stimuli/training/20_right.png,,,,,,,,,,,,,
,,,,,,,$5d431d09a3ad410001fe386d,2020-07-20_16h40.21.420,fisher_task,2020.1.3,Win32,60,-0.152777778,-0.440740741,1,0,0,2.11133,scale,0,6,6,6,1,0.349027907,0.282842712,0.174513954,0.141421356,stimuli/training/80_left.png,stimuli/training/80_right.png,,,,,,,,,,,,,
,,,,,,,$5d431d09a3ad410001fe386d,2020-07-20_16h40.21.420,fisher_task,2020.1.3,Win32,60,0.150925926,-0.446296296,1,0,0,1.46536,scale,0,7,7,7,1,0.1234,0.1,0.3702,0.3,stimuli/training/30_left.png,stimuli/training/30_right.png,,,,,,,,,,,,,
,,,,,,,$5d431d09a3ad410001fe386d,2020-07-20_16h40.21.420,fisher_task,2020.1.3,Win32,60,-0.146296296,-0.387037037,1,0,0,1.701485,scale,0,8,8,8,1,0.3702,0.3,0.1234,0.1,stimuli/training/70_left.png,stimuli/training/70_right.png,,,,,,,,,,,,,
,,,,,,,$5d431d09a3ad410001fe386d,2020-07-20_16h40.21.420,fisher_task,2020.1.3,Win32,60,-0.146296296,-0.439814815,1,0,0,0.94426,scale,0,9,9,9,1,0.326485712,0.264575131,0.21373507,0.173205081,stimuli/training/90_left.png,stimuli/training/90_right.png,,,,,,,,,,,,,
,,,,,,,$5d431d09a3ad410001fe386d,2020-07-20_16h40.21.420,fisher_task,2020.1.3,Win32,60,0.158333333,-0.437962963,1,0,0,1.1667,scale,0,10,10,10,1,0.21373507,0.173205081,0.326485712,0.264575131,stimuli/training/10_left.png,stimuli/training/10_right.png,,,,,,,,,,,,,
,,,,,,,$5d431d09a3ad410001fe386d,2020-07-20_16h40.21.420,fisher_task,2020.1.3,Win32,60,0.159259259,-0.434259259,1,0,0,1.19454,scale,,,,,,0.275930788,0.223606798,0.275930788,0.223606798,stimuli/lakes/502016_left.png,stimuli/lakes/502016_right.png,space,3.83847,,0,0,0,16,1,,,,,
,,,,,,,$5d431d09a3ad410001fe386d,2020-07-20_16h40.21.420,fisher_task,2020.1.3,Win32,60,-0.115740741,-0.373148148,1,0,0,1.486045,scale,,,,,,0.302267034,0.244948974,0.2468,0.2,stimuli/lakes/6070103_left.png,stimuli/lakes/6070103_right.png,,,,0,1,1,103,1,,,,,
,,,,,,,$5d431d09a3ad410001fe386d,2020-07-20_16h40.21.420,fisher_task,2020.1.3,Win32,60,0.169444444,-0.387037037,1,0,0,1.993195,scale,,,,,,0.275930788,0.223606798,0.275930788,0.223606798,stimuli/lakes/50104_left.png,stimuli/lakes/50104_right.png,,,,0,2,2,4,1,,,,,
,,,,,,,$5d431d09a3ad410001fe386d,2020-07-20_16h40.21.420,fisher_task,2020.1.3,Win32,60,0.078703704,-0.323148148,1,0,0,3.18778,scale,,,,,,0.21373507,0.173205081,0.326485712,0.264575131,stimuli/lakes/3080110_left.png,stimuli/lakes/3080110_right.png,,,,0,3,3,110,1,,,,,
,,,,,,,$5d431d09a3ad410001fe386d,2020-07-20_16h40.21.420,fisher_task,2020.1.3,Win32,60,0.088888889,-0.337037037,1,0,0,2.99339,scale,,,,,,0.326485712,0.264575131,0.21373507,0.173205081,stimuli/lakes/704056_left.png,stimuli/lakes/704056_right.png,,,,0,4,4,56,1,,,,,
,,,,,,,$5d431d09a3ad410001fe386d,2020-07-20_16h40.21.420,fisher_task,2020.1.3,Win32,60,-0.137962963,-0.412037037,1,0,0,1.124995,scale,,,,,,0.326485712,0.264575131,0.21373507,0.173205081,stimuli/lakes/7080117_left.png,stimuli/lakes/7080117_right.png,,,,0,5,5,117,1,,,,,
,,,,,,,$5d431d09a3ad410001fe386d,2020-07-20_16h40.21.420,fisher_task,2020.1.3,Win32,60,0.092592593,-0.333333333,1,0,0,2.291975,scale,,,,,,0.21373507,0.173205081,0.326485712,0.264575131,stimuli/lakes/306073_left.png,stimuli/lakes/306073_right.png,,,,0,6,6,73,1,,,,,
,,,,,,,$5d431d09a3ad410001fe386d,2020-07-20_16h40.21.420,fisher_task,2020.1.3,Win32,60,-0.060185185,-0.308333333,1,0,0,2.87539,scale,,,,,,0.349027907,0.282842712,0.174513954,0.141421356,stimuli/lakes/804048_left.png,stimuli/lakes/804048_right.png,,,,0,7,7,48,1,,,,,
,,,,,,,$5d431d09a3ad410001fe386d,2020-07-20_16h40.21.420,fisher_task,2020.1.3,Win32,60,-0.075925926,-0.318518519,1,0,0,5.0909,scale,,,,,,0.1234,0.1,0.3702,0.3,stimuli/lakes/1090119_left.png,stimuli/lakes/1090119_right.png,,,,0,8,8,119,1,,,,,
,,,,,,,$5d431d09a3ad410001fe386d,2020-07-20_16h40.21.420,fisher_task,2020.1.3,Win32,60,0.049074074,-0.315740741,1,0,0,7.29964,scale,,,,,,0.349027907,0.282842712,0.174513954,0.141421356,stimuli/lakes/804057_left.png,stimuli/lakes/804057_right.png,,,,0,9,9,57,1,,,,,
,,,,,,,$5d431d09a3ad410001fe386d,2020-07-20_16h40.21.420,fisher_task,2020.1.3,Win32,60,-0.128703704,-0.392592593,1,0,0,2.013985,scale,,,,,,0.3702,0.3,0.1234,0.1,stimuli/lakes/907097_left.png,stimuli/lakes/907097_right.png,,,,0,10,10,97,1,,,,,
,,,,,,,$5d431d09a3ad410001fe386d,2020-07-20_16h40.21.420,fisher_task,2020.1.3,Win32,60,-0.133333333,-0.361111111,1,0,0,1.18043,scale,,,,,,0.2468,0.2,0.302267034,0.244948974,stimuli/lakes/4080112_left.png,stimuli/lakes/4080112_right.png,,,,0,11,11,112,1,,,,,
,,,,,,,$5d431d09a3ad410001fe386d,2020-07-20_16h40.21.420,fisher_task,2020.1.3,Win32,60,0.113888889,-0.389814815,1,0,0,2.409695,scale,,,,,,0.21373507,0.173205081,0.326485712,0.264575131,stimuli/lakes/305061_left.png,stimuli/lakes/305061_right.png,,,,0,12,12,61,1,,,,,
,,,,,,,$5d431d09a3ad410001fe386d,2020-07-20_16h40.21.420,fisher_task,2020.1.3,Win32,60,0.156481481,-0.438888889,1,0,0,1.083355,scale,,,,,,0.2468,0.2,0.302267034,0.244948974,stimuli/lakes/40103_left.png,stimuli/lakes/40103_right.png,,,,0,13,13,3,1,,,,,
,,,,,,,$5d431d09a3ad410001fe386d,2020-07-20_16h40.21.420,fisher_task,2020.1.3,Win32,60,0.184259259,-0.433333333,1,0,0,1.12489,scale,,,,,,0.2468,0.2,0.302267034,0.244948974,stimuli/lakes/40102_left.png,stimuli/lakes/40102_right.png,,,,0,14,14,2,1,,,,,
,,,,,,,$5d431d09a3ad410001fe386d,2020-07-20_16h40.21.420,fisher_task,2020.1.3,Win32,60,0.088888889,-0.317592593,1,0,0,1.513975,scale,,,,,,0.174513954,0.141421356,0.349027907,0.282842712,stimuli/lakes/2080108_left.png,stimuli/lakes/2080108_right.png,,,,0,15,15,108,1,,,,,
,,,,,,,$5d431d09a3ad410001fe386d,2020-07-20_16h40.21.420,fisher_task,2020.1.3,Win32,60,-0.148148148,-0.389814815,1,0,0,3.10452,scale,,,,,,0.349027907,0.282842712,0.174513954,0.141421356,stimuli/lakes/8070105_left.png,stimuli/lakes/8070105_right.png,,,,0,16,16,105,1,,,,,
,,,,,,,$5d431d09a3ad410001fe386d,2020-07-20_16h40.21.420,fisher_task,2020.1.3,Win32,60,0.15462963,-0.423148148,1,0,0,2.139975,scale,,,,,,0.1234,0.1,0.3702,0.3,stimuli/lakes/103023_left.png,stimuli/lakes/103023_right.png,,,,0,17,17,23,1,,,,,
,,,,,,,$5d431d09a3ad410001fe386d,2020-07-20_16h40.21.420,fisher_task,2020.1.3,Win32,60,-0.12037037,-0.373148148,1,0,0,3.1322,scale,,,,,,0.2468,0.2,0.302267034,0.244948974,stimuli/lakes/4090123_left.png,stimuli/lakes/4090123_right.png,,,,0,18,18,123,1,,,,,
,,,,,,,$5d431d09a3ad410001fe386d,2020-07-20_16h40.21.420,fisher_task,2020.1.3,Win32,60,0.121296296,-0.378703704,1,0,0,3.090545,scale,,,,,,0.174513954,0.141421356,0.349027907,0.282842712,stimuli/lakes/204042_left.png,stimuli/lakes/204042_right.png,,,,0,19,19,42,1,,,,,
,,,,,,,$5d431d09a3ad410001fe386d,2020-07-20_16h40.21.420,fisher_task,2020.1.3,Win32,60,-0.162037037,-0.437037037,1,0,0,1.277675,scale,,,,,,0.349027907,0.282842712,0.174513954,0.141421356,stimuli/lakes/807096_left.png,stimuli/lakes/807096_right.png,,,,0,20,20,96,1,,,,,
,,,,,,,$5d431d09a3ad410001fe386d,2020-07-20_16h40.21.420,fisher_task,2020.1.3,Win32,60,0.09537037,-0.331481481,1,0,0,1.72245,scale,,,,,,0.174513954,0.141421356,0.349027907,0.282842712,stimuli/lakes/2090120_left.png,stimuli/lakes/2090120_right.png,,,,0,21,21,120,1,,,,,
,,,,,,,$5d431d09a3ad410001fe386d,2020-07-20_16h40.21.420,fisher_task,2020.1.3,Win32,60,0.125,-0.382407407,1,0,0,1.54852,scale,,,,,,0.1234,0.1,0.3702,0.3,stimuli/lakes/106071_left.png,stimuli/lakes/106071_right.png,,,space,0,22,22,71,1,2.552075,,,,
,,,,,,,$5d431d09a3ad410001fe386d,2020-07-20_16h40.21.420,fisher_task,2020.1.3,Win32,60,-0.084259259,-0.328703704,1,0,0,3.687955,scale,,,,,,0.302267034,0.244948974,0.2468,0.2,stimuli/lakes/607094_left.png,stimuli/lakes/607094_right.png,,,,0,23,23,94,1,,,,,
,,,,,,,$5d431d09a3ad410001fe386d,2020-07-20_16h40.21.420,fisher_task,2020.1.3,Win32,60,0.151851852,-0.437037037,1,0,0,0.84719,scale,,,,,,0.1234,0.1,0.3702,0.3,stimuli/lakes/103032_left.png,stimuli/lakes/103032_right.png,,,,0,24,24,32,1,,,,,
,,,,,,,$5d431d09a3ad410001fe386d,2020-07-20_16h40.21.420,fisher_task,2020.1.3,Win32,60,-0.09537037,-0.333333333,1,0,0,2.270965,scale,,,,,,0.349027907,0.282842712,0.174513954,0.141421356,stimuli/lakes/806078_left.png,stimuli/lakes/806078_right.png,,,,0,25,25,78,1,,,,,
,,,,,,,$5d431d09a3ad410001fe386d,2020-07-20_16h40.21.420,fisher_task,2020.1.3,Win32,60,0.096296296,-0.332407407,1,0,0,2.250165,scale,,,,,,0.21373507,0.173205081,0.326485712,0.264575131,stimuli/lakes/306082_left.png,stimuli/lakes/306082_right.png,,,,0,26,26,82,1,,,,,
,,,,,,,$5d431d09a3ad410001fe386d,2020-07-20_16h40.21.420,fisher_task,2020.1.3,Win32,60,-0.09537037,-0.335185185,1,0,0,2.319665,scale,,,,,,0.302267034,0.244948974,0.2468,0.2,stimuli/lakes/602018_left.png,stimuli/lakes/602018_right.png,,,,0,27,27,18,1,,,,,
,,,,,,,$5d431d09a3ad410001fe386d,2020-07-20_16h40.21.420,fisher_task,2020.1.3,Win32,60,0.096296296,-0.346296296,1,0,0,2.31964,scale,,,,,,0.174513954,0.141421356,0.349027907,0.282842712,stimuli/lakes/203024_left.png,stimuli/lakes/203024_right.png,,,,0,28,28,24,1,,,,,
,,,,,,,$5d431d09a3ad410001fe386d,2020-07-20_16h40.21.420,fisher_task,2020.1.3,Win32,60,0.125,-0.358333333,1,0,0,3.076695,scale,,,,,,0.21373507,0.173205081,0.326485712,0.264575131,stimuli/lakes/302012_left.png,stimuli/lakes/302012_right.png,,,,0,29,29,12,1,,,,,
,,,,,,,$5d431d09a3ad410001fe386d,2020-07-20_16h40.21.420,fisher_task,2020.1.3,Win32,60,-0.148148148,-0.436111111,1,0,0,1.485975,scale,,,,,,0.3702,0.3,0.1234,0.1,stimuli/lakes/906088_left.png,stimuli/lakes/906088_right.png,,,,0,30,30,88,1,,,,,
,,,,,,,$5d431d09a3ad410001fe386d,2020-07-20_16h40.21.420,fisher_task,2020.1.3,Win32,60,-0.137037037,-0.391666667,1,0,0,1.263955,scale,,,,,,0.275930788,0.223606798,0.275930788,0.223606798,stimuli/lakes/5080113_left.png,stimuli/lakes/5080113_right.png,,,,0,31,31,113,1,,,,,
,,,,,,,$5d431d09a3ad410001fe386d,2020-07-20_16h40.21.420,fisher_task,2020.1.3,Win32,60,0.127777778,-0.346296296,1,0,0,1.6459,scale,,,,,,0.2468,0.2,0.302267034,0.244948974,stimuli/lakes/404044_left.png,stimuli/lakes/404044_right.png,,,,0,32,32,44,1,,,,,
,,,,,,,$5d431d09a3ad410001fe386d,2020-07-20_16h40.21.420,fisher_task,2020.1.3,Win32,60,-0.098148148,-0.324074074,1,0,0,2.451615,scale,,,,,,0.2468,0.2,0.302267034,0.244948974,stimuli/lakes/4090124_left.png,stimuli/lakes/4090124_right.png,,,,0,33,33,124,1,,,,,
,,,,,,,$5d431d09a3ad410001fe386d,2020-07-20_16h40.21.420,fisher_task,2020.1.3,Win32,60,0.123148148,-0.334259259,1,0,0,3.194725,scale,,,,,,0.326485712,0.264575131,0.21373507,0.173205081,stimuli/lakes/702020_left.png,stimuli/lakes/702020_right.png,,,,0,34,34,20,1,,,,,
,,,,,,,$5d431d09a3ad410001fe386d,2020-07-20_16h40.21.420,fisher_task,2020.1.3,Win32,60,0.127777778,-0.350925926,1,0,0,2.21533,scale,,,,,,0.275930788,0.223606798,0.275930788,0.223606798,stimuli/lakes/503036_left.png,stimuli/lakes/503036_right.png,,,,0,35,35,36,1,,,,,
,,,,,,,$5d431d09a3ad410001fe386d,2020-07-20_16h40.21.420,fisher_task,2020.1.3,Win32,60,-0.086111111,-0.314814815,1,0,0,2.986385,scale,,,,,,0.3702,0.3,0.1234,0.1,stimuli/lakes/904058_left.png,stimuli/lakes/904058_right.png,,,,0,36,36,58,1,,,,,
,,,,,,,$5d431d09a3ad410001fe386d,2020-07-20_16h40.21.420,fisher_task,2020.1.3,Win32,60,-0.011111111,-0.286111111,1,0,0,4.674255,scale,,,,,,0.174513954,0.141421356,0.349027907,0.282842712,stimuli/lakes/206081_left.png,stimuli/lakes/206081_right.png,,,,0,37,37,81,1,,,,,
,,,,,,,$5d431d09a3ad410001fe386d,2020-07-20_16h40.21.420,fisher_task,2020.1.3,Win32,60,0.007407407,-0.278703704,1,0,0,2.54879,scale,,,,,,0.349027907,0.282842712,0.174513954,0.141421356,stimuli/lakes/803039_left.png,stimuli/lakes/803039_right.png,,,,0,38,38,39,1,,,,,
,,,,,,,$5d431d09a3ad410001fe386d,2020-07-20_16h40.21.420,fisher_task,2020.1.3,Win32,60,-0.106481481,-0.337962963,1,0,0,2.521135,scale,,,,,,0.2468,0.2,0.302267034,0.244948974,stimuli/lakes/406083_left.png,stimuli/lakes/406083_right.png,,,,0,39,39,83,1,,,,,
,,,,,,,$5d431d09a3ad410001fe386d,2020-07-20_16h40.21.420,fisher_task,2020.1.3,Win32,60,-0.083333333,-0.312962963,1,0,0,1.79876,scale,,,,,,0.21373507,0.173205081,0.326485712,0.264575131,stimuli/lakes/3070100_left.png,stimuli/lakes/3070100_right.png,,,,0,40,40,100,1,,,,,
,,,,,,,$5d431d09a3ad410001fe386d,2020-07-20_16h40.21.420,fisher_task,2020.1.3,Win32,60,-0.151851852,-0.437962963,1,0,0,1.09726,scale,,,,,,0.3702,0.3,0.1234,0.1,stimuli/lakes/9070106_left.png,stimuli/lakes/9070106_right.png,,,,0,41,41,106,1,,,,,
,,,,,,,$5d431d09a3ad410001fe386d,2020-07-20_16h40.21.420,fisher_task,2020.1.3,Win32,60,-0.133333333,-0.353703704,1,0,0,1.33337,scale,,,,,,0.302267034,0.244948974,0.2468,0.2,stimuli/lakes/604046_left.png,stimuli/lakes/604046_right.png,,,,0,42,42,46,1,,,,,
,,,,,,,$5d431d09a3ad410001fe386d,2020-07-20_16h40.21.420,fisher_task,2020.1.3,Win32,60,0.063888889,-0.30462963,1,0,0,4.556295,scale,,,,,,0.302267034,0.244948974,0.2468,0.2,stimuli/lakes/602017_left.png,stimuli/lakes/602017_right.png,,,,0,43,43,17,1,,,,,
,,,,,,,$5d431d09a3ad410001fe386d,2020-07-20_16h40.21.420,fisher_task,2020.1.3,Win32,60,0.133333333,-0.42962963,1,0,0,3.569815,scale,,,,,,0.302267034,0.244948974,0.2468,0.2,stimuli/lakes/60105_left.png,stimuli/lakes/60105_right.png,,,space,0,44,44,5,1,2.046975,,,,
,,,,,,,$5d431d09a3ad410001fe386d,2020-07-20_16h40.21.420,fisher_task,2020.1.3,Win32,60,-0.097222222,-0.322222222,1,0,0,1.972495,scale,,,,,,0.2468,0.2,0.302267034,0.244948974,stimuli/lakes/4070101_left.png,stimuli/lakes/4070101_right.png,,,,0,45,45,101,1,,,,,
,,,,,,,$5d431d09a3ad410001fe386d,2020-07-20_16h40.21.420,fisher_task,2020.1.3,Win32,60,0.152777778,-0.437037037,1,0,0,1.208495,scale,,,,,,0.1234,0.1,0.3702,0.3,stimuli/lakes/105059_left.png,stimuli/lakes/105059_right.png,,,,0,46,46,59,1,,,,,
,,,,,,,$5d431d09a3ad410001fe386d,2020-07-20_16h40.21.420,fisher_task,2020.1.3,Win32,60,-0.10462963,-0.342592593,1,0,0,3.410145,scale,,,,,,0.21373507,0.173205081,0.326485712,0.264575131,stimuli/lakes/3090121_left.png,stimuli/lakes/3090121_right.png,,,,0,47,47,121,1,,,,,
,,,,,,,$5d431d09a3ad410001fe386d,2020-07-20_16h40.21.420,fisher_task,2020.1.3,Win32,60,-0.096296296,-0.281481481,1,0,0,2.86879,scale,,,,,,0.1234,0.1,0.3702,0.3,stimuli/lakes/106080_left.png,stimuli/lakes/106080_right.png,,,,0,48,48,80,1,,,,,
,,,,,,,$5d431d09a3ad410001fe386d,2020-07-20_16h40.21.420,fisher_task,2020.1.3,Win32,60,-0.111111111,-0.353703704,1,0,0,2.778065,scale,,,,,,0.2468,0.2,0.302267034,0.244948974,stimuli/lakes/4080111_left.png,stimuli/lakes/4080111_right.png,,,,0,49,49,111,1,,,,,
,,,,,,,$5d431d09a3ad410001fe386d,2020-07-20_16h40.21.420,fisher_task,2020.1.3,Win32,60,-0.110185185,-0.342592593,1,0,0,6.202175,scale,,,,,,0.302267034,0.244948974,0.2468,0.2,stimuli/lakes/604055_left.png,stimuli/lakes/604055_right.png,,,,0,50,50,55,1,,,,,
,,,,,,,$5d431d09a3ad410001fe386d,2020-07-20_16h40.21.420,fisher_task,2020.1.3,Win32,60,-0.076851852,-0.307407407,1,0,0,1.090125,scale,,,,,,0.275930788,0.223606798,0.275930788,0.223606798,stimuli/lakes/507093_left.png,stimuli/lakes/507093_right.png,,,,0,51,51,93,1,,,,,
,,,,,,,$5d431d09a3ad410001fe386d,2020-07-20_16h40.21.420,fisher_task,2020.1.3,Win32,60,-0.119444444,-0.37037037,1,0,0,2.28486,scale,,,,,,0.349027907,0.282842712,0.174513954,0.141421356,stimuli/lakes/806087_left.png,stimuli/lakes/806087_right.png,,,,0,52,52,87,1,,,,,
,,,,,,,$5d431d09a3ad410001fe386d,2020-07-20_16h40.21.420,fisher_task,2020.1.3,Win32,60,-0.148148148,-0.437962963,1,0,0,1.03471,scale,,,,,,0.326485712,0.264575131,0.21373507,0.173205081,stimuli/lakes/7090129_left.png,stimuli/lakes/7090129_right.png,,,,0,53,53,129,1,,,,,
,,,,,,,$5d431d09a3ad410001fe386d,2020-07-20_16h40.21.420,fisher_task,2020.1.3,Win32,60,0.15,-0.440740741,1,0,0,1.187525,scale,,,,,,0.1234,0.1,0.3702,0.3,stimuli/lakes/104050_left.png,stimuli/lakes/104050_right.png,,,,0,54,54,50,1,,,,,
,,,,,,,$5d431d09a3ad410001fe386d,2020-07-20_16h40.21.420,fisher_task,2020.1.3,Win32,60,-0.128703704,-0.366666667,1,0,0,2.576595,scale,,,,,,0.302267034,0.244948974,0.2468,0.2,stimuli/lakes/6090127_left.png,stimuli/lakes/6090127_right.png,,,,0,55,55,127,1,,,,,
,,,,,,,$5d431d09a3ad410001fe386d,2020-07-20_16h40.21.420,fisher_task,2020.1.3,Win32,60,-0.001851852,-0.286111111,1,0,0,3.326545,scale,,,,,,0.302267034,0.244948974,0.2468,0.2,stimuli/lakes/606085_left.png,stimuli/lakes/606085_right.png,,,,0,56,56,85,1,,,,,
,,,,,,,$5d431d09a3ad410001fe386d,2020-07-20_16h40.21.420,fisher_task,2020.1.3,Win32,60,0.147222222,-0.439814815,1,0,0,2.021025,scale,,,,,,0.21373507,0.173205081,0.326485712,0.264575131,stimuli/lakes/302013_left.png,stimuli/lakes/302013_right.png,,,,0,57,57,13,1,,,,,
,,,,,,,$5d431d09a3ad410001fe386d,2020-07-20_16h40.21.420,fisher_task,2020.1.3,Win32,60,0.124074074,-0.342592593,1,0,0,3.16699,scale,,,,,,0.302267034,0.244948974,0.2468,0.2,stimuli/lakes/60106_left.png,stimuli/lakes/60106_right.png,,,,0,58,58,6,1,,,,,
,,,,,,,$5d431d09a3ad410001fe386d,2020-07-20_16h40.21.420,fisher_task,2020.1.3,Win32,60,0.086111111,-0.317592593,1,0,0,2.097405,scale,,,,,,0.302267034,0.244948974,0.2468,0.2,stimuli/lakes/603028_left.png,stimuli/lakes/603028_right.png,,,,0,59,59,28,1,,,,,
,,,,,,,$5d431d09a3ad410001fe386d,2020-07-20_16h40.21.420,fisher_task,2020.1.3,Win32,60,0.155555556,-0.434259259,1,0,0,0.993055,scale,,,,,,0.1234,0.1,0.3702,0.3,stimuli/lakes/104041_left.png,stimuli/lakes/104041_right.png,,,,0,60,60,41,1,,,,,
,,,,,,,$5d431d09a3ad410001fe386d,2020-07-20_16h40.21.420,fisher_task,2020.1.3,Win32,60,0.052777778,-0.308333333,0,0,1,5.903505,scale,,,,,,0.275930788,0.223606798,0.275930788,0.223606798,stimuli/lakes/504045_left.png,stimuli/lakes/504045_right.png,,,,0,61,61,45,1,,,,,
,,,,,,,$5d431d09a3ad410001fe386d,2020-07-20_16h40.21.420,fisher_task,2020.1.3,Win32,60,-0.139814815,-0.432407407,1,0,0,2.632405,scale,,,,,,0.302267034,0.244948974,0.2468,0.2,stimuli/lakes/6090126_left.png,stimuli/lakes/6090126_right.png,,,,0,62,62,126,1,,,,,
,,,,,,,$5d431d09a3ad410001fe386d,2020-07-20_16h40.21.420,fisher_task,2020.1.3,Win32,60,0.062962963,-0.315740741,1,0,0,5.72991,scale,,,,,,0.1234,0.1,0.3702,0.3,stimuli/lakes/1080107_left.png,stimuli/lakes/1080107_right.png,,,,0,63,63,107,1,,,,,
,,,,,,,$5d431d09a3ad410001fe386d,2020-07-20_16h40.21.420,fisher_task,2020.1.3,Win32,60,0.137962963,-0.436111111,1,0,0,1.819485,scale,,,,,,0.21373507,0.173205081,0.326485712,0.264575131,stimuli/lakes/30101_left.png,stimuli/lakes/30101_right.png,,,,0,64,64,1,1,,,,,
,,,,,,,$5d431d09a3ad410001fe386d,2020-07-20_16h40.21.420,fisher_task,2020.1.3,Win32,60,-0.146296296,-0.421296296,1,0,0,6.24393,scale,,,,,,0.174513954,0.141421356,0.349027907,0.282842712,stimuli/lakes/206072_left.png,stimuli/lakes/206072_right.png,,,,0,65,65,72,1,,,,,
,,,,,,,$5d431d09a3ad410001fe386d,2020-07-20_16h40.21.420,fisher_task,2020.1.3,Win32,60,0.118518519,-0.365740741,1,0,0,3.139285,scale,,,,,,0.2468,0.2,0.302267034,0.244948974,stimuli/lakes/403035_left.png,stimuli/lakes/403035_right.png,,,space,0,66,66,35,1,1.33427,,,,
,,,,,,,$5d431d09a3ad410001fe386d,2020-07-20_16h40.21.420,fisher_task,2020.1.3,Win32,60,-0.077777778,-0.316666667,1,0,0,1.99444,scale,,,,,,0.3702,0.3,0.1234,0.1,stimuli/lakes/903031_left.png,stimuli/lakes/903031_right.png,,,,0,67,67,31,1,,,,,
,,,,,,,$5d431d09a3ad410001fe386d,2020-07-20_16h40.21.420,fisher_task,2020.1.3,Win32,60,0.098148148,-0.336111111,1,0,0,1.39579,scale,,,,,,0.21373507,0.173205081,0.326485712,0.264575131,stimuli/lakes/304043_left.png,stimuli/lakes/304043_right.png,,,,0,68,68,43,1,,,,,
,,,,,,,$5d431d09a3ad410001fe386d,2020-07-20_16h40.21.420,fisher_task,2020.1.3,Win32,60,0.121296296,-0.376851852,1,0,0,1.263965,scale,,,,,,0.21373507,0.173205081,0.326485712,0.264575131,stimuli/lakes/304052_left.png,stimuli/lakes/304052_right.png,,,,0,69,69,52,1,,,,,
,,,,,,,$5d431d09a3ad410001fe386d,2020-07-20_16h40.21.420,fisher_task,2020.1.3,Win32,60,0.061111111,-0.308333333,1,0,0,1.75709,scale,,,,,,0.2468,0.2,0.302267034,0.244948974,stimuli/lakes/404053_left.png,stimuli/lakes/404053_right.png,,,,0,70,70,53,1,,,,,
,,,,,,,$5d431d09a3ad410001fe386d,2020-07-20_16h40.21.420,fisher_task,2020.1.3,Win32,60,-0.05462963,-0.308333333,1,0,0,3.604555,scale,,,,,,0.174513954,0.141421356,0.349027907,0.282842712,stimuli/lakes/207090_left.png,stimuli/lakes/207090_right.png,,,,0,71,71,90,1,,,,,
,,,,,,,$5d431d09a3ad410001fe386d,2020-07-20_16h40.21.420,fisher_task,2020.1.3,Win32,60,0.128703704,-0.407407407,1,0,0,1.63894,scale,,,,,,0.2468,0.2,0.302267034,0.244948974,stimuli/lakes/402015_left.png,stimuli/lakes/402015_right.png,,,,0,72,72,15,1,,,,,
,,,,,,,$5d431d09a3ad410001fe386d,2020-07-20_16h40.21.420,fisher_task,2020.1.3,Win32,60,-0.155555556,-0.431481481,1,0,0,1.458535,scale,,,,,,0.326485712,0.264575131,0.21373507,0.173205081,stimuli/lakes/7070104_left.png,stimuli/lakes/7070104_right.png,,,,0,73,73,104,1,,,,,
,,,,,,,$5d431d09a3ad410001fe386d,2020-07-20_16h40.21.420,fisher_task,2020.1.3,Win32,60,-0.059259259,-0.306481481,1,0,0,2.347355,scale,,,,,,0.349027907,0.282842712,0.174513954,0.141421356,stimuli/lakes/803030_left.png,stimuli/lakes/803030_right.png,,,,0,74,74,30,1,,,,,
,,,,,,,$5d431d09a3ad410001fe386d,2020-07-20_16h40.21.420,fisher_task,2020.1.3,Win32,60,0.142592593,-0.443518519,1,0,0,2.347435,scale,,,,,,0.21373507,0.173205081,0.326485712,0.264575131,stimuli/lakes/30100_left.png,stimuli/lakes/30100_right.png,,,,0,75,75,0,1,,,,,
,,,,,,,$5d431d09a3ad410001fe386d,2020-07-20_16h40.21.420,fisher_task,2020.1.3,Win32,60,0.106481481,-0.332407407,1,0,0,2.423895,scale,,,,,,0.2468,0.2,0.302267034,0.244948974,stimuli/lakes/405064_left.png,stimuli/lakes/405064_right.png,,,,0,76,76,64,1,,,,,
,,,,,,,$5d431d09a3ad410001fe386d,2020-07-20_16h40.21.420,fisher_task,2020.1.3,Win32,60,-0.157407407,-0.42962963,1,0,0,1.687575,scale,,,,,,0.3702,0.3,0.1234,0.1,stimuli/lakes/906079_left.png,stimuli/lakes/906079_right.png,,,,0,77,77,79,1,,,,,
,,,,,,,$5d431d09a3ad410001fe386d,2020-07-20_16h40.21.420,fisher_task,2020.1.3,Win32,60,0.071296296,-0.321296296,1,0,0,3.715755,scale,,,,,,0.349027907,0.282842712,0.174513954,0.141421356,stimuli/lakes/802021_left.png,stimuli/lakes/802021_right.png,,,,0,78,78,21,1,,,,,
,,,,,,,$5d431d09a3ad410001fe386d,2020-07-20_16h40.21.420,fisher_task,2020.1.3,Win32,60,-0.137037037,-0.37962963,1,0,0,1.777915,scale,,,,,,0.326485712,0.264575131,0.21373507,0.173205081,stimuli/lakes/706086_left.png,stimuli/lakes/706086_right.png,,,,0,79,79,86,1,,,,,
,,,,,,,$5d431d09a3ad410001fe386d,2020-07-20_16h40.21.420,fisher_task,2020.1.3,Win32,60,-0.131481481,-0.371296296,1,0,0,3.319385,scale,,,,,,0.326485712,0.264575131,0.21373507,0.173205081,stimuli/lakes/705067_left.png,stimuli/lakes/705067_right.png,,,,0,80,80,67,1,,,,,
,,,,,,,$5d431d09a3ad410001fe386d,2020-07-20_16h40.21.420,fisher_task,2020.1.3,Win32,60,-0.103703704,-0.331481481,1,0,0,2.132205,scale,,,,,,0.2468,0.2,0.302267034,0.244948974,stimuli/lakes/406074_left.png,stimuli/lakes/406074_right.png,,,,0,81,81,74,1,,,,,
,,,,,,,$5d431d09a3ad410001fe386d,2020-07-20_16h40.21.420,fisher_task,2020.1.3,Win32,60,0.136111111,-0.325925926,1,0,0,4.139215,scale,,,,,,0.326485712,0.264575131,0.21373507,0.173205081,stimuli/lakes/702019_left.png,stimuli/lakes/702019_right.png,,,,0,82,82,19,1,,,,,
,,,,,,,$5d431d09a3ad410001fe386d,2020-07-20_16h40.21.420,fisher_task,2020.1.3,Win32,60,-0.075925926,-0.315740741,1,0,0,3.153185,scale,,,,,,0.326485712,0.264575131,0.21373507,0.173205081,stimuli/lakes/704047_left.png,stimuli/lakes/704047_right.png,,,,0,83,83,47,1,,,,,
,,,,,,,$5d431d09a3ad410001fe386d,2020-07-20_16h40.21.420,fisher_task,2020.1.3,Win32,60,0.113888889,-0.298148148,1,0,0,5.695215,scale,,,,,,0.3702,0.3,0.1234,0.1,stimuli/lakes/902022_left.png,stimuli/lakes/902022_right.png,,,,0,84,84,22,1,,,,,
,,,,,,,$5d431d09a3ad410001fe386d,2020-07-20_16h40.21.420,fisher_task,2020.1.3,Win32,60,-0.141666667,-0.364814815,1,0,0,1.590375,scale,,,,,,0.275930788,0.223606798,0.275930788,0.223606798,stimuli/lakes/5070102_left.png,stimuli/lakes/5070102_right.png,,,,0,85,85,102,1,,,,,
,,,,,,,$5d431d09a3ad410001fe386d,2020-07-20_16h40.21.420,fisher_task,2020.1.3,Win32,60,-0.105555556,-0.30462963,1,0,0,3.66709,scale,,,,,,0.174513954,0.141421356,0.349027907,0.282842712,stimuli/lakes/207099_left.png,stimuli/lakes/207099_right.png,,,,0,86,86,99,1,,,,,
,,,,,,,$5d431d09a3ad410001fe386d,2020-07-20_16h40.21.420,fisher_task,2020.1.3,Win32,60,-0.126851852,-0.353703704,1,0,0,3.79911,scale,,,,,,0.2468,0.2,0.302267034,0.244948974,stimuli/lakes/407092_left.png,stimuli/lakes/407092_right.png,,,,0,87,87,92,1,,,,,
,,,,,,,$5d431d09a3ad410001fe386d,2020-07-20_16h40.21.420,fisher_task,2020.1.3,Win32,60,-0.153703704,-0.425925926,1,0,0,1.215295,scale,,,,,,0.326485712,0.264575131,0.21373507,0.173205081,stimuli/lakes/7090128_left.png,stimuli/lakes/7090128_right.png,,,space,0,88,88,128,1,1.975635,,,,
,,,,,,,$5d431d09a3ad410001fe386d,2020-07-20_16h40.21.420,fisher_task,2020.1.3,Win32,60,-0.132407407,-0.34537037,1,0,0,1.902855,scale,,,,,,0.302267034,0.244948974,0.2468,0.2,stimuli/lakes/605065_left.png,stimuli/lakes/605065_right.png,,,,0,89,89,65,1,,,,,
,,,,,,,$5d431d09a3ad410001fe386d,2020-07-20_16h40.21.420,fisher_task,2020.1.3,Win32,60,0.134259259,-0.360185185,1,0,0,1.347245,scale,,,,,,0.21373507,0.173205081,0.326485712,0.264575131,stimuli/lakes/303025_left.png,stimuli/lakes/303025_right.png,,,,0,90,90,25,1,,,,,
,,,,,,,$5d431d09a3ad410001fe386d,2020-07-20_16h40.21.420,fisher_task,2020.1.3,Win32,60,0.07037037,-0.306481481,1,0,0,2.409965,scale,,,,,,0.349027907,0.282842712,0.174513954,0.141421356,stimuli/lakes/80109_left.png,stimuli/lakes/80109_right.png,,,,0,91,91,9,1,,,,,
,,,,,,,$5d431d09a3ad410001fe386d,2020-07-20_16h40.21.420,fisher_task,2020.1.3,Win32,60,0.141666667,-0.303703704,1,0,0,2.347425,scale,,,,,,0.326485712,0.264575131,0.21373507,0.173205081,stimuli/lakes/70107_left.png,stimuli/lakes/70107_right.png,,,,0,92,92,7,1,,,,,
,,,,,,,$5d431d09a3ad410001fe386d,2020-07-20_16h40.21.420,fisher_task,2020.1.3,Win32,60,0.173148148,-0.443518519,1,0,0,0.93071,scale,,,,,,0.174513954,0.141421356,0.349027907,0.282842712,stimuli/lakes/202011_left.png,stimuli/lakes/202011_right.png,,,,0,93,93,11,1,,,,,
,,,,,,,$5d431d09a3ad410001fe386d,2020-07-20_16h40.21.420,fisher_task,2020.1.3,Win32,60,0.083333333,-0.303703704,1,0,0,2.152985,scale,,,,,,0.1234,0.1,0.3702,0.3,stimuli/lakes/107089_left.png,stimuli/lakes/107089_right.png,,,,0,94,94,89,1,,,,,
,,,,,,,$5d431d09a3ad410001fe386d,2020-07-20_16h40.21.420,fisher_task,2020.1.3,Win32,60,-0.081481481,-0.30462963,1,0,0,2.277935,scale,,,,,,0.326485712,0.264575131,0.21373507,0.173205081,stimuli/lakes/7080116_left.png,stimuli/lakes/7080116_right.png,,,,0,95,95,116,1,,,,,
,,,,,,,$5d431d09a3ad410001fe386d,2020-07-20_16h40.21.420,fisher_task,2020.1.3,Win32,60,0.109259259,-0.330555556,1,0,0,3.67393,scale,,,,,,0.302267034,0.244948974,0.2468,0.2,stimuli/lakes/603037_left.png,stimuli/lakes/603037_right.png,,,,0,96,96,37,1,,,,,
,,,,,,,$5d431d09a3ad410001fe386d,2020-07-20_16h40.21.420,fisher_task,2020.1.3,Win32,60,0.067592593,-0.297222222,1,0,0,2.86141,scale,,,,,,0.1234,0.1,0.3702,0.3,stimuli/lakes/107098_left.png,stimuli/lakes/107098_right.png,,,,0,97,97,98,1,,,,,
,,,,,,,$5d431d09a3ad410001fe386d,2020-07-20_16h40.21.420,fisher_task,2020.1.3,Win32,60,-0.065740741,-0.280555556,1,0,0,3.21568,scale,,,,,,0.21373507,0.173205081,0.326485712,0.264575131,stimuli/lakes/3080109_left.png,stimuli/lakes/3080109_right.png,,,,0,98,98,109,1,,,,,
,,,,,,,$5d431d09a3ad410001fe386d,2020-07-20_16h40.21.420,fisher_task,2020.1.3,Win32,60,-0.132407407,-0.343518519,1,0,0,2.75038,scale,,,,,,0.302267034,0.244948974,0.2468,0.2,stimuli/lakes/606076_left.png,stimuli/lakes/606076_right.png,,,,0,99,99,76,1,,,,,
,,,,,,,$5d431d09a3ad410001fe386d,2020-07-20_16h40.21.420,fisher_task,2020.1.3,Win32,60,0,-0.27037037,1,0,0,2.701595,scale,,,,,,0.3702,0.3,0.1234,0.1,stimuli/lakes/904049_left.png,stimuli/lakes/904049_right.png,,,,0,100,100,49,1,,,,,
,,,,,,,$5d431d09a3ad410001fe386d,2020-07-20_16h40.21.420,fisher_task,2020.1.3,Win32,60,0.159259259,-0.391666667,1,0,0,3.972765,scale,,,,,,0.3702,0.3,0.1234,0.1,stimuli/lakes/901010_left.png,stimuli/lakes/901010_right.png,,,,0,101,101,10,1,,,,,
,,,,,,,$5d431d09a3ad410001fe386d,2020-07-20_16h40.21.420,fisher_task,2020.1.3,Win32,60,-0.148148148,-0.374074074,1,0,0,1.882025,scale,,,,,,0.302267034,0.244948974,0.2468,0.2,stimuli/lakes/6080114_left.png,stimuli/lakes/6080114_right.png,,,,0,102,102,114,1,,,,,
,,,,,,,$5d431d09a3ad410001fe386d,2020-07-20_16h40.21.420,fisher_task,2020.1.3,Win32,60,0.114814815,-0.316666667,1,0,0,2.020965,scale,,,,,,0.326485712,0.264575131,0.21373507,0.173205081,stimuli/lakes/703038_left.png,stimuli/lakes/703038_right.png,,,,0,103,103,38,1,,,,,
,,,,,,,$5d431d09a3ad410001fe386d,2020-07-20_16h40.21.420,fisher_task,2020.1.3,Win32,60,-0.00462963,-0.266666667,1,0,0,2.20853,scale,,,,,,0.275930788,0.223606798,0.275930788,0.223606798,stimuli/lakes/506084_left.png,stimuli/lakes/506084_right.png,,,,0,104,104,84,1,,,,,
,,,,,,,$5d431d09a3ad410001fe386d,2020-07-20_16h40.21.420,fisher_task,2020.1.3,Win32,60,0.135185185,-0.352777778,1,0,0,1.757085,scale,,,,,,0.2468,0.2,0.302267034,0.244948974,stimuli/lakes/403026_left.png,stimuli/lakes/403026_right.png,,,,0,105,105,26,1,,,,,
,,,,,,,$5d431d09a3ad410001fe386d,2020-07-20_16h40.21.420,fisher_task,2020.1.3,Win32,60,-0.137962963,-0.341666667,1,0,0,1.409835,scale,,,,,,0.326485712,0.264575131,0.21373507,0.173205081,stimuli/lakes/707095_left.png,stimuli/lakes/707095_right.png,,,,0,106,106,95,1,,,,,
,,,,,,,$5d431d09a3ad410001fe386d,2020-07-20_16h40.21.420,fisher_task,2020.1.3,Win32,60,0.093518519,-0.292592593,1,0,0,1.75003,scale,,,,,,0.275930788,0.223606798,0.275930788,0.223606798,stimuli/lakes/504054_left.png,stimuli/lakes/504054_right.png,,,,0,107,107,54,1,,,,,
,,,,,,,$5d431d09a3ad410001fe386d,2020-07-20_16h40.21.420,fisher_task,2020.1.3,Win32,60,-0.123148148,-0.330555556,1,0,0,1.520865,scale,,,,,,0.302267034,0.244948974,0.2468,0.2,stimuli/lakes/605066_left.png,stimuli/lakes/605066_right.png,,,,0,108,108,66,1,,,,,
,,,,,,,$5d431d09a3ad410001fe386d,2020-07-20_16h40.21.420,fisher_task,2020.1.3,Win32,60,0.055555556,-0.27962963,1,0,0,2.528125,scale,,,,,,0.21373507,0.173205081,0.326485712,0.264575131,stimuli/lakes/305062_left.png,stimuli/lakes/305062_right.png,,,,0,109,109,62,1,,,,,
,,,,,,,$5d431d09a3ad410001fe386d,2020-07-20_16h40.21.420,fisher_task,2020.1.3,Win32,60,-0.139814815,-0.378703704,1,0,0,1.819575,scale,,,,,,0.302267034,0.244948974,0.2468,0.2,stimuli/lakes/6080115_left.png,stimuli/lakes/6080115_right.png,,,space,0,110,110,115,1,1.59548,,,,
,,,,,,,$5d431d09a3ad410001fe386d,2020-07-20_16h40.21.420,fisher_task,2020.1.3,Win32,60,0.065740741,-0.280555556,1,0,0,2.41002,scale,,,,,,0.326485712,0.264575131,0.21373507,0.173205081,stimuli/lakes/70108_left.png,stimuli/lakes/70108_right.png,,,,0,111,111,8,1,,,,,
,,,,,,,$5d431d09a3ad410001fe386d,2020-07-20_16h40.21.420,fisher_task,2020.1.3,Win32,60,0.148148148,-0.383333333,1,0,0,1.92374,scale,,,,,,0.174513954,0.141421356,0.349027907,0.282842712,stimuli/lakes/204051_left.png,stimuli/lakes/204051_right.png,,,,0,112,112,51,1,,,,,
,,,,,,,$5d431d09a3ad410001fe386d,2020-07-20_16h40.21.420,fisher_task,2020.1.3,Win32,60,0.058333333,-0.284259259,1,0,0,4.46583,scale,,,,,,0.326485712,0.264575131,0.21373507,0.173205081,stimuli/lakes/703029_left.png,stimuli/lakes/703029_right.png,,,,0,113,113,29,1,,,,,
,,,,,,,$5d431d09a3ad410001fe386d,2020-07-20_16h40.21.420,fisher_task,2020.1.3,Win32,60,-0.132407407,-0.333333333,1,0,0,2.937805,scale,,,,,,0.21373507,0.173205081,0.326485712,0.264575131,stimuli/lakes/3090122_left.png,stimuli/lakes/3090122_right.png,,,,0,114,114,122,1,,,,,
,,,,,,,$5d431d09a3ad410001fe386d,2020-07-20_16h40.21.420,fisher_task,2020.1.3,Win32,60,0.152777778,-0.37037037,1,0,0,1.625025,scale,,,,,,0.21373507,0.173205081,0.326485712,0.264575131,stimuli/lakes/303034_left.png,stimuli/lakes/303034_right.png,,,,0,115,115,34,1,,,,,
,,,,,,,$5d431d09a3ad410001fe386d,2020-07-20_16h40.21.420,fisher_task,2020.1.3,Win32,60,-0.160185185,-0.409259259,1,0,0,1.45843,scale,,,,,,0.349027907,0.282842712,0.174513954,0.141421356,stimuli/lakes/8080118_left.png,stimuli/lakes/8080118_right.png,,,,0,116,116,118,1,,,,,
,,,,,,,$5d431d09a3ad410001fe386d,2020-07-20_16h40.21.420,fisher_task,2020.1.3,Win32,60,-0.063888889,-0.286111111,1,0,0,3.042085,scale,,,,,,0.3702,0.3,0.1234,0.1,stimuli/lakes/903040_left.png,stimuli/lakes/903040_right.png,,,,0,117,117,40,1,,,,,
,,,,,,,$5d431d09a3ad410001fe386d,2020-07-20_16h40.21.420,fisher_task,2020.1.3,Win32,60,-0.146296296,-0.369444444,1,0,0,2.153025,scale,,,,,,0.275930788,0.223606798,0.275930788,0.223606798,stimuli/lakes/5090125_left.png,stimuli/lakes/5090125_right.png,,,,0,118,118,125,1,,,,,
,,,,,,,$5d431d09a3ad410001fe386d,2020-07-20_16h40.21.420,fisher_task,2020.1.3,Win32,60,-0.149074074,-0.409259259,1,0,0,1.347205,scale,,,,,,0.3702,0.3,0.1234,0.1,stimuli/lakes/905070_left.png,stimuli/lakes/905070_right.png,,,,0,119,119,70,1,,,,,
,,,,,,,$5d431d09a3ad410001fe386d,2020-07-20_16h40.21.420,fisher_task,2020.1.3,Win32,60,-0.142592593,-0.360185185,1,0,0,1.958465,scale,,,,,,0.326485712,0.264575131,0.21373507,0.173205081,stimuli/lakes/706077_left.png,stimuli/lakes/706077_right.png,,,,0,120,120,77,1,,,,,
,,,,,,,$5d431d09a3ad410001fe386d,2020-07-20_16h40.21.420,fisher_task,2020.1.3,Win32,60,-0.114814815,-0.32037037,1,0,0,1.92377,scale,,,,,,0.275930788,0.223606798,0.275930788,0.223606798,stimuli/lakes/506075_left.png,stimuli/lakes/506075_right.png,,,,0,121,121,75,1,,,,,
,,,,,,,$5d431d09a3ad410001fe386d,2020-07-20_16h40.21.420,fisher_task,2020.1.3,Win32,60,0.146296296,-0.375,1,0,0,1.451615,scale,,,,,,0.174513954,0.141421356,0.349027907,0.282842712,stimuli/lakes/203033_left.png,stimuli/lakes/203033_right.png,,,,0,122,122,33,1,,,,,
,,,,,,,$5d431d09a3ad410001fe386d,2020-07-20_16h40.21.420,fisher_task,2020.1.3,Win32,60,-0.001851852,-0.267592593,1,0,0,4.944745,scale,,,,,,0.2468,0.2,0.302267034,0.244948974,stimuli/lakes/405063_left.png,stimuli/lakes/405063_right.png,,,,0,123,123,63,1,,,,,
,,,,,,,$5d431d09a3ad410001fe386d,2020-07-20_16h40.21.420,fisher_task,2020.1.3,Win32,60,0.147222222,-0.361111111,1,0,0,1.263935,scale,,,,,,0.275930788,0.223606798,0.275930788,0.223606798,stimuli/lakes/503027_left.png,stimuli/lakes/503027_right.png,,,,0,124,124,27,1,,,,,
,,,,,,,$5d431d09a3ad410001fe386d,2020-07-20_16h40.21.420,fisher_task,2020.1.3,Win32,60,-0.107407407,-0.307407407,1,0,0,2.333525,scale,,,,,,0.349027907,0.282842712,0.174513954,0.141421356,stimuli/lakes/805069_left.png,stimuli/lakes/805069_right.png,,,,0,125,125,69,1,,,,,
,,,,,,,$5d431d09a3ad410001fe386d,2020-07-20_16h40.21.420,fisher_task,2020.1.3,Win32,60,-0.113888889,-0.333333333,1,0,0,1.187545,scale,,,,,,0.326485712,0.264575131,0.21373507,0.173205081,stimuli/lakes/705068_left.png,stimuli/lakes/705068_right.png,,,,0,126,126,68,1,,,,,
,,,,,,,$5d431d09a3ad410001fe386d,2020-07-20_16h40.21.420,fisher_task,2020.1.3,Win32,60,0.151851852,-0.369444444,1,0,0,1.493165,scale,,,,,,0.2468,0.2,0.302267034,0.244948974,stimuli/lakes/402014_left.png,stimuli/lakes/402014_right.png,,,,0,127,127,14,1,,,,,
,,,,,,,$5d431d09a3ad410001fe386d,2020-07-20_16h40.21.420,fisher_task,2020.1.3,Win32,60,0.115740741,-0.323148148,1,0,0,3.41705,scale,,,,,,0.174513954,0.141421356,0.349027907,0.282842712,stimuli/lakes/205060_left.png,stimuli/lakes/205060_right.png,,,,0,128,128,60,1,,,,,
,,,,,,,$5d431d09a3ad410001fe386d,2020-07-20_16h40.21.420,fisher_task,2020.1.3,Win32,60,0.075925926,-0.293518519,1,0,0,4.563035,scale,,,,,,0.21373507,0.173205081,0.326485712,0.264575131,stimuli/lakes/307091_left.png,stimuli/lakes/307091_right.png,,,,0,129,129,91,1,,,,,
,,,,,,,$5d431d09a3ad410001fe386d,2020-07-20_16h40.21.420,fisher_task,2020.1.3,Win32,60,,,,,,,,,,,,,,,,,,,,,,,,,,,,space,7.01556,space,17.85375
