keySpace.keys,keySpace.rt,instructions.thisRepN,instructions.thisTrialN,instructions.thisN,instructions.thisIndex,instructions.ran,participant,date,expName,psychopyVersion,OS,frameRate,mouse.x,mouse.y,mouse.leftButton,mouse.midButton,mouse.rightButton,mouse.time,mouse.clicked_name,training.thisRepN,training.thisTrialN,training.thisN,training.thisIndex,training.ran,widthBasketLeft,heightBasketLeft,widthBasketRight,heightBasketRight,leftLake,rightLake,space2.keys,space2.rt,space1.keys,trials.thisRepN,trials.thisTrialN,trials.thisN,trials.thisIndex,trials.ran,space1.rt,finalSpace1.keys,finalSpace1.rt,finalSpace2.keys,finalSpace2.rt
space,5.26,0,0,0,0,1,$5ebbd154ee4a9b1be136eefc,2020-07-20_14h36.32.916,fisher_task,2020.1.3,Win32,60,,,,,,,,,,,,,,,,,,,,,,,,,,,,,,,
space,0.455,1,0,1,0,1,$5ebbd154ee4a9b1be136eefc,2020-07-20_14h36.32.916,fisher_task,2020.1.3,Win32,60,,,,,,,,,,,,,,,,,,,,,,,,,,,,,,,
space,0.339,2,0,2,0,1,$5ebbd154ee4a9b1be136eefc,2020-07-20_14h36.32.916,fisher_task,2020.1.3,Win32,60,,,,,,,,,,,,,,,,,,,,,,,,,,,,,,,
,,3,0,3,0,1,$5ebbd154ee4a9b1be136eefc,2020-07-20_14h36.32.916,fisher_task,2020.1.3,Win32,60,,,,,,,,,,,,,,,,,,,,,,,,,,,,,,,
,,,,,,,$5ebbd154ee4a9b1be136eefc,2020-07-20_14h36.32.916,fisher_task,2020.1.3,Win32,60,0.173611111,-0.415509259,1,0,0,4.633,scale,0,0,0,0,1,0.275930788,0.223606798,0.275930788,0.223606798,stimuli/training/20_left.png,stimuli/training/20_right.png,,,,,,,,,,,,,
,,,,,,,$5ebbd154ee4a9b1be136eefc,2020-07-20_14h36.32.916,fisher_task,2020.1.3,Win32,60,-0.131944444,-0.320601852,1,0,0,3.601,scale,0,1,1,1,1,0.275930788,0.223606798,0.275930788,0.223606798,stimuli/training/80_left.png,stimuli/training/80_right.png,,,,,,,,,,,,,
,,,,,,,$5ebbd154ee4a9b1be136eefc,2020-07-20_14h36.32.916,fisher_task,2020.1.3,Win32,60,0.162037037,-0.358796296,1,0,0,2.584,scale,0,2,2,2,1,0.174513954,0.141421356,0.349027907,0.282842712,stimuli/training/50_left.png,stimuli/training/50_right.png,,,,,,,,,,,,,
,,,,,,,$5ebbd154ee4a9b1be136eefc,2020-07-20_14h36.32.916,fisher_task,2020.1.3,Win32,60,-0.114583333,-0.27662037,1,0,0,2.933,scale,0,3,3,3,1,0.349027907,0.282842712,0.174513954,0.141421356,stimuli/training/50_left.png,stimuli/training/50_right.png,,,,,,,,,,,,,
,,,,,,,$5ebbd154ee4a9b1be136eefc,2020-07-20_14h36.32.916,fisher_task,2020.1.3,Win32,60,0.164351852,-0.346064815,1,0,0,4.033,scale,0,4,4,4,1,0.275930788,0.223606798,0.275930788,0.223606798,stimuli/training/50_left.png,stimuli/training/50_right.png,,,,,,,,,,,,,
,,,,,,,$5ebbd154ee4a9b1be136eefc,2020-07-20_14h36.32.916,fisher_task,2020.1.3,Win32,60,0.184027778,-0.43287037,1,0,0,1.85,scale,0,5,5,5,1,0.174513954,0.141421356,0.349027907,0.282842712,stimuli/training/20_left.png,stimuli/training/20_right.png,,,,,,,,,,,,,
,,,,,,,$5ebbd154ee4a9b1be136eefc,2020-07-20_14h36.32.916,fisher_task,2020.1.3,Win32,60,-0.193287037,-0.428240741,1,0,0,1.967,scale,0,6,6,6,1,0.349027907,0.282842712,0.174513954,0.141421356,stimuli/training/80_left.png,stimuli/training/80_right.png,,,,,,,,,,,,,
,,,,,,,$5ebbd154ee4a9b1be136eefc,2020-07-20_14h36.32.916,fisher_task,2020.1.3,Win32,60,0.180555556,-0.420138889,1,0,0,2.232,scale,0,7,7,7,1,0.1234,0.1,0.3702,0.3,stimuli/training/30_left.png,stimuli/training/30_right.png,,,,,,,,,,,,,
,,,,,,,$5ebbd154ee4a9b1be136eefc,2020-07-20_14h36.32.916,fisher_task,2020.1.3,Win32,60,-0.181712963,-0.418981481,1,0,0,1.832,scale,0,8,8,8,1,0.3702,0.3,0.1234,0.1,stimuli/training/70_left.png,stimuli/training/70_right.png,,,,,,,,,,,,,
,,,,,,,$5ebbd154ee4a9b1be136eefc,2020-07-20_14h36.32.916,fisher_task,2020.1.3,Win32,60,-0.181712963,-0.417824074,1,0,0,1.75,scale,0,9,9,9,1,0.326485712,0.264575131,0.21373507,0.173205081,stimuli/training/90_left.png,stimuli/training/90_right.png,,,,,,,,,,,,,
,,,,,,,$5ebbd154ee4a9b1be136eefc,2020-07-20_14h36.32.916,fisher_task,2020.1.3,Win32,60,0.179398148,-0.414351852,1,0,0,1.75,scale,0,10,10,10,1,0.21373507,0.173205081,0.326485712,0.264575131,stimuli/training/10_left.png,stimuli/training/10_right.png,,,,,,,,,,,,,
,,,,,,,$5ebbd154ee4a9b1be136eefc,2020-07-20_14h36.32.916,fisher_task,2020.1.3,Win32,60,-0.174768519,-0.372685185,1,0,0,2.266,scale,,,,,,0.302267034,0.244948974,0.2468,0.2,stimuli/lakes/607094_left.png,stimuli/lakes/607094_right.png,space,5.491,,0,0,0,94,1,,,,,
,,,,,,,$5ebbd154ee4a9b1be136eefc,2020-07-20_14h36.32.916,fisher_task,2020.1.3,Win32,60,-0.084490741,-0.263888889,1,0,0,3.433,scale,,,,,,0.21373507,0.173205081,0.326485712,0.264575131,stimuli/lakes/306073_left.png,stimuli/lakes/306073_right.png,,,,0,1,1,73,1,,,,,
,,,,,,,$5ebbd154ee4a9b1be136eefc,2020-07-20_14h36.32.916,fisher_task,2020.1.3,Win32,60,-0.010416667,-0.237268519,1,0,0,3.383,scale,,,,,,0.1234,0.1,0.3702,0.3,stimuli/lakes/1080107_left.png,stimuli/lakes/1080107_right.png,,,,0,2,2,107,1,,,,,
,,,,,,,$5ebbd154ee4a9b1be136eefc,2020-07-20_14h36.32.916,fisher_task,2020.1.3,Win32,60,0.103009259,-0.259259259,1,0,0,5.016,scale,,,,,,0.326485712,0.264575131,0.21373507,0.173205081,stimuli/lakes/704047_left.png,stimuli/lakes/704047_right.png,,,,0,3,3,47,1,,,,,
,,,,,,,$5ebbd154ee4a9b1be136eefc,2020-07-20_14h36.32.916,fisher_task,2020.1.3,Win32,60,-0.174768519,-0.41087963,1,0,0,2.55,scale,,,,,,0.326485712,0.264575131,0.21373507,0.173205081,stimuli/lakes/7090129_left.png,stimuli/lakes/7090129_right.png,,,,0,4,4,129,1,,,,,
,,,,,,,$5ebbd154ee4a9b1be136eefc,2020-07-20_14h36.32.916,fisher_task,2020.1.3,Win32,60,0.19212963,-0.418981481,1,0,0,1.233,scale,,,,,,0.2468,0.2,0.302267034,0.244948974,stimuli/lakes/402015_left.png,stimuli/lakes/402015_right.png,,,,0,5,5,15,1,,,,,
,,,,,,,$5ebbd154ee4a9b1be136eefc,2020-07-20_14h36.32.916,fisher_task,2020.1.3,Win32,60,0.096064815,-0.25,1,0,0,1.951,scale,,,,,,0.302267034,0.244948974,0.2468,0.2,stimuli/lakes/602018_left.png,stimuli/lakes/602018_right.png,,,,0,6,6,18,1,,,,,
,,,,,,,$5ebbd154ee4a9b1be136eefc,2020-07-20_14h36.32.916,fisher_task,2020.1.3,Win32,60,-0.171296296,-0.365740741,1,0,0,2.084,scale,,,,,,0.302267034,0.244948974,0.2468,0.2,stimuli/lakes/605066_left.png,stimuli/lakes/605066_right.png,,,,0,7,7,66,1,,,,,
,,,,,,,$5ebbd154ee4a9b1be136eefc,2020-07-20_14h36.32.916,fisher_task,2020.1.3,Win32,60,0.178240741,-0.429398148,1,0,0,1.749,scale,,,,,,0.1234,0.1,0.3702,0.3,stimuli/lakes/104050_left.png,stimuli/lakes/104050_right.png,,,,0,8,8,50,1,,,,,
,,,,,,,$5ebbd154ee4a9b1be136eefc,2020-07-20_14h36.32.916,fisher_task,2020.1.3,Win32,60,0.00462963,-0.224537037,1,0,0,2.372,scale,,,,,,0.326485712,0.264575131,0.21373507,0.173205081,stimuli/lakes/703029_left.png,stimuli/lakes/703029_right.png,,,,0,9,9,29,1,,,,,
,,,,,,,$5ebbd154ee4a9b1be136eefc,2020-07-20_14h36.32.916,fisher_task,2020.1.3,Win32,60,0.172453704,-0.37962963,1,0,0,2.483,scale,,,,,,0.2468,0.2,0.302267034,0.244948974,stimuli/lakes/405063_left.png,stimuli/lakes/405063_right.png,,,,0,10,10,63,1,,,,,
,,,,,,,$5ebbd154ee4a9b1be136eefc,2020-07-20_14h36.32.916,fisher_task,2020.1.3,Win32,60,-0.09375,-0.259259259,1,0,0,2.367,scale,,,,,,0.1234,0.1,0.3702,0.3,stimuli/lakes/107089_left.png,stimuli/lakes/107089_right.png,,,,0,11,11,89,1,,,,,
,,,,,,,$5ebbd154ee4a9b1be136eefc,2020-07-20_14h36.32.916,fisher_task,2020.1.3,Win32,60,-0.174768519,-0.421296296,1,0,0,1.983,scale,,,,,,0.349027907,0.282842712,0.174513954,0.141421356,stimuli/lakes/8070105_left.png,stimuli/lakes/8070105_right.png,,,,0,12,12,105,1,,,,,
,,,,,,,$5ebbd154ee4a9b1be136eefc,2020-07-20_14h36.32.916,fisher_task,2020.1.3,Win32,60,-0.168981481,-0.423611111,1,0,0,1.483,scale,,,,,,0.3702,0.3,0.1234,0.1,stimuli/lakes/906079_left.png,stimuli/lakes/906079_right.png,,,,0,13,13,79,1,,,,,
,,,,,,,$5ebbd154ee4a9b1be136eefc,2020-07-20_14h36.32.916,fisher_task,2020.1.3,Win32,60,0.164351852,-0.421296296,1,0,0,2.184,scale,,,,,,0.21373507,0.173205081,0.326485712,0.264575131,stimuli/lakes/30101_left.png,stimuli/lakes/30101_right.png,,,,0,14,14,1,1,,,,,
,,,,,,,$5ebbd154ee4a9b1be136eefc,2020-07-20_14h36.32.916,fisher_task,2020.1.3,Win32,60,0.115740741,-0.273148148,1,0,0,2.301,scale,,,,,,0.21373507,0.173205081,0.326485712,0.264575131,stimuli/lakes/3070100_left.png,stimuli/lakes/3070100_right.png,,,,0,15,15,100,1,,,,,
,,,,,,,$5ebbd154ee4a9b1be136eefc,2020-07-20_14h36.32.916,fisher_task,2020.1.3,Win32,60,-0.103009259,-0.262731481,1,0,0,1.949,scale,,,,,,0.3702,0.3,0.1234,0.1,stimuli/lakes/904058_left.png,stimuli/lakes/904058_right.png,,,,0,16,16,58,1,,,,,
,,,,,,,$5ebbd154ee4a9b1be136eefc,2020-07-20_14h36.32.916,fisher_task,2020.1.3,Win32,60,0.178240741,-0.422453704,1,0,0,1.515,scale,,,,,,0.174513954,0.141421356,0.349027907,0.282842712,stimuli/lakes/203024_left.png,stimuli/lakes/203024_right.png,,,,0,17,17,24,1,,,,,
,,,,,,,$5ebbd154ee4a9b1be136eefc,2020-07-20_14h36.32.916,fisher_task,2020.1.3,Win32,60,0.178240741,-0.422453704,1,0,0,1.716,scale,,,,,,0.302267034,0.244948974,0.2468,0.2,stimuli/lakes/602017_left.png,stimuli/lakes/602017_right.png,,,,0,18,18,17,1,,,,,
,,,,,,,$5ebbd154ee4a9b1be136eefc,2020-07-20_14h36.32.916,fisher_task,2020.1.3,Win32,60,-0.171296296,-0.391203704,1,0,0,1.449,scale,,,,,,0.326485712,0.264575131,0.21373507,0.173205081,stimuli/lakes/706077_left.png,stimuli/lakes/706077_right.png,,,,0,19,19,77,1,,,,,
,,,,,,,$5ebbd154ee4a9b1be136eefc,2020-07-20_14h36.32.916,fisher_task,2020.1.3,Win32,60,0.079861111,-0.259259259,1,0,0,3.616,scale,,,,,,0.302267034,0.244948974,0.2468,0.2,stimuli/lakes/604046_left.png,stimuli/lakes/604046_right.png,,,,0,20,20,46,1,,,,,
,,,,,,,$5ebbd154ee4a9b1be136eefc,2020-07-20_14h36.32.916,fisher_task,2020.1.3,Win32,60,-0.008101852,-0.221064815,1,0,0,1.984,scale,,,,,,0.3702,0.3,0.1234,0.1,stimuli/lakes/903040_left.png,stimuli/lakes/903040_right.png,,,,0,21,21,40,1,,,,,
,,,,,,,$5ebbd154ee4a9b1be136eefc,2020-07-20_14h36.32.916,fisher_task,2020.1.3,Win32,60,0.173611111,-0.390046296,1,0,0,2.234,scale,,,,,,0.174513954,0.141421356,0.349027907,0.282842712,stimuli/lakes/204042_left.png,stimuli/lakes/204042_right.png,,,space,0,22,22,42,1,5.506,,,,
,,,,,,,$5ebbd154ee4a9b1be136eefc,2020-07-20_14h36.32.916,fisher_task,2020.1.3,Win32,60,-0.020833333,-0.24537037,1,0,0,1.716,scale,,,,,,0.174513954,0.141421356,0.349027907,0.282842712,stimuli/lakes/206072_left.png,stimuli/lakes/206072_right.png,,,,0,23,23,72,1,,,,,
,,,,,,,$5ebbd154ee4a9b1be136eefc,2020-07-20_14h36.32.916,fisher_task,2020.1.3,Win32,60,-0.136574074,-0.321759259,1,0,0,1.717,scale,,,,,,0.275930788,0.223606798,0.275930788,0.223606798,stimuli/lakes/5080113_left.png,stimuli/lakes/5080113_right.png,,,,0,24,24,113,1,,,,,
,,,,,,,$5ebbd154ee4a9b1be136eefc,2020-07-20_14h36.32.916,fisher_task,2020.1.3,Win32,60,-0.130787037,-0.325231481,1,0,0,1.644,scale,,,,,,0.21373507,0.173205081,0.326485712,0.264575131,stimuli/lakes/305061_left.png,stimuli/lakes/305061_right.png,,,,0,25,25,61,1,,,,,
,,,,,,,$5ebbd154ee4a9b1be136eefc,2020-07-20_14h36.32.916,fisher_task,2020.1.3,Win32,60,0.142361111,-0.303240741,1,0,0,2.784,scale,,,,,,0.21373507,0.173205081,0.326485712,0.264575131,stimuli/lakes/305062_left.png,stimuli/lakes/305062_right.png,,,,0,26,26,62,1,,,,,
,,,,,,,$5ebbd154ee4a9b1be136eefc,2020-07-20_14h36.32.916,fisher_task,2020.1.3,Win32,60,-0.002314815,-0.230324074,1,0,0,2.034,scale,,,,,,0.2468,0.2,0.302267034,0.244948974,stimuli/lakes/4090124_left.png,stimuli/lakes/4090124_right.png,,,,0,27,27,124,1,,,,,
,,,,,,,$5ebbd154ee4a9b1be136eefc,2020-07-20_14h36.32.916,fisher_task,2020.1.3,Win32,60,0.170138889,-0.351851852,1,0,0,2.649,scale,,,,,,0.326485712,0.264575131,0.21373507,0.173205081,stimuli/lakes/702020_left.png,stimuli/lakes/702020_right.png,,,,0,28,28,20,1,,,,,
,,,,,,,$5ebbd154ee4a9b1be136eefc,2020-07-20_14h36.32.916,fisher_task,2020.1.3,Win32,60,-0.121527778,-0.287037037,1,0,0,2.133,scale,,,,,,0.21373507,0.173205081,0.326485712,0.264575131,stimuli/lakes/306082_left.png,stimuli/lakes/306082_right.png,,,,0,29,29,82,1,,,,,
,,,,,,,$5ebbd154ee4a9b1be136eefc,2020-07-20_14h36.32.916,fisher_task,2020.1.3,Win32,60,0.159722222,-0.310185185,1,0,0,3.884,scale,,,,,,0.326485712,0.264575131,0.21373507,0.173205081,stimuli/lakes/702019_left.png,stimuli/lakes/702019_right.png,,,,0,30,30,19,1,,,,,
,,,,,,,$5ebbd154ee4a9b1be136eefc,2020-07-20_14h36.32.916,fisher_task,2020.1.3,Win32,60,0.159722222,-0.310185185,1,0,0,0.699,scale,,,,,,0.2468,0.2,0.302267034,0.244948974,stimuli/lakes/40103_left.png,stimuli/lakes/40103_right.png,,,,0,31,31,3,1,,,,,
,,,,,,,$5ebbd154ee4a9b1be136eefc,2020-07-20_14h36.32.916,fisher_task,2020.1.3,Win32,60,0.097222222,-0.259259259,1,0,0,3.55,scale,,,,,,0.2468,0.2,0.302267034,0.244948974,stimuli/lakes/404053_left.png,stimuli/lakes/404053_right.png,,,,0,32,32,53,1,,,,,
,,,,,,,$5ebbd154ee4a9b1be136eefc,2020-07-20_14h36.32.916,fisher_task,2020.1.3,Win32,60,0.177083333,-0.388888889,1,0,0,1.966,scale,,,,,,0.174513954,0.141421356,0.349027907,0.282842712,stimuli/lakes/205060_left.png,stimuli/lakes/205060_right.png,,,,0,33,33,60,1,,,,,
,,,,,,,$5ebbd154ee4a9b1be136eefc,2020-07-20_14h36.32.916,fisher_task,2020.1.3,Win32,60,-0.002314815,-0.233796296,1,0,0,2.602,scale,,,,,,0.21373507,0.173205081,0.326485712,0.264575131,stimuli/lakes/3090122_left.png,stimuli/lakes/3090122_right.png,,,,0,34,34,122,1,,,,,
,,,,,,,$5ebbd154ee4a9b1be136eefc,2020-07-20_14h36.32.916,fisher_task,2020.1.3,Win32,60,-0.158564815,-0.368055556,1,0,0,3.167,scale,,,,,,0.349027907,0.282842712,0.174513954,0.141421356,stimuli/lakes/805069_left.png,stimuli/lakes/805069_right.png,,,,0,35,35,69,1,,,,,
,,,,,,,$5ebbd154ee4a9b1be136eefc,2020-07-20_14h36.32.916,fisher_task,2020.1.3,Win32,60,-0.168981481,-0.384259259,1,0,0,2.217,scale,,,,,,0.275930788,0.223606798,0.275930788,0.223606798,stimuli/lakes/5070102_left.png,stimuli/lakes/5070102_right.png,,,,0,36,36,102,1,,,,,
,,,,,,,$5ebbd154ee4a9b1be136eefc,2020-07-20_14h36.32.916,fisher_task,2020.1.3,Win32,60,0.145833333,-0.3125,1,0,0,3.166,scale,,,,,,0.349027907,0.282842712,0.174513954,0.141421356,stimuli/lakes/804057_left.png,stimuli/lakes/804057_right.png,,,,0,37,37,57,1,,,,,
,,,,,,,$5ebbd154ee4a9b1be136eefc,2020-07-20_14h36.32.916,fisher_task,2020.1.3,Win32,60,0.091435185,-0.255787037,1,0,0,2.006,scale,,,,,,0.21373507,0.173205081,0.326485712,0.264575131,stimuli/lakes/3080109_left.png,stimuli/lakes/3080109_right.png,,,,0,38,38,109,1,,,,,
,,,,,,,$5ebbd154ee4a9b1be136eefc,2020-07-20_14h36.32.916,fisher_task,2020.1.3,Win32,60,-0.177083333,-0.349537037,1,0,0,2.117,scale,,,,,,0.326485712,0.264575131,0.21373507,0.173205081,stimuli/lakes/705067_left.png,stimuli/lakes/705067_right.png,,,,0,39,39,67,1,,,,,
,,,,,,,$5ebbd154ee4a9b1be136eefc,2020-07-20_14h36.32.916,fisher_task,2020.1.3,Win32,60,-0.112268519,-0.289351852,1,0,0,2.901,scale,,,,,,0.275930788,0.223606798,0.275930788,0.223606798,stimuli/lakes/506084_left.png,stimuli/lakes/506084_right.png,,,,0,40,40,84,1,,,,,
,,,,,,,$5ebbd154ee4a9b1be136eefc,2020-07-20_14h36.32.916,fisher_task,2020.1.3,Win32,60,-0.174768519,-0.393518519,1,0,0,1.65,scale,,,,,,0.302267034,0.244948974,0.2468,0.2,stimuli/lakes/606085_left.png,stimuli/lakes/606085_right.png,,,,0,41,41,85,1,,,,,
,,,,,,,$5ebbd154ee4a9b1be136eefc,2020-07-20_14h36.32.916,fisher_task,2020.1.3,Win32,60,-0.178240741,-0.415509259,1,0,0,1.349,scale,,,,,,0.349027907,0.282842712,0.174513954,0.141421356,stimuli/lakes/806087_left.png,stimuli/lakes/806087_right.png,,,,0,42,42,87,1,,,,,
,,,,,,,$5ebbd154ee4a9b1be136eefc,2020-07-20_14h36.32.916,fisher_task,2020.1.3,Win32,60,-0.178240741,-0.396990741,1,0,0,2.316,scale,,,,,,0.326485712,0.264575131,0.21373507,0.173205081,stimuli/lakes/705068_left.png,stimuli/lakes/705068_right.png,,,,0,43,43,68,1,,,,,
,,,,,,,$5ebbd154ee4a9b1be136eefc,2020-07-20_14h36.32.916,fisher_task,2020.1.3,Win32,60,0.181712963,-0.387731481,1,0,0,1.615,scale,,,,,,0.2468,0.2,0.302267034,0.244948974,stimuli/lakes/403035_left.png,stimuli/lakes/403035_right.png,,,space,0,44,44,35,1,136.181,,,,
,,,,,,,$5ebbd154ee4a9b1be136eefc,2020-07-20_14h36.32.916,fisher_task,2020.1.3,Win32,60,-0.164351852,-0.368055556,1,0,0,1.549,scale,,,,,,0.302267034,0.244948974,0.2468,0.2,stimuli/lakes/6070103_left.png,stimuli/lakes/6070103_right.png,,,,0,45,45,103,1,,,,,
,,,,,,,$5ebbd154ee4a9b1be136eefc,2020-07-20_14h36.32.916,fisher_task,2020.1.3,Win32,60,-0.111111111,-0.290509259,1,0,0,2.1,scale,,,,,,0.302267034,0.244948974,0.2468,0.2,stimuli/lakes/604055_left.png,stimuli/lakes/604055_right.png,,,,0,46,46,55,1,,,,,
,,,,,,,$5ebbd154ee4a9b1be136eefc,2020-07-20_14h36.32.916,fisher_task,2020.1.3,Win32,60,0.174768519,-0.357638889,1,0,0,2.267,scale,,,,,,0.1234,0.1,0.3702,0.3,stimuli/lakes/104041_left.png,stimuli/lakes/104041_right.png,,,,0,47,47,41,1,,,,,
,,,,,,,$5ebbd154ee4a9b1be136eefc,2020-07-20_14h36.32.916,fisher_task,2020.1.3,Win32,60,0.1875,-0.415509259,1,0,0,1.499,scale,,,,,,0.174513954,0.141421356,0.349027907,0.282842712,stimuli/lakes/203033_left.png,stimuli/lakes/203033_right.png,,,,0,48,48,33,1,,,,,
,,,,,,,$5ebbd154ee4a9b1be136eefc,2020-07-20_14h36.32.916,fisher_task,2020.1.3,Win32,60,-0.131944444,-0.303240741,1,0,0,1.75,scale,,,,,,0.349027907,0.282842712,0.174513954,0.141421356,stimuli/lakes/804048_left.png,stimuli/lakes/804048_right.png,,,,0,49,49,48,1,,,,,
,,,,,,,$5ebbd154ee4a9b1be136eefc,2020-07-20_14h36.32.916,fisher_task,2020.1.3,Win32,60,0.165509259,-0.376157407,1,0,0,1.716,scale,,,,,,0.2468,0.2,0.302267034,0.244948974,stimuli/lakes/402014_left.png,stimuli/lakes/402014_right.png,,,,0,50,50,14,1,,,,,
,,,,,,,$5ebbd154ee4a9b1be136eefc,2020-07-20_14h36.32.916,fisher_task,2020.1.3,Win32,60,0.002314815,-0.24537037,1,0,0,1.833,scale,,,,,,0.21373507,0.173205081,0.326485712,0.264575131,stimuli/lakes/3090121_left.png,stimuli/lakes/3090121_right.png,,,,0,51,51,121,1,,,,,
,,,,,,,$5ebbd154ee4a9b1be136eefc,2020-07-20_14h36.32.916,fisher_task,2020.1.3,Win32,60,0.168981481,-0.378472222,1,0,0,1.449,scale,,,,,,0.21373507,0.173205081,0.326485712,0.264575131,stimuli/lakes/303034_left.png,stimuli/lakes/303034_right.png,,,,0,52,52,34,1,,,,,
,,,,,,,$5ebbd154ee4a9b1be136eefc,2020-07-20_14h36.32.916,fisher_task,2020.1.3,Win32,60,-0.168981481,-0.421296296,1,0,0,1.3,scale,,,,,,0.302267034,0.244948974,0.2468,0.2,stimuli/lakes/6090127_left.png,stimuli/lakes/6090127_right.png,,,,0,53,53,127,1,,,,,
,,,,,,,$5ebbd154ee4a9b1be136eefc,2020-07-20_14h36.32.916,fisher_task,2020.1.3,Win32,60,-0.168981481,-0.421296296,1,0,0,5.368,scale,,,,,,0.349027907,0.282842712,0.174513954,0.141421356,stimuli/lakes/807096_left.png,stimuli/lakes/807096_right.png,,,,0,54,54,96,1,,,,,
,,,,,,,$5ebbd154ee4a9b1be136eefc,2020-07-20_14h36.32.916,fisher_task,2020.1.3,Win32,60,0.152777778,-0.3125,1,0,0,16.939,scale,,,,,,0.302267034,0.244948974,0.2468,0.2,stimuli/lakes/603037_left.png,stimuli/lakes/603037_right.png,,,,0,55,55,37,1,,,,,
,,,,,,,$5ebbd154ee4a9b1be136eefc,2020-07-20_14h36.32.916,fisher_task,2020.1.3,Win32,60,0.162037037,-0.358796296,1,0,0,1.45,scale,,,,,,0.275930788,0.223606798,0.275930788,0.223606798,stimuli/lakes/503036_left.png,stimuli/lakes/503036_right.png,,,,0,56,56,36,1,,,,,
,,,,,,,$5ebbd154ee4a9b1be136eefc,2020-07-20_14h36.32.916,fisher_task,2020.1.3,Win32,60,-0.144675926,-0.333333333,1,0,0,1.783,scale,,,,,,0.2468,0.2,0.302267034,0.244948974,stimuli/lakes/407092_left.png,stimuli/lakes/407092_right.png,,,,0,57,57,92,1,,,,,
,,,,,,,$5ebbd154ee4a9b1be136eefc,2020-07-20_14h36.32.916,fisher_task,2020.1.3,Win32,60,0.122685185,-0.283564815,1,0,0,1.818,scale,,,,,,0.174513954,0.141421356,0.349027907,0.282842712,stimuli/lakes/206081_left.png,stimuli/lakes/206081_right.png,,,,0,58,58,81,1,,,,,
,,,,,,,$5ebbd154ee4a9b1be136eefc,2020-07-20_14h36.32.916,fisher_task,2020.1.3,Win32,60,-0.006944444,-0.229166667,1,0,0,2.349,scale,,,,,,0.302267034,0.244948974,0.2468,0.2,stimuli/lakes/60106_left.png,stimuli/lakes/60106_right.png,,,,0,59,59,6,1,,,,,
,,,,,,,$5ebbd154ee4a9b1be136eefc,2020-07-20_14h36.32.916,fisher_task,2020.1.3,Win32,60,-0.001157407,-0.239583333,1,0,0,2.133,scale,,,,,,0.349027907,0.282842712,0.174513954,0.141421356,stimuli/lakes/803039_left.png,stimuli/lakes/803039_right.png,,,,0,60,60,39,1,,,,,
,,,,,,,$5ebbd154ee4a9b1be136eefc,2020-07-20_14h36.32.916,fisher_task,2020.1.3,Win32,60,0.171296296,-0.415509259,1,0,0,1.733,scale,,,,,,0.2468,0.2,0.302267034,0.244948974,stimuli/lakes/40102_left.png,stimuli/lakes/40102_right.png,,,,0,61,61,2,1,,,,,
,,,,,,,$5ebbd154ee4a9b1be136eefc,2020-07-20_14h36.32.916,fisher_task,2020.1.3,Win32,60,0.159722222,-0.337962963,1,0,0,1.483,scale,,,,,,0.2468,0.2,0.302267034,0.244948974,stimuli/lakes/406074_left.png,stimuli/lakes/406074_right.png,,,,0,62,62,74,1,,,,,
,,,,,,,$5ebbd154ee4a9b1be136eefc,2020-07-20_14h36.32.916,fisher_task,2020.1.3,Win32,60,-0.137731481,-0.298611111,1,0,0,2.166,scale,,,,,,0.275930788,0.223606798,0.275930788,0.223606798,stimuli/lakes/506075_left.png,stimuli/lakes/506075_right.png,,,,0,63,63,75,1,,,,,
,,,,,,,$5ebbd154ee4a9b1be136eefc,2020-07-20_14h36.32.916,fisher_task,2020.1.3,Win32,60,0,-0.226851852,1,0,0,1.4,scale,,,,,,0.21373507,0.173205081,0.326485712,0.264575131,stimuli/lakes/3080110_left.png,stimuli/lakes/3080110_right.png,,,,0,64,64,110,1,,,,,
,,,,,,,$5ebbd154ee4a9b1be136eefc,2020-07-20_14h36.32.916,fisher_task,2020.1.3,Win32,60,0.100694444,-0.260416667,1,0,0,1.466,scale,,,,,,0.2468,0.2,0.302267034,0.244948974,stimuli/lakes/4080111_left.png,stimuli/lakes/4080111_right.png,,,,0,65,65,111,1,,,,,
,,,,,,,$5ebbd154ee4a9b1be136eefc,2020-07-20_14h36.32.916,fisher_task,2020.1.3,Win32,60,-0.171296296,-0.368055556,1,0,0,1.417,scale,,,,,,0.3702,0.3,0.1234,0.1,stimuli/lakes/906088_left.png,stimuli/lakes/906088_right.png,,,space,0,66,66,88,1,1.111,,,,
,,,,,,,$5ebbd154ee4a9b1be136eefc,2020-07-20_14h36.32.916,fisher_task,2020.1.3,Win32,60,-0.085648148,-0.291666667,1,0,0,1.4,scale,,,,,,0.326485712,0.264575131,0.21373507,0.173205081,stimuli/lakes/704056_left.png,stimuli/lakes/704056_right.png,,,,0,67,67,56,1,,,,,
,,,,,,,$5ebbd154ee4a9b1be136eefc,2020-07-20_14h36.32.916,fisher_task,2020.1.3,Win32,60,-0.157407407,-0.355324074,1,0,0,1.517,scale,,,,,,0.302267034,0.244948974,0.2468,0.2,stimuli/lakes/605065_left.png,stimuli/lakes/605065_right.png,,,,0,68,68,65,1,,,,,
,,,,,,,$5ebbd154ee4a9b1be136eefc,2020-07-20_14h36.32.916,fisher_task,2020.1.3,Win32,60,0.104166667,-0.255787037,1,0,0,3.684,scale,,,,,,0.275930788,0.223606798,0.275930788,0.223606798,stimuli/lakes/503027_left.png,stimuli/lakes/503027_right.png,,,,0,69,69,27,1,,,,,
,,,,,,,$5ebbd154ee4a9b1be136eefc,2020-07-20_14h36.32.916,fisher_task,2020.1.3,Win32,60,0.111111111,-0.262731481,1,0,0,2.1,scale,,,,,,0.174513954,0.141421356,0.349027907,0.282842712,stimuli/lakes/207090_left.png,stimuli/lakes/207090_right.png,,,,0,70,70,90,1,,,,,
,,,,,,,$5ebbd154ee4a9b1be136eefc,2020-07-20_14h36.32.916,fisher_task,2020.1.3,Win32,60,-0.106481481,-0.261574074,1,0,0,2.349,scale,,,,,,0.2468,0.2,0.302267034,0.244948974,stimuli/lakes/4080112_left.png,stimuli/lakes/4080112_right.png,,,,0,71,71,112,1,,,,,
,,,,,,,$5ebbd154ee4a9b1be136eefc,2020-07-20_14h36.32.916,fisher_task,2020.1.3,Win32,60,0,-0.240740741,1,0,0,2.689,scale,,,,,,0.1234,0.1,0.3702,0.3,stimuli/lakes/1090119_left.png,stimuli/lakes/1090119_right.png,,,,0,72,72,119,1,,,,,
,,,,,,,$5ebbd154ee4a9b1be136eefc,2020-07-20_14h36.32.916,fisher_task,2020.1.3,Win32,60,0.150462963,-0.320601852,1,0,0,1.783,scale,,,,,,0.2468,0.2,0.302267034,0.244948974,stimuli/lakes/404044_left.png,stimuli/lakes/404044_right.png,,,,0,73,73,44,1,,,,,
,,,,,,,$5ebbd154ee4a9b1be136eefc,2020-07-20_14h36.32.916,fisher_task,2020.1.3,Win32,60,-0.141203704,-0.303240741,1,0,0,1.95,scale,,,,,,0.326485712,0.264575131,0.21373507,0.173205081,stimuli/lakes/703038_left.png,stimuli/lakes/703038_right.png,,,,0,74,74,38,1,,,,,
,,,,,,,$5ebbd154ee4a9b1be136eefc,2020-07-20_14h36.32.916,fisher_task,2020.1.3,Win32,60,0.162037037,-0.340277778,1,0,0,2.199,scale,,,,,,0.2468,0.2,0.302267034,0.244948974,stimuli/lakes/405064_left.png,stimuli/lakes/405064_right.png,,,,0,75,75,64,1,,,,,
,,,,,,,$5ebbd154ee4a9b1be136eefc,2020-07-20_14h36.32.916,fisher_task,2020.1.3,Win32,60,-0.186342593,-0.412037037,1,0,0,1.599,scale,,,,,,0.3702,0.3,0.1234,0.1,stimuli/lakes/907097_left.png,stimuli/lakes/907097_right.png,,,,0,76,76,97,1,,,,,
,,,,,,,$5ebbd154ee4a9b1be136eefc,2020-07-20_14h36.32.916,fisher_task,2020.1.3,Win32,60,0.131944444,-0.304398148,1,0,0,1.767,scale,,,,,,0.275930788,0.223606798,0.275930788,0.223606798,stimuli/lakes/502016_left.png,stimuli/lakes/502016_right.png,,,,0,77,77,16,1,,,,,
,,,,,,,$5ebbd154ee4a9b1be136eefc,2020-07-20_14h36.32.916,fisher_task,2020.1.3,Win32,60,0.159722222,-0.325231481,1,0,0,2.884,scale,,,,,,0.1234,0.1,0.3702,0.3,stimuli/lakes/106071_left.png,stimuli/lakes/106071_right.png,,,,0,78,78,71,1,,,,,
,,,,,,,$5ebbd154ee4a9b1be136eefc,2020-07-20_14h36.32.916,fisher_task,2020.1.3,Win32,60,0.177083333,-0.378472222,1,0,0,1.951,scale,,,,,,0.174513954,0.141421356,0.349027907,0.282842712,stimuli/lakes/202011_left.png,stimuli/lakes/202011_right.png,,,,0,79,79,11,1,,,,,
,,,,,,,$5ebbd154ee4a9b1be136eefc,2020-07-20_14h36.32.916,fisher_task,2020.1.3,Win32,60,0.178240741,-0.423611111,1,0,0,1.267,scale,,,,,,0.21373507,0.173205081,0.326485712,0.264575131,stimuli/lakes/302013_left.png,stimuli/lakes/302013_right.png,,,,0,80,80,13,1,,,,,
,,,,,,,$5ebbd154ee4a9b1be136eefc,2020-07-20_14h36.32.916,fisher_task,2020.1.3,Win32,60,-0.190972222,-0.408564815,1,0,0,1.4,scale,,,,,,0.326485712,0.264575131,0.21373507,0.173205081,stimuli/lakes/707095_left.png,stimuli/lakes/707095_right.png,,,,0,81,81,95,1,,,,,
,,,,,,,$5ebbd154ee4a9b1be136eefc,2020-07-20_14h36.32.916,fisher_task,2020.1.3,Win32,60,0.165509259,-0.405092593,1,0,0,1.316,scale,,,,,,0.21373507,0.173205081,0.326485712,0.264575131,stimuli/lakes/30100_left.png,stimuli/lakes/30100_right.png,,,,0,82,82,0,1,,,,,
,,,,,,,$5ebbd154ee4a9b1be136eefc,2020-07-20_14h36.32.916,fisher_task,2020.1.3,Win32,60,-0.166666667,-0.395833333,1,0,0,1.283,scale,,,,,,0.326485712,0.264575131,0.21373507,0.173205081,stimuli/lakes/706086_left.png,stimuli/lakes/706086_right.png,,,,0,83,83,86,1,,,,,
,,,,,,,$5ebbd154ee4a9b1be136eefc,2020-07-20_14h36.32.916,fisher_task,2020.1.3,Win32,60,-0.053240741,-0.252314815,1,0,0,2.217,scale,,,,,,0.349027907,0.282842712,0.174513954,0.141421356,stimuli/lakes/803030_left.png,stimuli/lakes/803030_right.png,,,,0,84,84,30,1,,,,,
,,,,,,,$5ebbd154ee4a9b1be136eefc,2020-07-20_14h36.32.916,fisher_task,2020.1.3,Win32,60,0.177083333,-0.363425926,1,0,0,1.867,scale,,,,,,0.2468,0.2,0.302267034,0.244948974,stimuli/lakes/403026_left.png,stimuli/lakes/403026_right.png,,,,0,85,85,26,1,,,,,
,,,,,,,$5ebbd154ee4a9b1be136eefc,2020-07-20_14h36.32.916,fisher_task,2020.1.3,Win32,60,0.09375,-0.266203704,1,0,0,2.901,scale,,,,,,0.275930788,0.223606798,0.275930788,0.223606798,stimuli/lakes/50104_left.png,stimuli/lakes/50104_right.png,,,,0,86,86,4,1,,,,,
,,,,,,,$5ebbd154ee4a9b1be136eefc,2020-07-20_14h36.32.916,fisher_task,2020.1.3,Win32,60,-0.131944444,-0.3125,1,0,0,1.533,scale,,,,,,0.302267034,0.244948974,0.2468,0.2,stimuli/lakes/606076_left.png,stimuli/lakes/606076_right.png,,,,0,87,87,76,1,,,,,
,,,,,,,$5ebbd154ee4a9b1be136eefc,2020-07-20_14h36.32.916,fisher_task,2020.1.3,Win32,60,0.006944444,-0.244212963,1,0,0,2.916,scale,,,,,,0.349027907,0.282842712,0.174513954,0.141421356,stimuli/lakes/80109_left.png,stimuli/lakes/80109_right.png,,,space,0,88,88,9,1,0.993,,,,
,,,,,,,$5ebbd154ee4a9b1be136eefc,2020-07-20_14h36.32.916,fisher_task,2020.1.3,Win32,60,-0.038194444,-0.252314815,1,0,0,1.467,scale,,,,,,0.3702,0.3,0.1234,0.1,stimuli/lakes/901010_left.png,stimuli/lakes/901010_right.png,,,,0,89,89,10,1,,,,,
,,,,,,,$5ebbd154ee4a9b1be136eefc,2020-07-20_14h36.32.916,fisher_task,2020.1.3,Win32,60,0.123842593,-0.28125,1,0,0,2.6,scale,,,,,,0.2468,0.2,0.302267034,0.244948974,stimuli/lakes/406083_left.png,stimuli/lakes/406083_right.png,,,,0,90,90,83,1,,,,,
,,,,,,,$5ebbd154ee4a9b1be136eefc,2020-07-20_14h36.32.916,fisher_task,2020.1.3,Win32,60,0,-0.246527778,1,0,0,2.116,scale,,,,,,0.174513954,0.141421356,0.349027907,0.282842712,stimuli/lakes/2090120_left.png,stimuli/lakes/2090120_right.png,,,,0,91,91,120,1,,,,,
,,,,,,,$5ebbd154ee4a9b1be136eefc,2020-07-20_14h36.32.916,fisher_task,2020.1.3,Win32,60,0.099537037,-0.268518519,1,0,0,1.75,scale,,,,,,0.2468,0.2,0.302267034,0.244948974,stimuli/lakes/4070101_left.png,stimuli/lakes/4070101_right.png,,,,0,92,92,101,1,,,,,
,,,,,,,$5ebbd154ee4a9b1be136eefc,2020-07-20_14h36.32.916,fisher_task,2020.1.3,Win32,60,0.144675926,-0.326388889,1,0,0,1.8,scale,,,,,,0.1234,0.1,0.3702,0.3,stimuli/lakes/103023_left.png,stimuli/lakes/103023_right.png,,,,0,93,93,23,1,,,,,
,,,,,,,$5ebbd154ee4a9b1be136eefc,2020-07-20_14h36.32.916,fisher_task,2020.1.3,Win32,60,0.099537037,-0.27662037,1,0,0,2.85,scale,,,,,,0.275930788,0.223606798,0.275930788,0.223606798,stimuli/lakes/504045_left.png,stimuli/lakes/504045_right.png,,,,0,94,94,45,1,,,,,
,,,,,,,$5ebbd154ee4a9b1be136eefc,2020-07-20_14h36.32.916,fisher_task,2020.1.3,Win32,60,-0.174768519,-0.395833333,1,0,0,1.484,scale,,,,,,0.326485712,0.264575131,0.21373507,0.173205081,stimuli/lakes/7090128_left.png,stimuli/lakes/7090128_right.png,,,,0,95,95,128,1,,,,,
,,,,,,,$5ebbd154ee4a9b1be136eefc,2020-07-20_14h36.32.916,fisher_task,2020.1.3,Win32,60,0.162037037,-0.381944444,1,0,0,1.217,scale,,,,,,0.174513954,0.141421356,0.349027907,0.282842712,stimuli/lakes/204051_left.png,stimuli/lakes/204051_right.png,,,,0,96,96,51,1,,,,,
,,,,,,,$5ebbd154ee4a9b1be136eefc,2020-07-20_14h36.32.916,fisher_task,2020.1.3,Win32,60,0.086805556,-0.27662037,1,0,0,1.317,scale,,,,,,0.174513954,0.141421356,0.349027907,0.282842712,stimuli/lakes/207099_left.png,stimuli/lakes/207099_right.png,,,,0,97,97,99,1,,,,,
,,,,,,,$5ebbd154ee4a9b1be136eefc,2020-07-20_14h36.32.916,fisher_task,2020.1.3,Win32,60,-0.015046296,-0.256944444,1,0,0,1.299,scale,,,,,,0.326485712,0.264575131,0.21373507,0.173205081,stimuli/lakes/70108_left.png,stimuli/lakes/70108_right.png,,,,0,98,98,8,1,,,,,
,,,,,,,$5ebbd154ee4a9b1be136eefc,2020-07-20_14h36.32.916,fisher_task,2020.1.3,Win32,60,-0.178240741,-0.405092593,1,0,0,1.215,scale,,,,,,0.326485712,0.264575131,0.21373507,0.173205081,stimuli/lakes/7070104_left.png,stimuli/lakes/7070104_right.png,,,,0,99,99,104,1,,,,,
,,,,,,,$5ebbd154ee4a9b1be136eefc,2020-07-20_14h36.32.916,fisher_task,2020.1.3,Win32,60,0.15162037,-0.319444444,1,0,0,1.184,scale,,,,,,0.21373507,0.173205081,0.326485712,0.264575131,stimuli/lakes/304043_left.png,stimuli/lakes/304043_right.png,,,,0,100,100,43,1,,,,,
,,,,,,,$5ebbd154ee4a9b1be136eefc,2020-07-20_14h36.32.916,fisher_task,2020.1.3,Win32,60,-0.068287037,-0.275462963,1,0,0,1.2,scale,,,,,,0.3702,0.3,0.1234,0.1,stimuli/lakes/902022_left.png,stimuli/lakes/902022_right.png,,,,0,101,101,22,1,,,,,
,,,,,,,$5ebbd154ee4a9b1be136eefc,2020-07-20_14h36.32.916,fisher_task,2020.1.3,Win32,60,-0.158564815,-0.400462963,1,0,0,1.066,scale,,,,,,0.302267034,0.244948974,0.2468,0.2,stimuli/lakes/6080114_left.png,stimuli/lakes/6080114_right.png,,,,0,102,102,114,1,,,,,
,,,,,,,$5ebbd154ee4a9b1be136eefc,2020-07-20_14h36.32.916,fisher_task,2020.1.3,Win32,60,-0.061342593,-0.282407407,1,0,0,1.234,scale,,,,,,0.349027907,0.282842712,0.174513954,0.141421356,stimuli/lakes/802021_left.png,stimuli/lakes/802021_right.png,,,,0,103,103,21,1,,,,,
,,,,,,,$5ebbd154ee4a9b1be136eefc,2020-07-20_14h36.32.916,fisher_task,2020.1.3,Win32,60,-0.144675926,-0.372685185,1,0,0,1.417,scale,,,,,,0.3702,0.3,0.1234,0.1,stimuli/lakes/905070_left.png,stimuli/lakes/905070_right.png,,,,0,104,104,70,1,,,,,
,,,,,,,$5ebbd154ee4a9b1be136eefc,2020-07-20_14h36.32.916,fisher_task,2020.1.3,Win32,60,0.130787037,-0.292824074,1,0,0,1.9,scale,,,,,,0.302267034,0.244948974,0.2468,0.2,stimuli/lakes/603028_left.png,stimuli/lakes/603028_right.png,,,,0,105,105,28,1,,,,,
,,,,,,,$5ebbd154ee4a9b1be136eefc,2020-07-20_14h36.32.916,fisher_task,2020.1.3,Win32,60,0.059027778,-0.260416667,1,0,0,1.417,scale,,,,,,0.174513954,0.141421356,0.349027907,0.282842712,stimuli/lakes/2080108_left.png,stimuli/lakes/2080108_right.png,,,,0,106,106,108,1,,,,,
,,,,,,,$5ebbd154ee4a9b1be136eefc,2020-07-20_14h36.32.916,fisher_task,2020.1.3,Win32,60,0.127314815,-0.311342593,1,0,0,1.05,scale,,,,,,0.1234,0.1,0.3702,0.3,stimuli/lakes/105059_left.png,stimuli/lakes/105059_right.png,,,,0,107,107,59,1,,,,,
,,,,,,,$5ebbd154ee4a9b1be136eefc,2020-07-20_14h36.32.916,fisher_task,2020.1.3,Win32,60,0.159722222,-0.387731481,1,0,0,0.983,scale,,,,,,0.1234,0.1,0.3702,0.3,stimuli/lakes/103032_left.png,stimuli/lakes/103032_right.png,,,,0,108,108,32,1,,,,,
,,,,,,,$5ebbd154ee4a9b1be136eefc,2020-07-20_14h36.32.916,fisher_task,2020.1.3,Win32,60,-0.028935185,-0.266203704,1,0,0,1.649,scale,,,,,,0.3702,0.3,0.1234,0.1,stimuli/lakes/903031_left.png,stimuli/lakes/903031_right.png,,,,0,109,109,31,1,,,,,
,,,,,,,$5ebbd154ee4a9b1be136eefc,2020-07-20_14h36.32.916,fisher_task,2020.1.3,Win32,60,-0.049768519,-0.263888889,1,0,0,5.069,scale,,,,,,0.21373507,0.173205081,0.326485712,0.264575131,stimuli/lakes/307091_left.png,stimuli/lakes/307091_right.png,,,space,0,110,110,91,1,1.032,,,,
,,,,,,,$5ebbd154ee4a9b1be136eefc,2020-07-20_14h36.32.916,fisher_task,2020.1.3,Win32,60,-0.113425926,-0.298611111,1,0,0,1.25,scale,,,,,,0.275930788,0.223606798,0.275930788,0.223606798,stimuli/lakes/5090125_left.png,stimuli/lakes/5090125_right.png,,,,0,111,111,125,1,,,,,
,,,,,,,$5ebbd154ee4a9b1be136eefc,2020-07-20_14h36.32.916,fisher_task,2020.1.3,Win32,60,0.104166667,-0.305555556,1,0,0,1.317,scale,,,,,,0.1234,0.1,0.3702,0.3,stimuli/lakes/106080_left.png,stimuli/lakes/106080_right.png,,,,0,112,112,80,1,,,,,
,,,,,,,$5ebbd154ee4a9b1be136eefc,2020-07-20_14h36.32.916,fisher_task,2020.1.3,Win32,60,-0.023148148,-0.266203704,1,0,0,1.417,scale,,,,,,0.326485712,0.264575131,0.21373507,0.173205081,stimuli/lakes/70107_left.png,stimuli/lakes/70107_right.png,,,,0,113,113,7,1,,,,,
,,,,,,,$5ebbd154ee4a9b1be136eefc,2020-07-20_14h36.32.916,fisher_task,2020.1.3,Win32,60,-0.150462963,-0.364583333,1,0,0,1.05,scale,,,,,,0.302267034,0.244948974,0.2468,0.2,stimuli/lakes/6080115_left.png,stimuli/lakes/6080115_right.png,,,,0,114,114,115,1,,,,,
,,,,,,,$5ebbd154ee4a9b1be136eefc,2020-07-20_14h36.32.916,fisher_task,2020.1.3,Win32,60,-0.085648148,-0.270833333,1,0,0,1.301,scale,,,,,,0.275930788,0.223606798,0.275930788,0.223606798,stimuli/lakes/507093_left.png,stimuli/lakes/507093_right.png,,,,0,115,115,93,1,,,,,
,,,,,,,$5ebbd154ee4a9b1be136eefc,2020-07-20_14h36.32.916,fisher_task,2020.1.3,Win32,60,0.076388889,-0.287037037,1,0,0,1.498,scale,,,,,,0.1234,0.1,0.3702,0.3,stimuli/lakes/107098_left.png,stimuli/lakes/107098_right.png,,,,0,116,116,98,1,,,,,
,,,,,,,$5ebbd154ee4a9b1be136eefc,2020-07-20_14h36.32.916,fisher_task,2020.1.3,Win32,60,0.159722222,-0.400462963,1,0,0,1.481,scale,,,,,,0.21373507,0.173205081,0.326485712,0.264575131,stimuli/lakes/303025_left.png,stimuli/lakes/303025_right.png,,,,0,117,117,25,1,,,,,
,,,,,,,$5ebbd154ee4a9b1be136eefc,2020-07-20_14h36.32.916,fisher_task,2020.1.3,Win32,60,-0.16087963,-0.363425926,1,0,0,1.701,scale,,,,,,0.3702,0.3,0.1234,0.1,stimuli/lakes/904049_left.png,stimuli/lakes/904049_right.png,,,,0,118,118,49,1,,,,,
,,,,,,,$5ebbd154ee4a9b1be136eefc,2020-07-20_14h36.32.916,fisher_task,2020.1.3,Win32,60,-0.166666667,-0.398148148,1,0,0,1.299,scale,,,,,,0.3702,0.3,0.1234,0.1,stimuli/lakes/9070106_left.png,stimuli/lakes/9070106_right.png,,,,0,119,119,106,1,,,,,
,,,,,,,$5ebbd154ee4a9b1be136eefc,2020-07-20_14h36.32.916,fisher_task,2020.1.3,Win32,60,0.159722222,-0.417824074,1,0,0,1.5,scale,,,,,,0.21373507,0.173205081,0.326485712,0.264575131,stimuli/lakes/302012_left.png,stimuli/lakes/302012_right.png,,,,0,120,120,12,1,,,,,
,,,,,,,$5ebbd154ee4a9b1be136eefc,2020-07-20_14h36.32.916,fisher_task,2020.1.3,Win32,60,-0.165509259,-0.408564815,1,0,0,2.383,scale,,,,,,0.326485712,0.264575131,0.21373507,0.173205081,stimuli/lakes/7080116_left.png,stimuli/lakes/7080116_right.png,,,,0,121,121,116,1,,,,,
,,,,,,,$5ebbd154ee4a9b1be136eefc,2020-07-20_14h36.32.916,fisher_task,2020.1.3,Win32,60,0.104166667,-0.299768519,1,0,0,2.117,scale,,,,,,0.302267034,0.244948974,0.2468,0.2,stimuli/lakes/60105_left.png,stimuli/lakes/60105_right.png,,,,0,122,122,5,1,,,,,
,,,,,,,$5ebbd154ee4a9b1be136eefc,2020-07-20_14h36.32.916,fisher_task,2020.1.3,Win32,60,0.146990741,-0.349537037,1,0,0,1.367,scale,,,,,,0.275930788,0.223606798,0.275930788,0.223606798,stimuli/lakes/504054_left.png,stimuli/lakes/504054_right.png,,,,0,123,123,54,1,,,,,
,,,,,,,$5ebbd154ee4a9b1be136eefc,2020-07-20_14h36.32.916,fisher_task,2020.1.3,Win32,60,0.15162037,-0.372685185,1,0,0,1.3,scale,,,,,,0.21373507,0.173205081,0.326485712,0.264575131,stimuli/lakes/304052_left.png,stimuli/lakes/304052_right.png,,,,0,124,124,52,1,,,,,
,,,,,,,$5ebbd154ee4a9b1be136eefc,2020-07-20_14h36.32.916,fisher_task,2020.1.3,Win32,60,-0.108796296,-0.3125,1,0,0,1.517,scale,,,,,,0.2468,0.2,0.302267034,0.244948974,stimuli/lakes/4090123_left.png,stimuli/lakes/4090123_right.png,,,,0,125,125,123,1,,,,,
,,,,,,,$5ebbd154ee4a9b1be136eefc,2020-07-20_14h36.32.916,fisher_task,2020.1.3,Win32,60,-0.136574074,-0.357638889,1,0,0,0.866,scale,,,,,,0.349027907,0.282842712,0.174513954,0.141421356,stimuli/lakes/806078_left.png,stimuli/lakes/806078_right.png,,,,0,126,126,78,1,,,,,
,,,,,,,$5ebbd154ee4a9b1be136eefc,2020-07-20_14h36.32.916,fisher_task,2020.1.3,Win32,60,-0.16087963,-0.412037037,1,0,0,0.9,scale,,,,,,0.302267034,0.244948974,0.2468,0.2,stimuli/lakes/6090126_left.png,stimuli/lakes/6090126_right.png,,,,0,127,127,126,1,,,,,
,,,,,,,$5ebbd154ee4a9b1be136eefc,2020-07-20_14h36.32.916,fisher_task,2020.1.3,Win32,60,-0.16087963,-0.412037037,1,0,0,0.801,scale,,,,,,0.326485712,0.264575131,0.21373507,0.173205081,stimuli/lakes/7080117_left.png,stimuli/lakes/7080117_right.png,,,,0,128,128,117,1,,,,,
,,,,,,,$5ebbd154ee4a9b1be136eefc,2020-07-20_14h36.32.916,fisher_task,2020.1.3,Win32,60,-0.173611111,-0.416666667,1,0,0,1.018,scale,,,,,,0.349027907,0.282842712,0.174513954,0.141421356,stimuli/lakes/8080118_left.png,stimuli/lakes/8080118_right.png,,,,0,129,129,118,1,,,,,
,,,,,,,$5ebbd154ee4a9b1be136eefc,2020-07-20_14h36.32.916,fisher_task,2020.1.3,Win32,60,,,,,,,,,,,,,,,,,,,,,,,,,,,,space,4.809,space,25.351
