keySpace.keys,instructions.thisRepN,instructions.thisTrialN,instructions.thisN,instructions.thisIndex,instructions.ran,participant,date,expName,psychopyVersion,OS,frameRate,mouse.x,mouse.y,mouse.leftButton,mouse.midButton,mouse.rightButton,mouse.time,mouse.clicked_name,training.thisRepN,training.thisTrialN,training.thisN,training.thisIndex,training.ran,widthBasketLeft,heightBasketLeft,widthBasketRight,heightBasketRight,leftLake,rightLake,space2.keys,space2.rt,space1.keys,trials.thisRepN,trials.thisTrialN,trials.thisN,trials.thisIndex,trials.ran,space1.rt,finalSpace1.keys,finalSpace1.rt,finalSpace2.keys,finalSpace2.rt
,0,0,0,0,1,$5df24f33323fe9000f9e61dc,2020-07-20_14h37.10.036,fisher_task,2020.1.3,Win32,60,,,,,,,,,,,,,,,,,,,,,,,,,,,,,,,
,,,,,,$5df24f33323fe9000f9e61dc,2020-07-20_14h37.10.036,fisher_task,2020.1.3,Win32,60,0.118055556,-0.294444444,1,0,0,3.585125,scale,0,0,0,0,1,0.275930788,0.223606798,0.275930788,0.223606798,stimuli/training/20_left.png,stimuli/training/20_right.png,,,,,,,,,,,,,
,,,,,,$5df24f33323fe9000f9e61dc,2020-07-20_14h37.10.036,fisher_task,2020.1.3,Win32,60,-0.139583333,-0.361805556,1,0,0,1.82739,scale,0,1,1,1,1,0.275930788,0.223606798,0.275930788,0.223606798,stimuli/training/80_left.png,stimuli/training/80_right.png,,,,,,,,,,,,,
,,,,,,$5df24f33323fe9000f9e61dc,2020-07-20_14h37.10.036,fisher_task,2020.1.3,Win32,60,0.148611111,-0.352083333,1,0,0,1.79962,scale,0,2,2,2,1,0.174513954,0.141421356,0.349027907,0.282842712,stimuli/training/50_left.png,stimuli/training/50_right.png,,,,,,,,,,,,,
,,,,,,$5df24f33323fe9000f9e61dc,2020-07-20_14h37.10.036,fisher_task,2020.1.3,Win32,60,-0.1,-0.313888889,1,0,0,2.47383,scale,0,3,3,3,1,0.349027907,0.282842712,0.174513954,0.141421356,stimuli/training/50_left.png,stimuli/training/50_right.png,,,,,,,,,,,,,
,,,,,,$5df24f33323fe9000f9e61dc,2020-07-20_14h37.10.036,fisher_task,2020.1.3,Win32,60,0.070833333,-0.265277778,1,0,0,2.425035,scale,0,4,4,4,1,0.275930788,0.223606798,0.275930788,0.223606798,stimuli/training/50_left.png,stimuli/training/50_right.png,,,,,,,,,,,,,
,,,,,,$5df24f33323fe9000f9e61dc,2020-07-20_14h37.10.036,fisher_task,2020.1.3,Win32,60,0.191666667,-0.427777778,1,0,0,1.625735,scale,0,5,5,5,1,0.174513954,0.141421356,0.349027907,0.282842712,stimuli/training/20_left.png,stimuli/training/20_right.png,,,,,,,,,,,,,
,,,,,,$5df24f33323fe9000f9e61dc,2020-07-20_14h37.10.036,fisher_task,2020.1.3,Win32,60,-0.127777778,-0.423611111,1,0,0,1.63979,scale,0,6,6,6,1,0.349027907,0.282842712,0.174513954,0.141421356,stimuli/training/80_left.png,stimuli/training/80_right.png,,,,,,,,,,,,,
,,,,,,$5df24f33323fe9000f9e61dc,2020-07-20_14h37.10.036,fisher_task,2020.1.3,Win32,60,0.148611111,-0.390277778,1,0,0,2.258235,scale,0,7,7,7,1,0.1234,0.1,0.3702,0.3,stimuli/training/30_left.png,stimuli/training/30_right.png,,,,,,,,,,,,,
,,,,,,$5df24f33323fe9000f9e61dc,2020-07-20_14h37.10.036,fisher_task,2020.1.3,Win32,60,-0.131944444,-0.407638889,1,0,0,1.764885,scale,0,8,8,8,1,0.3702,0.3,0.1234,0.1,stimuli/training/70_left.png,stimuli/training/70_right.png,,,,,,,,,,,,,
,,,,,,$5df24f33323fe9000f9e61dc,2020-07-20_14h37.10.036,fisher_task,2020.1.3,Win32,60,-0.132638889,-0.433333333,1,0,0,1.25057,scale,0,9,9,9,1,0.326485712,0.264575131,0.21373507,0.173205081,stimuli/training/90_left.png,stimuli/training/90_right.png,,,,,,,,,,,,,
,,,,,,$5df24f33323fe9000f9e61dc,2020-07-20_14h37.10.036,fisher_task,2020.1.3,Win32,60,0.169444444,-0.427777778,1,0,0,1.40352,scale,0,10,10,10,1,0.21373507,0.173205081,0.326485712,0.264575131,stimuli/training/10_left.png,stimuli/training/10_right.png,,,,,,,,,,,,,
,,,,,,$5df24f33323fe9000f9e61dc,2020-07-20_14h37.10.036,fisher_task,2020.1.3,Win32,60,-0.123611111,-0.367361111,1,0,0,1.85517,scale,,,,,,0.3702,0.3,0.1234,0.1,stimuli/lakes/9070106_left.png,stimuli/lakes/9070106_right.png,space,5.627355,,0,0,0,106,1,,,,,
,,,,,,$5df24f33323fe9000f9e61dc,2020-07-20_14h37.10.036,fisher_task,2020.1.3,Win32,60,-0.041666667,-0.263194444,1,0,0,7.323845,scale,,,,,,0.1234,0.1,0.3702,0.3,stimuli/lakes/1090119_left.png,stimuli/lakes/1090119_right.png,,,,0,1,1,119,1,,,,,
,,,,,,$5df24f33323fe9000f9e61dc,2020-07-20_14h37.10.036,fisher_task,2020.1.3,Win32,60,0.130555556,-0.307638889,1,0,0,1.97335,scale,,,,,,0.302267034,0.244948974,0.2468,0.2,stimuli/lakes/602017_left.png,stimuli/lakes/602017_right.png,,,,0,2,2,17,1,,,,,
,,,,,,$5df24f33323fe9000f9e61dc,2020-07-20_14h37.10.036,fisher_task,2020.1.3,Win32,60,0.157638889,-0.377083333,1,0,0,1.549345,scale,,,,,,0.21373507,0.173205081,0.326485712,0.264575131,stimuli/lakes/304043_left.png,stimuli/lakes/304043_right.png,,,,0,3,3,43,1,,,,,
,,,,,,$5df24f33323fe9000f9e61dc,2020-07-20_14h37.10.036,fisher_task,2020.1.3,Win32,60,-0.138194444,-0.379166667,1,0,0,1.535585,scale,,,,,,0.3702,0.3,0.1234,0.1,stimuli/lakes/906088_left.png,stimuli/lakes/906088_right.png,,,,0,4,4,88,1,,,,,
,,,,,,$5df24f33323fe9000f9e61dc,2020-07-20_14h37.10.036,fisher_task,2020.1.3,Win32,60,0.002083333,-0.254861111,1,0,0,4.74593,scale,,,,,,0.174513954,0.141421356,0.349027907,0.282842712,stimuli/lakes/206081_left.png,stimuli/lakes/206081_right.png,,,,0,5,5,81,1,,,,,
,,,,,,$5df24f33323fe9000f9e61dc,2020-07-20_14h37.10.036,fisher_task,2020.1.3,Win32,60,-0.052083333,-0.263194444,1,0,0,2.876635,scale,,,,,,0.174513954,0.141421356,0.349027907,0.282842712,stimuli/lakes/207099_left.png,stimuli/lakes/207099_right.png,,,,0,6,6,99,1,,,,,
,,,,,,$5df24f33323fe9000f9e61dc,2020-07-20_14h37.10.036,fisher_task,2020.1.3,Win32,60,0.118055556,-0.298611111,1,0,0,1.445235,scale,,,,,,0.275930788,0.223606798,0.275930788,0.223606798,stimuli/lakes/503027_left.png,stimuli/lakes/503027_right.png,,,,0,7,7,27,1,,,,,
,,,,,,$5df24f33323fe9000f9e61dc,2020-07-20_14h37.10.036,fisher_task,2020.1.3,Win32,60,0.156944444,-0.375,1,0,0,1.125565,scale,,,,,,0.275930788,0.223606798,0.275930788,0.223606798,stimuli/lakes/50104_left.png,stimuli/lakes/50104_right.png,,,,0,8,8,4,1,,,,,
,,,,,,$5df24f33323fe9000f9e61dc,2020-07-20_14h37.10.036,fisher_task,2020.1.3,Win32,60,-0.065277778,-0.290277778,1,0,0,2.486085,scale,,,,,,0.174513954,0.141421356,0.349027907,0.282842712,stimuli/lakes/2090120_left.png,stimuli/lakes/2090120_right.png,,,,0,9,9,120,1,,,,,
,,,,,,$5df24f33323fe9000f9e61dc,2020-07-20_14h37.10.036,fisher_task,2020.1.3,Win32,60,0.145138889,-0.395138889,1,0,0,1.389645,scale,,,,,,0.21373507,0.173205081,0.326485712,0.264575131,stimuli/lakes/30100_left.png,stimuli/lakes/30100_right.png,,,,0,10,10,0,1,,,,,
,,,,,,$5df24f33323fe9000f9e61dc,2020-07-20_14h37.10.036,fisher_task,2020.1.3,Win32,60,0.04375,-0.2375,1,0,0,4.91963,scale,,,,,,0.2468,0.2,0.302267034,0.244948974,stimuli/lakes/405063_left.png,stimuli/lakes/405063_right.png,,,,0,11,11,63,1,,,,,
,,,,,,$5df24f33323fe9000f9e61dc,2020-07-20_14h37.10.036,fisher_task,2020.1.3,Win32,60,-0.092361111,-0.291666667,1,0,0,1.723155,scale,,,,,,0.302267034,0.244948974,0.2468,0.2,stimuli/lakes/606085_left.png,stimuli/lakes/606085_right.png,,,,0,12,12,85,1,,,,,
,,,,,,$5df24f33323fe9000f9e61dc,2020-07-20_14h37.10.036,fisher_task,2020.1.3,Win32,60,-0.121527778,-0.373611111,1,0,0,1.396585,scale,,,,,,0.3702,0.3,0.1234,0.1,stimuli/lakes/905070_left.png,stimuli/lakes/905070_right.png,,,,0,13,13,70,1,,,,,
,,,,,,$5df24f33323fe9000f9e61dc,2020-07-20_14h37.10.036,fisher_task,2020.1.3,Win32,60,-0.036805556,-0.249305556,1,0,0,3.022535,scale,,,,,,0.1234,0.1,0.3702,0.3,stimuli/lakes/1080107_left.png,stimuli/lakes/1080107_right.png,,,,0,14,14,107,1,,,,,
,,,,,,$5df24f33323fe9000f9e61dc,2020-07-20_14h37.10.036,fisher_task,2020.1.3,Win32,60,-0.136111111,-0.388888889,1,0,0,1.31316,scale,,,,,,0.326485712,0.264575131,0.21373507,0.173205081,stimuli/lakes/7090129_left.png,stimuli/lakes/7090129_right.png,,,,0,15,15,129,1,,,,,
,,,,,,$5df24f33323fe9000f9e61dc,2020-07-20_14h37.10.036,fisher_task,2020.1.3,Win32,60,-0.096527778,-0.294444444,1,0,0,1.542575,scale,,,,,,0.2468,0.2,0.302267034,0.244948974,stimuli/lakes/4090124_left.png,stimuli/lakes/4090124_right.png,,,,0,16,16,124,1,,,,,
,,,,,,$5df24f33323fe9000f9e61dc,2020-07-20_14h37.10.036,fisher_task,2020.1.3,Win32,60,0.129166667,-0.309027778,1,0,0,1.750925,scale,,,,,,0.302267034,0.244948974,0.2468,0.2,stimuli/lakes/60105_left.png,stimuli/lakes/60105_right.png,,,,0,17,17,5,1,,,,,
,,,,,,$5df24f33323fe9000f9e61dc,2020-07-20_14h37.10.036,fisher_task,2020.1.3,Win32,60,-0.0875,-0.293055556,1,0,0,2.5639,scale,,,,,,0.2468,0.2,0.302267034,0.244948974,stimuli/lakes/4080112_left.png,stimuli/lakes/4080112_right.png,,,,0,18,18,112,1,,,,,
,,,,,,$5df24f33323fe9000f9e61dc,2020-07-20_14h37.10.036,fisher_task,2020.1.3,Win32,60,0.139583333,-0.334027778,1,0,0,1.271515,scale,,,,,,0.2468,0.2,0.302267034,0.244948974,stimuli/lakes/404044_left.png,stimuli/lakes/404044_right.png,,,,0,19,19,44,1,,,,,
,,,,,,$5df24f33323fe9000f9e61dc,2020-07-20_14h37.10.036,fisher_task,2020.1.3,Win32,60,0.139583333,-0.335416667,1,0,0,1.146375,scale,,,,,,0.174513954,0.141421356,0.349027907,0.282842712,stimuli/lakes/204051_left.png,stimuli/lakes/204051_right.png,,,,0,20,20,51,1,,,,,
,,,,,,$5df24f33323fe9000f9e61dc,2020-07-20_14h37.10.036,fisher_task,2020.1.3,Win32,60,0.033333333,-0.227777778,1,0,0,3.8704,scale,,,,,,0.21373507,0.173205081,0.326485712,0.264575131,stimuli/lakes/306082_left.png,stimuli/lakes/306082_right.png,,,,0,21,21,82,1,,,,,
,,,,,,$5df24f33323fe9000f9e61dc,2020-07-20_14h37.10.036,fisher_task,2020.1.3,Win32,60,-0.063888889,-0.257638889,1,0,0,2.07064,scale,,,,,,0.349027907,0.282842712,0.174513954,0.141421356,stimuli/lakes/805069_left.png,stimuli/lakes/805069_right.png,,,space,0,22,22,69,1,4.01196,,,,
,,,,,,$5df24f33323fe9000f9e61dc,2020-07-20_14h37.10.036,fisher_task,2020.1.3,Win32,60,0.088888889,-0.267361111,1,0,0,1.21596,scale,,,,,,0.275930788,0.223606798,0.275930788,0.223606798,stimuli/lakes/502016_left.png,stimuli/lakes/502016_right.png,,,,0,23,23,16,1,,,,,
,,,,,,$5df24f33323fe9000f9e61dc,2020-07-20_14h37.10.036,fisher_task,2020.1.3,Win32,60,-0.141666667,-0.374305556,1,0,0,1.45219,scale,,,,,,0.21373507,0.173205081,0.326485712,0.264575131,stimuli/lakes/3090121_left.png,stimuli/lakes/3090121_right.png,,,,0,24,24,121,1,,,,,
,,,,,,$5df24f33323fe9000f9e61dc,2020-07-20_14h37.10.036,fisher_task,2020.1.3,Win32,60,0.155555556,-0.423611111,1,0,0,1.896915,scale,,,,,,0.1234,0.1,0.3702,0.3,stimuli/lakes/103023_left.png,stimuli/lakes/103023_right.png,,,,0,25,25,23,1,,,,,
,,,,,,$5df24f33323fe9000f9e61dc,2020-07-20_14h37.10.036,fisher_task,2020.1.3,Win32,60,0.116666667,-0.270833333,1,0,0,2.598675,scale,,,,,,0.21373507,0.173205081,0.326485712,0.264575131,stimuli/lakes/305061_left.png,stimuli/lakes/305061_right.png,,,,0,26,26,61,1,,,,,
,,,,,,$5df24f33323fe9000f9e61dc,2020-07-20_14h37.10.036,fisher_task,2020.1.3,Win32,60,0.152083333,-0.336111111,1,0,0,1.375765,scale,,,,,,0.326485712,0.264575131,0.21373507,0.173205081,stimuli/lakes/703029_left.png,stimuli/lakes/703029_right.png,,,,0,27,27,29,1,,,,,
,,,,,,$5df24f33323fe9000f9e61dc,2020-07-20_14h37.10.036,fisher_task,2020.1.3,Win32,60,-0.034722222,-0.241666667,1,0,0,2.042815,scale,,,,,,0.1234,0.1,0.3702,0.3,stimuli/lakes/106071_left.png,stimuli/lakes/106071_right.png,,,,0,28,28,71,1,,,,,
,,,,,,$5df24f33323fe9000f9e61dc,2020-07-20_14h37.10.036,fisher_task,2020.1.3,Win32,60,0.004166667,-0.236111111,1,0,0,2.55697,scale,,,,,,0.2468,0.2,0.302267034,0.244948974,stimuli/lakes/405064_left.png,stimuli/lakes/405064_right.png,,,,0,29,29,64,1,,,,,
,,,,,,$5df24f33323fe9000f9e61dc,2020-07-20_14h37.10.036,fisher_task,2020.1.3,Win32,60,-0.101388889,-0.315277778,1,0,0,1.243695,scale,,,,,,0.275930788,0.223606798,0.275930788,0.223606798,stimuli/lakes/5080113_left.png,stimuli/lakes/5080113_right.png,,,,0,30,30,113,1,,,,,
,,,,,,$5df24f33323fe9000f9e61dc,2020-07-20_14h37.10.036,fisher_task,2020.1.3,Win32,60,0.144444444,-0.371527778,1,0,0,1.208945,scale,,,,,,0.21373507,0.173205081,0.326485712,0.264575131,stimuli/lakes/303025_left.png,stimuli/lakes/303025_right.png,,,,0,31,31,25,1,,,,,
,,,,,,$5df24f33323fe9000f9e61dc,2020-07-20_14h37.10.036,fisher_task,2020.1.3,Win32,60,0.160416667,-0.422222222,1,0,0,1.2437,scale,,,,,,0.2468,0.2,0.302267034,0.244948974,stimuli/lakes/402015_left.png,stimuli/lakes/402015_right.png,,,,0,32,32,15,1,,,,,
,,,,,,$5df24f33323fe9000f9e61dc,2020-07-20_14h37.10.036,fisher_task,2020.1.3,Win32,60,0.047222222,-0.226388889,1,0,0,1.813495,scale,,,,,,0.349027907,0.282842712,0.174513954,0.141421356,stimuli/lakes/802021_left.png,stimuli/lakes/802021_right.png,,,,0,33,33,21,1,,,,,
,,,,,,$5df24f33323fe9000f9e61dc,2020-07-20_14h37.10.036,fisher_task,2020.1.3,Win32,60,0.070833333,-0.254861111,1,0,0,3.45339,scale,,,,,,0.349027907,0.282842712,0.174513954,0.141421356,stimuli/lakes/80109_left.png,stimuli/lakes/80109_right.png,,,,0,34,34,9,1,,,,,
,,,,,,$5df24f33323fe9000f9e61dc,2020-07-20_14h37.10.036,fisher_task,2020.1.3,Win32,60,0.104861111,-0.277777778,1,0,0,1.66756,scale,,,,,,0.3702,0.3,0.1234,0.1,stimuli/lakes/904058_left.png,stimuli/lakes/904058_right.png,,,,0,35,35,58,1,,,,,
,,,,,,$5df24f33323fe9000f9e61dc,2020-07-20_14h37.10.036,fisher_task,2020.1.3,Win32,60,-0.132638889,-0.384722222,1,0,0,1.49385,scale,,,,,,0.326485712,0.264575131,0.21373507,0.173205081,stimuli/lakes/7090128_left.png,stimuli/lakes/7090128_right.png,,,,0,36,36,128,1,,,,,
,,,,,,$5df24f33323fe9000f9e61dc,2020-07-20_14h37.10.036,fisher_task,2020.1.3,Win32,60,-0.084027778,-0.276388889,1,0,0,3.168555,scale,,,,,,0.174513954,0.141421356,0.349027907,0.282842712,stimuli/lakes/207090_left.png,stimuli/lakes/207090_right.png,,,,0,37,37,90,1,,,,,
,,,,,,$5df24f33323fe9000f9e61dc,2020-07-20_14h37.10.036,fisher_task,2020.1.3,Win32,60,0.133333333,-0.375694444,1,0,0,1.097785,scale,,,,,,0.21373507,0.173205081,0.326485712,0.264575131,stimuli/lakes/302013_left.png,stimuli/lakes/302013_right.png,,,,0,38,38,13,1,,,,,
,,,,,,$5df24f33323fe9000f9e61dc,2020-07-20_14h37.10.036,fisher_task,2020.1.3,Win32,60,-0.061805556,-0.264583333,1,0,0,1.82737,scale,,,,,,0.326485712,0.264575131,0.21373507,0.173205081,stimuli/lakes/705067_left.png,stimuli/lakes/705067_right.png,,,,0,39,39,67,1,,,,,
,,,,,,$5df24f33323fe9000f9e61dc,2020-07-20_14h37.10.036,fisher_task,2020.1.3,Win32,60,-0.061805556,-0.264583333,1,0,0,1.76485,scale,,,,,,0.21373507,0.173205081,0.326485712,0.264575131,stimuli/lakes/3080110_left.png,stimuli/lakes/3080110_right.png,,,,0,40,40,110,1,,,,,
,,,,,,$5df24f33323fe9000f9e61dc,2020-07-20_14h37.10.036,fisher_task,2020.1.3,Win32,60,-0.061805556,-0.264583333,1,0,0,2.90449,scale,,,,,,0.1234,0.1,0.3702,0.3,stimuli/lakes/107098_left.png,stimuli/lakes/107098_right.png,,,,0,41,41,98,1,,,,,
,,,,,,$5df24f33323fe9000f9e61dc,2020-07-20_14h37.10.036,fisher_task,2020.1.3,Win32,60,-0.075,-0.280555556,1,0,0,1.521645,scale,,,,,,0.1234,0.1,0.3702,0.3,stimuli/lakes/107089_left.png,stimuli/lakes/107089_right.png,,,,0,42,42,89,1,,,,,
,,,,,,$5df24f33323fe9000f9e61dc,2020-07-20_14h37.10.036,fisher_task,2020.1.3,Win32,60,-0.101388889,-0.305555556,1,0,0,1.5286,scale,,,,,,0.2468,0.2,0.302267034,0.244948974,stimuli/lakes/4080111_left.png,stimuli/lakes/4080111_right.png,,,,0,43,43,111,1,,,,,
,,,,,,$5df24f33323fe9000f9e61dc,2020-07-20_14h37.10.036,fisher_task,2020.1.3,Win32,60,-0.154861111,-0.388888889,1,0,0,1.20197,scale,,,,,,0.302267034,0.244948974,0.2468,0.2,stimuli/lakes/6070103_left.png,stimuli/lakes/6070103_right.png,,,space,0,44,44,103,1,2.72124,,,,
,,,,,,$5df24f33323fe9000f9e61dc,2020-07-20_14h37.10.036,fisher_task,2020.1.3,Win32,60,0,-0.25,1,0,0,1.71621,scale,,,,,,0.302267034,0.244948974,0.2468,0.2,stimuli/lakes/604046_left.png,stimuli/lakes/604046_right.png,,,,0,45,45,46,1,,,,,
,,,,,,$5df24f33323fe9000f9e61dc,2020-07-20_14h37.10.036,fisher_task,2020.1.3,Win32,60,0,-0.249305556,1,0,0,1.27841,scale,,,,,,0.3702,0.3,0.1234,0.1,stimuli/lakes/902022_left.png,stimuli/lakes/902022_right.png,,,,0,46,46,22,1,,,,,
,,,,,,$5df24f33323fe9000f9e61dc,2020-07-20_14h37.10.036,fisher_task,2020.1.3,Win32,60,0.046527778,-0.249305556,1,0,0,2.5223,scale,,,,,,0.326485712,0.264575131,0.21373507,0.173205081,stimuli/lakes/703038_left.png,stimuli/lakes/703038_right.png,,,,0,47,47,38,1,,,,,
,,,,,,$5df24f33323fe9000f9e61dc,2020-07-20_14h37.10.036,fisher_task,2020.1.3,Win32,60,0.070138889,-0.272222222,1,0,0,1.61196,scale,,,,,,0.275930788,0.223606798,0.275930788,0.223606798,stimuli/lakes/504045_left.png,stimuli/lakes/504045_right.png,,,,0,48,48,45,1,,,,,
,,,,,,$5df24f33323fe9000f9e61dc,2020-07-20_14h37.10.036,fisher_task,2020.1.3,Win32,60,0.111111111,-0.3,1,0,0,1.368775,scale,,,,,,0.326485712,0.264575131,0.21373507,0.173205081,stimuli/lakes/70108_left.png,stimuli/lakes/70108_right.png,,,,0,49,49,8,1,,,,,
,,,,,,$5df24f33323fe9000f9e61dc,2020-07-20_14h37.10.036,fisher_task,2020.1.3,Win32,60,-0.089583333,-0.313888889,1,0,0,1.924625,scale,,,,,,0.21373507,0.173205081,0.326485712,0.264575131,stimuli/lakes/3090122_left.png,stimuli/lakes/3090122_right.png,,,,0,50,50,122,1,,,,,
,,,,,,$5df24f33323fe9000f9e61dc,2020-07-20_14h37.10.036,fisher_task,2020.1.3,Win32,60,-0.083333333,-0.297222222,1,0,0,3.203285,scale,,,,,,0.2468,0.2,0.302267034,0.244948974,stimuli/lakes/4090123_left.png,stimuli/lakes/4090123_right.png,,,,0,51,51,123,1,,,,,
,,,,,,$5df24f33323fe9000f9e61dc,2020-07-20_14h37.10.036,fisher_task,2020.1.3,Win32,60,0.123611111,-0.297916667,1,0,0,1.13966,scale,,,,,,0.2468,0.2,0.302267034,0.244948974,stimuli/lakes/40103_left.png,stimuli/lakes/40103_right.png,,,,0,52,52,3,1,,,,,
,,,,,,$5df24f33323fe9000f9e61dc,2020-07-20_14h37.10.036,fisher_task,2020.1.3,Win32,60,-0.127083333,-0.390972222,1,0,0,1.542465,scale,,,,,,0.3702,0.3,0.1234,0.1,stimuli/lakes/906079_left.png,stimuli/lakes/906079_right.png,,,,0,53,53,79,1,,,,,
,,,,,,$5df24f33323fe9000f9e61dc,2020-07-20_14h37.10.036,fisher_task,2020.1.3,Win32,60,0.126388889,-0.295833333,1,0,0,2.306815,scale,,,,,,0.1234,0.1,0.3702,0.3,stimuli/lakes/105059_left.png,stimuli/lakes/105059_right.png,,,,0,54,54,59,1,,,,,
,,,,,,$5df24f33323fe9000f9e61dc,2020-07-20_14h37.10.036,fisher_task,2020.1.3,Win32,60,0.022916667,-0.225,1,0,0,2.814065,scale,,,,,,0.302267034,0.244948974,0.2468,0.2,stimuli/lakes/603037_left.png,stimuli/lakes/603037_right.png,,,,0,55,55,37,1,,,,,
,,,,,,$5df24f33323fe9000f9e61dc,2020-07-20_14h37.10.036,fisher_task,2020.1.3,Win32,60,0.029861111,-0.234722222,1,0,0,1.299315,scale,,,,,,0.326485712,0.264575131,0.21373507,0.173205081,stimuli/lakes/704056_left.png,stimuli/lakes/704056_right.png,,,,0,56,56,56,1,,,,,
,,,,,,$5df24f33323fe9000f9e61dc,2020-07-20_14h37.10.036,fisher_task,2020.1.3,Win32,60,-0.088888889,-0.250694444,1,0,0,1.556305,scale,,,,,,0.349027907,0.282842712,0.174513954,0.141421356,stimuli/lakes/806087_left.png,stimuli/lakes/806087_right.png,,,,0,57,57,87,1,,,,,
,,,,,,$5df24f33323fe9000f9e61dc,2020-07-20_14h37.10.036,fisher_task,2020.1.3,Win32,60,0.027777778,-0.228472222,1,0,0,1.855175,scale,,,,,,0.326485712,0.264575131,0.21373507,0.173205081,stimuli/lakes/702019_left.png,stimuli/lakes/702019_right.png,,,,0,58,58,19,1,,,,,
,,,,,,$5df24f33323fe9000f9e61dc,2020-07-20_14h37.10.036,fisher_task,2020.1.3,Win32,60,-0.038888889,-0.242361111,1,0,0,2.42505,scale,,,,,,0.21373507,0.173205081,0.326485712,0.264575131,stimuli/lakes/3070100_left.png,stimuli/lakes/3070100_right.png,,,,0,59,59,100,1,,,,,
,,,,,,$5df24f33323fe9000f9e61dc,2020-07-20_14h37.10.036,fisher_task,2020.1.3,Win32,60,0.091666667,-0.277777778,1,0,0,1.035195,scale,,,,,,0.275930788,0.223606798,0.275930788,0.223606798,stimuli/lakes/503036_left.png,stimuli/lakes/503036_right.png,,,,0,60,60,36,1,,,,,
,,,,,,$5df24f33323fe9000f9e61dc,2020-07-20_14h37.10.036,fisher_task,2020.1.3,Win32,60,-0.116666667,-0.328472222,1,0,0,1.257525,scale,,,,,,0.326485712,0.264575131,0.21373507,0.173205081,stimuli/lakes/706086_left.png,stimuli/lakes/706086_right.png,,,,0,61,61,86,1,,,,,
,,,,,,$5df24f33323fe9000f9e61dc,2020-07-20_14h37.10.036,fisher_task,2020.1.3,Win32,60,0.139583333,-0.327083333,1,0,0,1.65366,scale,,,,,,0.1234,0.1,0.3702,0.3,stimuli/lakes/104041_left.png,stimuli/lakes/104041_right.png,,,,0,62,62,41,1,,,,,
,,,,,,$5df24f33323fe9000f9e61dc,2020-07-20_14h37.10.036,fisher_task,2020.1.3,Win32,60,0.152083333,-0.368055556,1,0,0,1.18811,scale,,,,,,0.174513954,0.141421356,0.349027907,0.282842712,stimuli/lakes/204042_left.png,stimuli/lakes/204042_right.png,,,,0,63,63,42,1,,,,,
,,,,,,$5df24f33323fe9000f9e61dc,2020-07-20_14h37.10.036,fisher_task,2020.1.3,Win32,60,0.159722222,-0.400694444,1,0,0,1.25062,scale,,,,,,0.1234,0.1,0.3702,0.3,stimuli/lakes/104050_left.png,stimuli/lakes/104050_right.png,,,,0,64,64,50,1,,,,,
,,,,,,$5df24f33323fe9000f9e61dc,2020-07-20_14h37.10.036,fisher_task,2020.1.3,Win32,60,0.165277778,-0.418055556,1,0,0,1.292265,scale,,,,,,0.21373507,0.173205081,0.326485712,0.264575131,stimuli/lakes/302012_left.png,stimuli/lakes/302012_right.png,,,,0,65,65,12,1,,,,,
,,,,,,$5df24f33323fe9000f9e61dc,2020-07-20_14h37.10.036,fisher_task,2020.1.3,Win32,60,-0.09375,-0.259027778,1,0,0,1.31318,scale,,,,,,0.275930788,0.223606798,0.275930788,0.223606798,stimuli/lakes/5070102_left.png,stimuli/lakes/5070102_right.png,,,space,0,66,66,102,1,1.73958,,,,
,,,,,,$5df24f33323fe9000f9e61dc,2020-07-20_14h37.10.036,fisher_task,2020.1.3,Win32,60,-0.09375,-0.28125,1,0,0,0.73646,scale,,,,,,0.302267034,0.244948974,0.2468,0.2,stimuli/lakes/606076_left.png,stimuli/lakes/606076_right.png,,,,0,67,67,76,1,,,,,
,,,,,,$5df24f33323fe9000f9e61dc,2020-07-20_14h37.10.036,fisher_task,2020.1.3,Win32,60,-0.054166667,-0.244444444,1,0,0,1.667585,scale,,,,,,0.349027907,0.282842712,0.174513954,0.141421356,stimuli/lakes/804048_left.png,stimuli/lakes/804048_right.png,,,,0,68,68,48,1,,,,,
,,,,,,$5df24f33323fe9000f9e61dc,2020-07-20_14h37.10.036,fisher_task,2020.1.3,Win32,60,0.163194444,-0.388888889,1,0,0,1.479975,scale,,,,,,0.302267034,0.244948974,0.2468,0.2,stimuli/lakes/60106_left.png,stimuli/lakes/60106_right.png,,,,0,69,69,6,1,,,,,
,,,,,,$5df24f33323fe9000f9e61dc,2020-07-20_14h37.10.036,fisher_task,2020.1.3,Win32,60,0.125,-0.314583333,1,0,0,0.70171,scale,,,,,,0.2468,0.2,0.302267034,0.244948974,stimuli/lakes/403035_left.png,stimuli/lakes/403035_right.png,,,,0,70,70,35,1,,,,,
,,,,,,$5df24f33323fe9000f9e61dc,2020-07-20_14h37.10.036,fisher_task,2020.1.3,Win32,60,-0.064583333,-0.272916667,1,0,0,1.25069,scale,,,,,,0.326485712,0.264575131,0.21373507,0.173205081,stimuli/lakes/705068_left.png,stimuli/lakes/705068_right.png,,,,0,71,71,68,1,,,,,
,,,,,,$5df24f33323fe9000f9e61dc,2020-07-20_14h37.10.036,fisher_task,2020.1.3,Win32,60,0.174305556,-0.394444444,1,0,0,1.29927,scale,,,,,,0.2468,0.2,0.302267034,0.244948974,stimuli/lakes/402014_left.png,stimuli/lakes/402014_right.png,,,,0,72,72,14,1,,,,,
,,,,,,$5df24f33323fe9000f9e61dc,2020-07-20_14h37.10.036,fisher_task,2020.1.3,Win32,60,-0.134722222,-0.361805556,1,0,0,1.05609,scale,,,,,,0.275930788,0.223606798,0.275930788,0.223606798,stimuli/lakes/506075_left.png,stimuli/lakes/506075_right.png,,,,0,73,73,75,1,,,,,
,,,,,,$5df24f33323fe9000f9e61dc,2020-07-20_14h37.10.036,fisher_task,2020.1.3,Win32,60,0.121527778,-0.3125,1,0,0,1.10625,scale,,,,,,0.21373507,0.173205081,0.326485712,0.264575131,stimuli/lakes/305062_left.png,stimuli/lakes/305062_right.png,,,,0,74,74,62,1,,,,,
,,,,,,$5df24f33323fe9000f9e61dc,2020-07-20_14h37.10.036,fisher_task,2020.1.3,Win32,60,-0.134722222,-0.425,1,0,0,1.368775,scale,,,,,,0.326485712,0.264575131,0.21373507,0.173205081,stimuli/lakes/7080116_left.png,stimuli/lakes/7080116_right.png,,,,0,75,75,116,1,,,,,
,,,,,,$5df24f33323fe9000f9e61dc,2020-07-20_14h37.10.036,fisher_task,2020.1.3,Win32,60,0.030555556,-0.226388889,1,0,0,2.34162,scale,,,,,,0.302267034,0.244948974,0.2468,0.2,stimuli/lakes/603028_left.png,stimuli/lakes/603028_right.png,,,,0,76,76,28,1,,,,,
,,,,,,$5df24f33323fe9000f9e61dc,2020-07-20_14h37.10.036,fisher_task,2020.1.3,Win32,60,-0.100694444,-0.275694444,1,0,0,1.3896,scale,,,,,,0.275930788,0.223606798,0.275930788,0.223606798,stimuli/lakes/507093_left.png,stimuli/lakes/507093_right.png,,,,0,77,77,93,1,,,,,
,,,,,,$5df24f33323fe9000f9e61dc,2020-07-20_14h37.10.036,fisher_task,2020.1.3,Win32,60,-0.0375,-0.231944444,1,0,0,1.723185,scale,,,,,,0.2468,0.2,0.302267034,0.244948974,stimuli/lakes/406074_left.png,stimuli/lakes/406074_right.png,,,,0,78,78,74,1,,,,,
,,,,,,$5df24f33323fe9000f9e61dc,2020-07-20_14h37.10.036,fisher_task,2020.1.3,Win32,60,0.040972222,-0.229166667,1,0,0,2.86264,scale,,,,,,0.326485712,0.264575131,0.21373507,0.173205081,stimuli/lakes/704047_left.png,stimuli/lakes/704047_right.png,,,,0,79,79,47,1,,,,,
,,,,,,$5df24f33323fe9000f9e61dc,2020-07-20_14h37.10.036,fisher_task,2020.1.3,Win32,60,-0.0625,-0.255555556,1,0,0,1.27148,scale,,,,,,0.174513954,0.141421356,0.349027907,0.282842712,stimuli/lakes/206072_left.png,stimuli/lakes/206072_right.png,,,,0,80,80,72,1,,,,,
,,,,,,$5df24f33323fe9000f9e61dc,2020-07-20_14h37.10.036,fisher_task,2020.1.3,Win32,60,-0.135416667,-0.365277778,1,0,0,0.85459,scale,,,,,,0.275930788,0.223606798,0.275930788,0.223606798,stimuli/lakes/5090125_left.png,stimuli/lakes/5090125_right.png,,,,0,81,81,125,1,,,,,
,,,,,,$5df24f33323fe9000f9e61dc,2020-07-20_14h37.10.036,fisher_task,2020.1.3,Win32,60,-0.079861111,-0.278472222,1,0,0,1.681485,scale,,,,,,0.3702,0.3,0.1234,0.1,stimuli/lakes/903031_left.png,stimuli/lakes/903031_right.png,,,,0,82,82,31,1,,,,,
,,,,,,$5df24f33323fe9000f9e61dc,2020-07-20_14h37.10.036,fisher_task,2020.1.3,Win32,60,0.15,-0.424305556,1,0,0,1.368785,scale,,,,,,0.3702,0.3,0.1234,0.1,stimuli/lakes/901010_left.png,stimuli/lakes/901010_right.png,,,,0,83,83,10,1,,,,,
,,,,,,$5df24f33323fe9000f9e61dc,2020-07-20_14h37.10.036,fisher_task,2020.1.3,Win32,60,0.090972222,-0.270138889,1,0,0,1.445275,scale,,,,,,0.21373507,0.173205081,0.326485712,0.264575131,stimuli/lakes/304052_left.png,stimuli/lakes/304052_right.png,,,,0,84,84,52,1,,,,,
,,,,,,$5df24f33323fe9000f9e61dc,2020-07-20_14h37.10.036,fisher_task,2020.1.3,Win32,60,0.106944444,-0.264583333,1,0,0,1.674505,scale,,,,,,0.1234,0.1,0.3702,0.3,stimuli/lakes/106080_left.png,stimuli/lakes/106080_right.png,,,,0,85,85,80,1,,,,,
,,,,,,$5df24f33323fe9000f9e61dc,2020-07-20_14h37.10.036,fisher_task,2020.1.3,Win32,60,-0.1125,-0.316666667,1,0,0,1.49414,scale,,,,,,0.326485712,0.264575131,0.21373507,0.173205081,stimuli/lakes/706077_left.png,stimuli/lakes/706077_right.png,,,,0,86,86,77,1,,,,,
,,,,,,$5df24f33323fe9000f9e61dc,2020-07-20_14h37.10.036,fisher_task,2020.1.3,Win32,60,-0.070138889,-0.268055556,1,0,0,1.924685,scale,,,,,,0.21373507,0.173205081,0.326485712,0.264575131,stimuli/lakes/306073_left.png,stimuli/lakes/306073_right.png,,,,0,87,87,73,1,,,,,
,,,,,,$5df24f33323fe9000f9e61dc,2020-07-20_14h37.10.036,fisher_task,2020.1.3,Win32,60,-0.063194444,-0.265972222,1,0,0,1.959575,scale,,,,,,0.174513954,0.141421356,0.349027907,0.282842712,stimuli/lakes/2080108_left.png,stimuli/lakes/2080108_right.png,,,space,0,88,88,108,1,2.16817,,,,
,,,,,,$5df24f33323fe9000f9e61dc,2020-07-20_14h37.10.036,fisher_task,2020.1.3,Win32,60,-0.074305556,-0.266666667,1,0,0,1.410495,scale,,,,,,0.2468,0.2,0.302267034,0.244948974,stimuli/lakes/4070101_left.png,stimuli/lakes/4070101_right.png,,,,0,89,89,101,1,,,,,
,,,,,,$5df24f33323fe9000f9e61dc,2020-07-20_14h37.10.036,fisher_task,2020.1.3,Win32,60,-0.147222222,-0.415277778,1,0,0,1.02827,scale,,,,,,0.3702,0.3,0.1234,0.1,stimuli/lakes/907097_left.png,stimuli/lakes/907097_right.png,,,,0,90,90,97,1,,,,,
,,,,,,$5df24f33323fe9000f9e61dc,2020-07-20_14h37.10.036,fisher_task,2020.1.3,Win32,60,0.000694444,-0.224305556,1,0,0,1.70233,scale,,,,,,0.302267034,0.244948974,0.2468,0.2,stimuli/lakes/602018_left.png,stimuli/lakes/602018_right.png,,,,0,91,91,18,1,,,,,
,,,,,,$5df24f33323fe9000f9e61dc,2020-07-20_14h37.10.036,fisher_task,2020.1.3,Win32,60,-0.104166667,-0.332638889,1,0,0,1.2159,scale,,,,,,0.302267034,0.244948974,0.2468,0.2,stimuli/lakes/6090126_left.png,stimuli/lakes/6090126_right.png,,,,0,92,92,126,1,,,,,
,,,,,,$5df24f33323fe9000f9e61dc,2020-07-20_14h37.10.036,fisher_task,2020.1.3,Win32,60,-0.113888889,-0.36875,1,0,0,0.882375,scale,,,,,,0.302267034,0.244948974,0.2468,0.2,stimuli/lakes/6080115_left.png,stimuli/lakes/6080115_right.png,,,,0,93,93,115,1,,,,,
,,,,,,$5df24f33323fe9000f9e61dc,2020-07-20_14h37.10.036,fisher_task,2020.1.3,Win32,60,0.144444444,-0.411805556,1,0,0,1.167325,scale,,,,,,0.174513954,0.141421356,0.349027907,0.282842712,stimuli/lakes/203033_left.png,stimuli/lakes/203033_right.png,,,,0,94,94,33,1,,,,,
,,,,,,$5df24f33323fe9000f9e61dc,2020-07-20_14h37.10.036,fisher_task,2020.1.3,Win32,60,0.039583333,-0.227777778,1,0,0,1.41048,scale,,,,,,0.3702,0.3,0.1234,0.1,stimuli/lakes/903040_left.png,stimuli/lakes/903040_right.png,,,,0,95,95,40,1,,,,,
,,,,,,$5df24f33323fe9000f9e61dc,2020-07-20_14h37.10.036,fisher_task,2020.1.3,Win32,60,-0.065972222,-0.248611111,1,0,0,1.146425,scale,,,,,,0.2468,0.2,0.302267034,0.244948974,stimuli/lakes/407092_left.png,stimuli/lakes/407092_right.png,,,,0,96,96,92,1,,,,,
,,,,,,$5df24f33323fe9000f9e61dc,2020-07-20_14h37.10.036,fisher_task,2020.1.3,Win32,60,-0.129166667,-0.349305556,1,0,0,0.889315,scale,,,,,,0.349027907,0.282842712,0.174513954,0.141421356,stimuli/lakes/8080118_left.png,stimuli/lakes/8080118_right.png,,,,0,97,97,118,1,,,,,
,,,,,,$5df24f33323fe9000f9e61dc,2020-07-20_14h37.10.036,fisher_task,2020.1.3,Win32,60,-0.063194444,-0.244444444,1,0,0,1.924655,scale,,,,,,0.3702,0.3,0.1234,0.1,stimuli/lakes/904049_left.png,stimuli/lakes/904049_right.png,,,,0,98,98,49,1,,,,,
,,,,,,$5df24f33323fe9000f9e61dc,2020-07-20_14h37.10.036,fisher_task,2020.1.3,Win32,60,-0.124305556,-0.375,1,0,0,0.91017,scale,,,,,,0.302267034,0.244948974,0.2468,0.2,stimuli/lakes/6080114_left.png,stimuli/lakes/6080114_right.png,,,,0,99,99,114,1,,,,,
,,,,,,$5df24f33323fe9000f9e61dc,2020-07-20_14h37.10.036,fisher_task,2020.1.3,Win32,60,-0.040277778,-0.263194444,1,0,0,1.264575,scale,,,,,,0.349027907,0.282842712,0.174513954,0.141421356,stimuli/lakes/804057_left.png,stimuli/lakes/804057_right.png,,,,0,100,100,57,1,,,,,
,,,,,,$5df24f33323fe9000f9e61dc,2020-07-20_14h37.10.036,fisher_task,2020.1.3,Win32,60,0.063888889,-0.272222222,1,0,0,2.42498,scale,,,,,,0.326485712,0.264575131,0.21373507,0.173205081,stimuli/lakes/702020_left.png,stimuli/lakes/702020_right.png,,,,0,101,101,20,1,,,,,
,,,,,,$5df24f33323fe9000f9e61dc,2020-07-20_14h37.10.036,fisher_task,2020.1.3,Win32,60,-0.0375,-0.278472222,1,0,0,1.27151,scale,,,,,,0.2468,0.2,0.302267034,0.244948974,stimuli/lakes/406083_left.png,stimuli/lakes/406083_right.png,,,,0,102,102,83,1,,,,,
,,,,,,$5df24f33323fe9000f9e61dc,2020-07-20_14h37.10.036,fisher_task,2020.1.3,Win32,60,0.136111111,-0.359027778,1,0,0,1.12565,scale,,,,,,0.174513954,0.141421356,0.349027907,0.282842712,stimuli/lakes/203024_left.png,stimuli/lakes/203024_right.png,,,,0,103,103,24,1,,,,,
,,,,,,$5df24f33323fe9000f9e61dc,2020-07-20_14h37.10.036,fisher_task,2020.1.3,Win32,60,0.136805556,-0.359027778,1,0,0,0.7017,scale,,,,,,0.2468,0.2,0.302267034,0.244948974,stimuli/lakes/404053_left.png,stimuli/lakes/404053_right.png,,,,0,104,104,53,1,,,,,
,,,,,,$5df24f33323fe9000f9e61dc,2020-07-20_14h37.10.036,fisher_task,2020.1.3,Win32,60,-0.133333333,-0.354166667,1,0,0,1.174245,scale,,,,,,0.326485712,0.264575131,0.21373507,0.173205081,stimuli/lakes/7070104_left.png,stimuli/lakes/7070104_right.png,,,,0,105,105,104,1,,,,,
,,,,,,$5df24f33323fe9000f9e61dc,2020-07-20_14h37.10.036,fisher_task,2020.1.3,Win32,60,-0.095138889,-0.309027778,1,0,0,1.486825,scale,,,,,,0.302267034,0.244948974,0.2468,0.2,stimuli/lakes/605065_left.png,stimuli/lakes/605065_right.png,,,,0,106,106,65,1,,,,,
,,,,,,$5df24f33323fe9000f9e61dc,2020-07-20_14h37.10.036,fisher_task,2020.1.3,Win32,60,0.151388889,-0.369444444,1,0,0,0.90314,scale,,,,,,0.2468,0.2,0.302267034,0.244948974,stimuli/lakes/403026_left.png,stimuli/lakes/403026_right.png,,,,0,107,107,26,1,,,,,
,,,,,,$5df24f33323fe9000f9e61dc,2020-07-20_14h37.10.036,fisher_task,2020.1.3,Win32,60,-0.140972222,-0.420138889,1,0,0,0.96575,scale,,,,,,0.326485712,0.264575131,0.21373507,0.173205081,stimuli/lakes/7080117_left.png,stimuli/lakes/7080117_right.png,,,,0,108,108,117,1,,,,,
,,,,,,$5df24f33323fe9000f9e61dc,2020-07-20_14h37.10.036,fisher_task,2020.1.3,Win32,60,0.136805556,-0.332638889,1,0,0,1.75097,scale,,,,,,0.174513954,0.141421356,0.349027907,0.282842712,stimuli/lakes/205060_left.png,stimuli/lakes/205060_right.png,,,,0,109,109,60,1,,,,,
,,,,,,$5df24f33323fe9000f9e61dc,2020-07-20_14h37.10.036,fisher_task,2020.1.3,Win32,60,0.010416667,-0.240277778,1,0,0,2.42495,scale,,,,,,0.302267034,0.244948974,0.2468,0.2,stimuli/lakes/605066_left.png,stimuli/lakes/605066_right.png,,,space,0,110,110,66,1,1.66416,,,,
,,,,,,$5df24f33323fe9000f9e61dc,2020-07-20_14h37.10.036,fisher_task,2020.1.3,Win32,60,-0.097916667,-0.284027778,1,0,0,1.389655,scale,,,,,,0.21373507,0.173205081,0.326485712,0.264575131,stimuli/lakes/307091_left.png,stimuli/lakes/307091_right.png,,,,0,111,111,91,1,,,,,
,,,,,,$5df24f33323fe9000f9e61dc,2020-07-20_14h37.10.036,fisher_task,2020.1.3,Win32,60,-0.102083333,-0.290972222,1,0,0,0.85457,scale,,,,,,0.302267034,0.244948974,0.2468,0.2,stimuli/lakes/607094_left.png,stimuli/lakes/607094_right.png,,,,0,112,112,94,1,,,,,
,,,,,,$5df24f33323fe9000f9e61dc,2020-07-20_14h37.10.036,fisher_task,2020.1.3,Win32,60,0.061111111,-0.244444444,1,0,0,1.93866,scale,,,,,,0.349027907,0.282842712,0.174513954,0.141421356,stimuli/lakes/803030_left.png,stimuli/lakes/803030_right.png,,,,0,113,113,30,1,,,,,
,,,,,,$5df24f33323fe9000f9e61dc,2020-07-20_14h37.10.036,fisher_task,2020.1.3,Win32,60,-0.13125,-0.380555556,1,0,0,1.2228,scale,,,,,,0.349027907,0.282842712,0.174513954,0.141421356,stimuli/lakes/8070105_left.png,stimuli/lakes/8070105_right.png,,,,0,114,114,105,1,,,,,
,,,,,,$5df24f33323fe9000f9e61dc,2020-07-20_14h37.10.036,fisher_task,2020.1.3,Win32,60,0.188888889,-0.429166667,1,0,0,1.730135,scale,,,,,,0.174513954,0.141421356,0.349027907,0.282842712,stimuli/lakes/202011_left.png,stimuli/lakes/202011_right.png,,,,0,115,115,11,1,,,,,
,,,,,,$5df24f33323fe9000f9e61dc,2020-07-20_14h37.10.036,fisher_task,2020.1.3,Win32,60,0.188888889,-0.429166667,1,0,0,0.722535,scale,,,,,,0.21373507,0.173205081,0.326485712,0.264575131,stimuli/lakes/30101_left.png,stimuli/lakes/30101_right.png,,,,0,116,116,1,1,,,,,
,,,,,,$5df24f33323fe9000f9e61dc,2020-07-20_14h37.10.036,fisher_task,2020.1.3,Win32,60,0.052083333,-0.2375,1,0,0,1.74404,scale,,,,,,0.302267034,0.244948974,0.2468,0.2,stimuli/lakes/604055_left.png,stimuli/lakes/604055_right.png,,,,0,117,117,55,1,,,,,
,,,,,,$5df24f33323fe9000f9e61dc,2020-07-20_14h37.10.036,fisher_task,2020.1.3,Win32,60,0.120833333,-0.30625,1,0,0,1.00055,scale,,,,,,0.1234,0.1,0.3702,0.3,stimuli/lakes/103032_left.png,stimuli/lakes/103032_right.png,,,,0,118,118,32,1,,,,,
,,,,,,$5df24f33323fe9000f9e61dc,2020-07-20_14h37.10.036,fisher_task,2020.1.3,Win32,60,0.166666667,-0.386111111,1,0,0,0.81978,scale,,,,,,0.2468,0.2,0.302267034,0.244948974,stimuli/lakes/40102_left.png,stimuli/lakes/40102_right.png,,,,0,119,119,2,1,,,,,
,,,,,,$5df24f33323fe9000f9e61dc,2020-07-20_14h37.10.036,fisher_task,2020.1.3,Win32,60,-0.029861111,-0.234027778,1,0,0,1.98032,scale,,,,,,0.21373507,0.173205081,0.326485712,0.264575131,stimuli/lakes/3080109_left.png,stimuli/lakes/3080109_right.png,,,,0,120,120,109,1,,,,,
,,,,,,$5df24f33323fe9000f9e61dc,2020-07-20_14h37.10.036,fisher_task,2020.1.3,Win32,60,-0.128472222,-0.365277778,1,0,0,1.01439,scale,,,,,,0.302267034,0.244948974,0.2468,0.2,stimuli/lakes/6090127_left.png,stimuli/lakes/6090127_right.png,,,,0,121,121,127,1,,,,,
,,,,,,$5df24f33323fe9000f9e61dc,2020-07-20_14h37.10.036,fisher_task,2020.1.3,Win32,60,-0.122222222,-0.326388889,1,0,0,1.132495,scale,,,,,,0.349027907,0.282842712,0.174513954,0.141421356,stimuli/lakes/806078_left.png,stimuli/lakes/806078_right.png,,,,0,122,122,78,1,,,,,
,,,,,,$5df24f33323fe9000f9e61dc,2020-07-20_14h37.10.036,fisher_task,2020.1.3,Win32,60,0.031944444,-0.226388889,1,0,0,3.203295,scale,,,,,,0.275930788,0.223606798,0.275930788,0.223606798,stimuli/lakes/504054_left.png,stimuli/lakes/504054_right.png,,,,0,123,123,54,1,,,,,
,,,,,,$5df24f33323fe9000f9e61dc,2020-07-20_14h37.10.036,fisher_task,2020.1.3,Win32,60,0.132638889,-0.317361111,1,0,0,1.20895,scale,,,,,,0.21373507,0.173205081,0.326485712,0.264575131,stimuli/lakes/303034_left.png,stimuli/lakes/303034_right.png,,,,0,124,124,34,1,,,,,
,,,,,,$5df24f33323fe9000f9e61dc,2020-07-20_14h37.10.036,fisher_task,2020.1.3,Win32,60,-0.122916667,-0.386805556,1,0,0,0.861595,scale,,,,,,0.326485712,0.264575131,0.21373507,0.173205081,stimuli/lakes/707095_left.png,stimuli/lakes/707095_right.png,,,,0,125,125,95,1,,,,,
,,,,,,$5df24f33323fe9000f9e61dc,2020-07-20_14h37.10.036,fisher_task,2020.1.3,Win32,60,-0.094444444,-0.303472222,1,0,0,1.79964,scale,,,,,,0.275930788,0.223606798,0.275930788,0.223606798,stimuli/lakes/506084_left.png,stimuli/lakes/506084_right.png,,,,0,126,126,84,1,,,,,
,,,,,,$5df24f33323fe9000f9e61dc,2020-07-20_14h37.10.036,fisher_task,2020.1.3,Win32,60,0.065277778,-0.263194444,1,0,0,1.334105,scale,,,,,,0.349027907,0.282842712,0.174513954,0.141421356,stimuli/lakes/803039_left.png,stimuli/lakes/803039_right.png,,,,0,127,127,39,1,,,,,
,,,,,,$5df24f33323fe9000f9e61dc,2020-07-20_14h37.10.036,fisher_task,2020.1.3,Win32,60,-0.114583333,-0.375,1,0,0,1.160315,scale,,,,,,0.349027907,0.282842712,0.174513954,0.141421356,stimuli/lakes/807096_left.png,stimuli/lakes/807096_right.png,,,,0,128,128,96,1,,,,,
,,,,,,$5df24f33323fe9000f9e61dc,2020-07-20_14h37.10.036,fisher_task,2020.1.3,Win32,60,0.09375,-0.253472222,1,0,0,1.87607,scale,,,,,,0.326485712,0.264575131,0.21373507,0.173205081,stimuli/lakes/70107_left.png,stimuli/lakes/70107_right.png,,,,0,129,129,7,1,,,,,
,,,,,,$5df24f33323fe9000f9e61dc,2020-07-20_14h37.10.036,fisher_task,2020.1.3,Win32,60,,,,,,,,,,,,,,,,,,,,,,,,,,,,space,11.609475,space,48.458795
