keySpace.keys,instructions.thisRepN,instructions.thisTrialN,instructions.thisN,instructions.thisIndex,instructions.ran,participant,date,expName,psychopyVersion,OS,frameRate,mouse.x,mouse.y,mouse.leftButton,mouse.midButton,mouse.rightButton,mouse.time,mouse.clicked_name,training.thisRepN,training.thisTrialN,training.thisN,training.thisIndex,training.ran,widthBasketLeft,heightBasketLeft,widthBasketRight,heightBasketRight,leftLake,rightLake,space2.keys,space2.rt,space1.keys,trials.thisRepN,trials.thisTrialN,trials.thisN,trials.thisIndex,trials.ran,space1.rt,finalSpace1.keys,finalSpace1.rt,finalSpace2.keys,finalSpace2.rt
,0,0,0,0,1,$5ec671f95b792005a7a009af,2020-07-20_14h37.14.653,fisher_task,2020.1.3,Win32,60,,,,,,,,,,,,,,,,,,,,,,,,,,,,,,,
,,,,,,$5ec671f95b792005a7a009af,2020-07-20_14h37.14.653,fisher_task,2020.1.3,Win32,60,0.162037053,-0.376851921,1,0,0,6.07724,scale,0,0,0,0,1,0.275930788,0.223606798,0.275930788,0.223606798,stimuli/training/20_left.png,stimuli/training/20_right.png,,,,,,,,,,,,,
,,,,,,$5ec671f95b792005a7a009af,2020-07-20_14h37.14.653,fisher_task,2020.1.3,Win32,60,-0.175925915,-0.392592606,1,0,0,3.462445,scale,0,1,1,1,1,0.275930788,0.223606798,0.275930788,0.223606798,stimuli/training/80_left.png,stimuli/training/80_right.png,,,,,,,,,,,,,
,,,,,,$5ec671f95b792005a7a009af,2020-07-20_14h37.14.653,fisher_task,2020.1.3,Win32,60,0.1351852,-0.33240742,1,0,0,6.643655,scale,0,2,2,2,1,0.174513954,0.141421356,0.349027907,0.282842712,stimuli/training/50_left.png,stimuli/training/50_right.png,,,,,,,,,,,,,
,,,,,,$5ec671f95b792005a7a009af,2020-07-20_14h37.14.653,fisher_task,2020.1.3,Win32,60,-0.149074063,-0.342592605,1,0,0,2.02995,scale,0,3,3,3,1,0.349027907,0.282842712,0.174513954,0.141421356,stimuli/training/50_left.png,stimuli/training/50_right.png,,,,,,,,,,,,,
,,,,,,$5ec671f95b792005a7a009af,2020-07-20_14h37.14.653,fisher_task,2020.1.3,Win32,60,-0.002777708,-0.264814826,1,0,0,3.16473,scale,0,4,4,4,1,0.275930788,0.223606798,0.275930788,0.223606798,stimuli/training/50_left.png,stimuli/training/50_right.png,,,,,,,,,,,,,
,,,,,,$5ec671f95b792005a7a009af,2020-07-20_14h37.14.653,fisher_task,2020.1.3,Win32,60,0.161111127,-0.432407478,1,0,0,2.314955,scale,0,5,5,5,1,0.174513954,0.141421356,0.349027907,0.282842712,stimuli/training/20_left.png,stimuli/training/20_right.png,,,,,,,,,,,,,
,,,,,,$5ec671f95b792005a7a009af,2020-07-20_14h37.14.653,fisher_task,2020.1.3,Win32,60,-0.176851841,-0.407407421,1,0,0,4.945575,scale,0,6,6,6,1,0.349027907,0.282842712,0.174513954,0.141421356,stimuli/training/80_left.png,stimuli/training/80_right.png,,,,,,,,,,,,,
,,,,,,$5ec671f95b792005a7a009af,2020-07-20_14h37.14.653,fisher_task,2020.1.3,Win32,60,0.159259275,-0.369444457,1,0,0,3.979265,scale,0,7,7,7,1,0.1234,0.1,0.3702,0.3,stimuli/training/30_left.png,stimuli/training/30_right.png,,,,,,,,,,,,,
,,,,,,$5ec671f95b792005a7a009af,2020-07-20_14h37.14.653,fisher_task,2020.1.3,Win32,60,-0.175925915,-0.420370384,1,0,0,2.797035,scale,0,8,8,8,1,0.3702,0.3,0.1234,0.1,stimuli/training/70_left.png,stimuli/training/70_right.png,,,,,,,,,,,,,
,,,,,,$5ec671f95b792005a7a009af,2020-07-20_14h37.14.653,fisher_task,2020.1.3,Win32,60,-0.174074007,-0.436111125,1,0,0,2.896695,scale,0,9,9,9,1,0.326485712,0.264575131,0.21373507,0.173205081,stimuli/training/90_left.png,stimuli/training/90_right.png,,,,,,,,,,,,,
,,,,,,$5ec671f95b792005a7a009af,2020-07-20_14h37.14.653,fisher_task,2020.1.3,Win32,60,0.138888904,-0.437037108,1,0,0,2.04785,scale,0,10,10,10,1,0.21373507,0.173205081,0.326485712,0.264575131,stimuli/training/10_left.png,stimuli/training/10_right.png,,,,,,,,,,,,,
,,,,,,$5ec671f95b792005a7a009af,2020-07-20_14h37.14.653,fisher_task,2020.1.3,Win32,60,0.150000015,-0.39166668,1,0,0,3.095825,scale,,,,,,0.21373507,0.173205081,0.326485712,0.264575131,stimuli/lakes/304052_left.png,stimuli/lakes/304052_right.png,space,5.330055,,0,0,0,52,1,,,,,
,,,,,,$5ec671f95b792005a7a009af,2020-07-20_14h37.14.653,fisher_task,2020.1.3,Win32,60,0.077777792,-0.278703715,1,0,0,7.62564,scale,,,,,,0.326485712,0.264575131,0.21373507,0.173205081,stimuli/lakes/702019_left.png,stimuli/lakes/702019_right.png,,,,0,1,1,19,1,,,,,
,,,,,,$5ec671f95b792005a7a009af,2020-07-20_14h37.14.653,fisher_task,2020.1.3,Win32,60,0.162037053,-0.427777848,1,0,0,2.53046,scale,,,,,,0.2468,0.2,0.302267034,0.244948974,stimuli/lakes/402015_left.png,stimuli/lakes/402015_right.png,,,,0,2,2,15,1,,,,,
,,,,,,$5ec671f95b792005a7a009af,2020-07-20_14h37.14.653,fisher_task,2020.1.3,Win32,60,-0.128703692,-0.304629642,1,0,0,3.26433,scale,,,,,,0.275930788,0.223606798,0.275930788,0.223606798,stimuli/lakes/5070102_left.png,stimuli/lakes/5070102_right.png,,,,0,3,3,102,1,,,,,
,,,,,,$5ec671f95b792005a7a009af,2020-07-20_14h37.14.653,fisher_task,2020.1.3,Win32,60,-0.177777767,-0.430555569,1,0,0,2.06255,scale,,,,,,0.326485712,0.264575131,0.21373507,0.173205081,stimuli/lakes/7090128_left.png,stimuli/lakes/7090128_right.png,,,,0,4,4,128,1,,,,,
,,,,,,$5ec671f95b792005a7a009af,2020-07-20_14h37.14.653,fisher_task,2020.1.3,Win32,60,-0.180555545,-0.437037108,1,0,0,2.280875,scale,,,,,,0.302267034,0.244948974,0.2468,0.2,stimuli/lakes/607094_left.png,stimuli/lakes/607094_right.png,,,,0,5,5,94,1,,,,,
,,,,,,$5ec671f95b792005a7a009af,2020-07-20_14h37.14.653,fisher_task,2020.1.3,Win32,60,0.140740756,-0.312962975,1,0,0,5.22902,scale,,,,,,0.1234,0.1,0.3702,0.3,stimuli/lakes/106080_left.png,stimuli/lakes/106080_right.png,,,,0,6,6,80,1,,,,,
,,,,,,$5ec671f95b792005a7a009af,2020-07-20_14h37.14.653,fisher_task,2020.1.3,Win32,60,-0.163888878,-0.432407478,1,0,0,4.210975,scale,,,,,,0.326485712,0.264575131,0.21373507,0.173205081,stimuli/lakes/7080117_left.png,stimuli/lakes/7080117_right.png,,,,0,7,7,117,1,,,,,
,,,,,,$5ec671f95b792005a7a009af,2020-07-20_14h37.14.653,fisher_task,2020.1.3,Win32,60,-0.114814803,-0.285185197,1,0,0,6.393045,scale,,,,,,0.2468,0.2,0.302267034,0.244948974,stimuli/lakes/4090124_left.png,stimuli/lakes/4090124_right.png,,,,0,8,8,124,1,,,,,
,,,,,,$5ec671f95b792005a7a009af,2020-07-20_14h37.14.653,fisher_task,2020.1.3,Win32,60,0.106481496,-0.289814827,1,0,0,3.21267,scale,,,,,,0.326485712,0.264575131,0.21373507,0.173205081,stimuli/lakes/70108_left.png,stimuli/lakes/70108_right.png,,,,0,9,9,8,1,,,,,
,,,,,,$5ec671f95b792005a7a009af,2020-07-20_14h37.14.653,fisher_task,2020.1.3,Win32,60,0.109259274,-0.312037106,1,0,0,5.127295,scale,,,,,,0.2468,0.2,0.302267034,0.244948974,stimuli/lakes/405063_left.png,stimuli/lakes/405063_right.png,,,,0,10,10,63,1,,,,,
,,,,,,$5ec671f95b792005a7a009af,2020-07-20_14h37.14.653,fisher_task,2020.1.3,Win32,60,0.165740756,-0.401851865,1,0,0,3.345905,scale,,,,,,0.275930788,0.223606798,0.275930788,0.223606798,stimuli/lakes/502016_left.png,stimuli/lakes/502016_right.png,,,,0,11,11,16,1,,,,,
,,,,,,$5ec671f95b792005a7a009af,2020-07-20_14h37.14.653,fisher_task,2020.1.3,Win32,60,0.071296311,-0.271296308,1,0,0,6.126785,scale,,,,,,0.21373507,0.173205081,0.326485712,0.264575131,stimuli/lakes/307091_left.png,stimuli/lakes/307091_right.png,,,,0,12,12,91,1,,,,,
,,,,,,$5ec671f95b792005a7a009af,2020-07-20_14h37.14.653,fisher_task,2020.1.3,Win32,60,-0.108333322,-0.291666678,1,0,0,4.64521,scale,,,,,,0.1234,0.1,0.3702,0.3,stimuli/lakes/1080107_left.png,stimuli/lakes/1080107_right.png,,,,0,13,13,107,1,,,,,
,,,,,,$5ec671f95b792005a7a009af,2020-07-20_14h37.14.653,fisher_task,2020.1.3,Win32,60,-0.057407395,-0.264814826,1,0,0,8.04218,scale,,,,,,0.302267034,0.244948974,0.2468,0.2,stimuli/lakes/60105_left.png,stimuli/lakes/60105_right.png,,,,0,14,14,5,1,,,,,
,,,,,,$5ec671f95b792005a7a009af,2020-07-20_14h37.14.653,fisher_task,2020.1.3,Win32,60,0.02129631,-0.253703715,1,0,0,2.030955,scale,,,,,,0.174513954,0.141421356,0.349027907,0.282842712,stimuli/lakes/207090_left.png,stimuli/lakes/207090_right.png,,,,0,15,15,90,1,,,,,
,,,,,,$5ec671f95b792005a7a009af,2020-07-20_14h37.14.653,fisher_task,2020.1.3,Win32,60,-0.04259258,-0.255555567,1,0,0,2.81448,scale,,,,,,0.302267034,0.244948974,0.2468,0.2,stimuli/lakes/60106_left.png,stimuli/lakes/60106_right.png,,,,0,16,16,6,1,,,,,
,,,,,,$5ec671f95b792005a7a009af,2020-07-20_14h37.14.653,fisher_task,2020.1.3,Win32,60,-0.139814804,-0.326851864,1,0,0,2.96254,scale,,,,,,0.3702,0.3,0.1234,0.1,stimuli/lakes/906079_left.png,stimuli/lakes/906079_right.png,,,,0,17,17,79,1,,,,,
,,,,,,$5ec671f95b792005a7a009af,2020-07-20_14h37.14.653,fisher_task,2020.1.3,Win32,60,-0.160185118,-0.369444457,1,0,0,3.945555,scale,,,,,,0.275930788,0.223606798,0.275930788,0.223606798,stimuli/lakes/5080113_left.png,stimuli/lakes/5080113_right.png,,,,0,18,18,113,1,,,,,
,,,,,,$5ec671f95b792005a7a009af,2020-07-20_14h37.14.653,fisher_task,2020.1.3,Win32,60,0.131481497,-0.350000013,1,0,0,2.363955,scale,,,,,,0.174513954,0.141421356,0.349027907,0.282842712,stimuli/lakes/204042_left.png,stimuli/lakes/204042_right.png,,,,0,19,19,42,1,,,,,
,,,,,,$5ec671f95b792005a7a009af,2020-07-20_14h37.14.653,fisher_task,2020.1.3,Win32,60,-0.057407395,-0.271296308,1,0,0,2.096895,scale,,,,,,0.326485712,0.264575131,0.21373507,0.173205081,stimuli/lakes/703038_left.png,stimuli/lakes/703038_right.png,,,,0,20,20,38,1,,,,,
,,,,,,$5ec671f95b792005a7a009af,2020-07-20_14h37.14.653,fisher_task,2020.1.3,Win32,60,0.125000015,-0.336111124,1,0,0,3.878865,scale,,,,,,0.1234,0.1,0.3702,0.3,stimuli/lakes/107089_left.png,stimuli/lakes/107089_right.png,,,,0,21,21,89,1,,,,,
,,,,,,$5ec671f95b792005a7a009af,2020-07-20_14h37.14.653,fisher_task,2020.1.3,Win32,60,0.056481496,-0.27314816,1,0,0,7.677245,scale,,,,,,0.174513954,0.141421356,0.349027907,0.282842712,stimuli/lakes/207099_left.png,stimuli/lakes/207099_right.png,,,space,0,22,22,99,1,4.090975,,,,
,,,,,,$5ec671f95b792005a7a009af,2020-07-20_14h37.14.653,fisher_task,2020.1.3,Win32,60,0.067592607,-0.284259327,1,0,0,2.48058,scale,,,,,,0.2468,0.2,0.302267034,0.244948974,stimuli/lakes/405064_left.png,stimuli/lakes/405064_right.png,,,,0,23,23,64,1,,,,,
,,,,,,$5ec671f95b792005a7a009af,2020-07-20_14h37.14.653,fisher_task,2020.1.3,Win32,60,-0.181481471,-0.432407478,1,0,0,3.379205,scale,,,,,,0.302267034,0.244948974,0.2468,0.2,stimuli/lakes/6090127_left.png,stimuli/lakes/6090127_right.png,,,,0,24,24,127,1,,,,,
,,,,,,$5ec671f95b792005a7a009af,2020-07-20_14h37.14.653,fisher_task,2020.1.3,Win32,60,-0.153703693,-0.35740742,1,0,0,3.59715,scale,,,,,,0.2468,0.2,0.302267034,0.244948974,stimuli/lakes/406083_left.png,stimuli/lakes/406083_right.png,,,,0,25,25,83,1,,,,,
,,,,,,$5ec671f95b792005a7a009af,2020-07-20_14h37.14.653,fisher_task,2020.1.3,Win32,60,-0.005555542,-0.257407419,1,0,0,3.97833,scale,,,,,,0.349027907,0.282842712,0.174513954,0.141421356,stimuli/lakes/80109_left.png,stimuli/lakes/80109_right.png,,,,0,26,26,9,1,,,,,
,,,,,,$5ec671f95b792005a7a009af,2020-07-20_14h37.14.653,fisher_task,2020.1.3,Win32,60,0.01203705,-0.261111179,1,0,0,2.131275,scale,,,,,,0.1234,0.1,0.3702,0.3,stimuli/lakes/107098_left.png,stimuli/lakes/107098_right.png,,,,0,27,27,98,1,,,,,
,,,,,,$5ec671f95b792005a7a009af,2020-07-20_14h37.14.653,fisher_task,2020.1.3,Win32,60,0.162037053,-0.371296309,1,0,0,2.479365,scale,,,,,,0.275930788,0.223606798,0.275930788,0.223606798,stimuli/lakes/504054_left.png,stimuli/lakes/504054_right.png,,,,0,28,28,54,1,,,,,
,,,,,,$5ec671f95b792005a7a009af,2020-07-20_14h37.14.653,fisher_task,2020.1.3,Win32,60,-0.077777766,-0.280555567,1,0,0,4.528945,scale,,,,,,0.2468,0.2,0.302267034,0.244948974,stimuli/lakes/4080111_left.png,stimuli/lakes/4080111_right.png,,,,0,29,29,111,1,,,,,
,,,,,,$5ec671f95b792005a7a009af,2020-07-20_14h37.14.653,fisher_task,2020.1.3,Win32,60,0.057407478,-0.270370438,1,0,0,3.446165,scale,,,,,,0.21373507,0.173205081,0.326485712,0.264575131,stimuli/lakes/3070100_left.png,stimuli/lakes/3070100_right.png,,,,0,30,30,100,1,,,,,
,,,,,,$5ec671f95b792005a7a009af,2020-07-20_14h37.14.653,fisher_task,2020.1.3,Win32,60,-0.153703693,-0.387962976,1,0,0,4.92829,scale,,,,,,0.3702,0.3,0.1234,0.1,stimuli/lakes/905070_left.png,stimuli/lakes/905070_right.png,,,,0,31,31,70,1,,,,,
,,,,,,$5ec671f95b792005a7a009af,2020-07-20_14h37.14.653,fisher_task,2020.1.3,Win32,60,-0.160185118,-0.390740811,1,0,0,1.86393,scale,,,,,,0.302267034,0.244948974,0.2468,0.2,stimuli/lakes/606085_left.png,stimuli/lakes/606085_right.png,,,,0,32,32,85,1,,,,,
,,,,,,$5ec671f95b792005a7a009af,2020-07-20_14h37.14.653,fisher_task,2020.1.3,Win32,60,-0.179629619,-0.435185199,1,0,0,1.481185,scale,,,,,,0.302267034,0.244948974,0.2468,0.2,stimuli/lakes/6090126_left.png,stimuli/lakes/6090126_right.png,,,,0,33,33,126,1,,,,,
,,,,,,$5ec671f95b792005a7a009af,2020-07-20_14h37.14.653,fisher_task,2020.1.3,Win32,60,-0.124999989,-0.300925938,1,0,0,4.845565,scale,,,,,,0.326485712,0.264575131,0.21373507,0.173205081,stimuli/lakes/70107_left.png,stimuli/lakes/70107_right.png,,,,0,34,34,7,1,,,,,
,,,,,,$5ec671f95b792005a7a009af,2020-07-20_14h37.14.653,fisher_task,2020.1.3,Win32,60,-0.145370359,-0.369444457,1,0,0,3.095645,scale,,,,,,0.3702,0.3,0.1234,0.1,stimuli/lakes/906088_left.png,stimuli/lakes/906088_right.png,,,,0,35,35,88,1,,,,,
,,,,,,$5ec671f95b792005a7a009af,2020-07-20_14h37.14.653,fisher_task,2020.1.3,Win32,60,-0.162037026,-0.399074087,1,0,0,1.780155,scale,,,,,,0.302267034,0.244948974,0.2468,0.2,stimuli/lakes/6080114_left.png,stimuli/lakes/6080114_right.png,,,,0,36,36,114,1,,,,,
,,,,,,$5ec671f95b792005a7a009af,2020-07-20_14h37.14.653,fisher_task,2020.1.3,Win32,60,0.141666682,-0.325925995,1,0,0,3.862305,scale,,,,,,0.275930788,0.223606798,0.275930788,0.223606798,stimuli/lakes/50104_left.png,stimuli/lakes/50104_right.png,,,,0,37,37,4,1,,,,,
,,,,,,$5ec671f95b792005a7a009af,2020-07-20_14h37.14.653,fisher_task,2020.1.3,Win32,60,-0.074999988,-0.2638889,1,0,0,2.381225,scale,,,,,,0.275930788,0.223606798,0.275930788,0.223606798,stimuli/lakes/507093_left.png,stimuli/lakes/507093_right.png,,,,0,38,38,93,1,,,,,
,,,,,,$5ec671f95b792005a7a009af,2020-07-20_14h37.14.653,fisher_task,2020.1.3,Win32,60,0.089814829,-0.270370438,1,0,0,2.597245,scale,,,,,,0.21373507,0.173205081,0.326485712,0.264575131,stimuli/lakes/302012_left.png,stimuli/lakes/302012_right.png,,,,0,39,39,12,1,,,,,
,,,,,,$5ec671f95b792005a7a009af,2020-07-20_14h37.14.653,fisher_task,2020.1.3,Win32,60,0.129629645,-0.339814884,1,0,0,2.997395,scale,,,,,,0.1234,0.1,0.3702,0.3,stimuli/lakes/103032_left.png,stimuli/lakes/103032_right.png,,,,0,40,40,32,1,,,,,
,,,,,,$5ec671f95b792005a7a009af,2020-07-20_14h37.14.653,fisher_task,2020.1.3,Win32,60,-0.167592582,-0.41666668,1,0,0,1.280835,scale,,,,,,0.302267034,0.244948974,0.2468,0.2,stimuli/lakes/6080115_left.png,stimuli/lakes/6080115_right.png,,,,0,41,41,115,1,,,,,
,,,,,,$5ec671f95b792005a7a009af,2020-07-20_14h37.14.653,fisher_task,2020.1.3,Win32,60,-0.1111111,-0.294444456,1,0,0,2.581025,scale,,,,,,0.349027907,0.282842712,0.174513954,0.141421356,stimuli/lakes/804048_left.png,stimuli/lakes/804048_right.png,,,,0,42,42,48,1,,,,,
,,,,,,$5ec671f95b792005a7a009af,2020-07-20_14h37.14.653,fisher_task,2020.1.3,Win32,60,-0.049999987,-0.267592604,1,0,0,5.0617,scale,,,,,,0.326485712,0.264575131,0.21373507,0.173205081,stimuli/lakes/704056_left.png,stimuli/lakes/704056_right.png,,,,0,43,43,56,1,,,,,
,,,,,,$5ec671f95b792005a7a009af,2020-07-20_14h37.14.653,fisher_task,2020.1.3,Win32,60,-0.166666656,-0.390740811,1,0,0,2.04724,scale,,,,,,0.326485712,0.264575131,0.21373507,0.173205081,stimuli/lakes/707095_left.png,stimuli/lakes/707095_right.png,,,space,0,44,44,95,1,1.7808,,,,
,,,,,,$5ec671f95b792005a7a009af,2020-07-20_14h37.14.653,fisher_task,2020.1.3,Win32,60,-0.114814803,-0.299074086,1,0,0,1.71417,scale,,,,,,0.3702,0.3,0.1234,0.1,stimuli/lakes/903040_left.png,stimuli/lakes/903040_right.png,,,,0,45,45,40,1,,,,,
,,,,,,$5ec671f95b792005a7a009af,2020-07-20_14h37.14.653,fisher_task,2020.1.3,Win32,60,-0.159259248,-0.430555569,1,0,0,1.597665,scale,,,,,,0.326485712,0.264575131,0.21373507,0.173205081,stimuli/lakes/7090129_left.png,stimuli/lakes/7090129_right.png,,,,0,46,46,129,1,,,,,
,,,,,,$5ec671f95b792005a7a009af,2020-07-20_14h37.14.653,fisher_task,2020.1.3,Win32,60,-0.124074063,-0.319444457,1,0,0,1.947125,scale,,,,,,0.302267034,0.244948974,0.2468,0.2,stimuli/lakes/606076_left.png,stimuli/lakes/606076_right.png,,,,0,47,47,76,1,,,,,
,,,,,,$5ec671f95b792005a7a009af,2020-07-20_14h37.14.653,fisher_task,2020.1.3,Win32,60,0.159259275,-0.353703773,1,0,0,1.465835,scale,,,,,,0.174513954,0.141421356,0.349027907,0.282842712,stimuli/lakes/203024_left.png,stimuli/lakes/203024_right.png,,,,0,48,48,24,1,,,,,
,,,,,,$5ec671f95b792005a7a009af,2020-07-20_14h37.14.653,fisher_task,2020.1.3,Win32,60,-0.063888877,-0.285185197,1,0,0,1.580535,scale,,,,,,0.3702,0.3,0.1234,0.1,stimuli/lakes/904049_left.png,stimuli/lakes/904049_right.png,,,,0,49,49,49,1,,,,,
,,,,,,$5ec671f95b792005a7a009af,2020-07-20_14h37.14.653,fisher_task,2020.1.3,Win32,60,0.005555569,-0.252777789,1,0,0,5.177125,scale,,,,,,0.174513954,0.141421356,0.349027907,0.282842712,stimuli/lakes/2090120_left.png,stimuli/lakes/2090120_right.png,,,,0,50,50,120,1,,,,,
,,,,,,$5ec671f95b792005a7a009af,2020-07-20_14h37.14.653,fisher_task,2020.1.3,Win32,60,0.146296312,-0.373148161,1,0,0,1.697765,scale,,,,,,0.1234,0.1,0.3702,0.3,stimuli/lakes/103023_left.png,stimuli/lakes/103023_right.png,,,,0,51,51,23,1,,,,,
,,,,,,$5ec671f95b792005a7a009af,2020-07-20_14h37.14.653,fisher_task,2020.1.3,Win32,60,-0.081481413,-0.286111123,1,0,0,2.14619,scale,,,,,,0.3702,0.3,0.1234,0.1,stimuli/lakes/904058_left.png,stimuli/lakes/904058_right.png,,,,0,52,52,58,1,,,,,
,,,,,,$5ec671f95b792005a7a009af,2020-07-20_14h37.14.653,fisher_task,2020.1.3,Win32,60,-0.027777765,-0.272222234,1,0,0,2.86384,scale,,,,,,0.2468,0.2,0.302267034,0.244948974,stimuli/lakes/4080112_left.png,stimuli/lakes/4080112_right.png,,,,0,53,53,112,1,,,,,
,,,,,,$5ec671f95b792005a7a009af,2020-07-20_14h37.14.653,fisher_task,2020.1.3,Win32,60,0.038888959,-0.259259271,1,0,0,2.59795,scale,,,,,,0.302267034,0.244948974,0.2468,0.2,stimuli/lakes/602018_left.png,stimuli/lakes/602018_right.png,,,,0,54,54,18,1,,,,,
,,,,,,$5ec671f95b792005a7a009af,2020-07-20_14h37.14.653,fisher_task,2020.1.3,Win32,60,-0.044444375,-0.25185192,1,0,0,5.127685,scale,,,,,,0.174513954,0.141421356,0.349027907,0.282842712,stimuli/lakes/2080108_left.png,stimuli/lakes/2080108_right.png,,,,0,55,55,108,1,,,,,
,,,,,,$5ec671f95b792005a7a009af,2020-07-20_14h37.14.653,fisher_task,2020.1.3,Win32,60,0.088888903,-0.286111123,1,0,0,3.24594,scale,,,,,,0.2468,0.2,0.302267034,0.244948974,stimuli/lakes/404053_left.png,stimuli/lakes/404053_right.png,,,,0,56,56,53,1,,,,,
,,,,,,$5ec671f95b792005a7a009af,2020-07-20_14h37.14.653,fisher_task,2020.1.3,Win32,60,0.158333349,-0.407407421,1,0,0,4.461695,scale,,,,,,0.2468,0.2,0.302267034,0.244948974,stimuli/lakes/402014_left.png,stimuli/lakes/402014_right.png,,,,0,57,57,14,1,,,,,
,,,,,,$5ec671f95b792005a7a009af,2020-07-20_14h37.14.653,fisher_task,2020.1.3,Win32,60,-0.040740728,-0.250925937,1,0,0,1.86324,scale,,,,,,0.326485712,0.264575131,0.21373507,0.173205081,stimuli/lakes/703029_left.png,stimuli/lakes/703029_right.png,,,,0,58,58,29,1,,,,,
,,,,,,$5ec671f95b792005a7a009af,2020-07-20_14h37.14.653,fisher_task,2020.1.3,Win32,60,0.073148162,-0.271296308,1,0,0,5.86173,scale,,,,,,0.275930788,0.223606798,0.275930788,0.223606798,stimuli/lakes/504045_left.png,stimuli/lakes/504045_right.png,,,,0,59,59,45,1,,,,,
,,,,,,$5ec671f95b792005a7a009af,2020-07-20_14h37.14.653,fisher_task,2020.1.3,Win32,60,0.13981483,-0.427777848,1,0,0,3.378225,scale,,,,,,0.174513954,0.141421356,0.349027907,0.282842712,stimuli/lakes/202011_left.png,stimuli/lakes/202011_right.png,,,,0,60,60,11,1,,,,,
,,,,,,$5ec671f95b792005a7a009af,2020-07-20_14h37.14.653,fisher_task,2020.1.3,Win32,60,-0.093518507,-0.262962974,1,0,0,8.524605,scale,,,,,,0.3702,0.3,0.1234,0.1,stimuli/lakes/903031_left.png,stimuli/lakes/903031_right.png,,,,0,61,61,31,1,,,,,
,,,,,,$5ec671f95b792005a7a009af,2020-07-20_14h37.14.653,fisher_task,2020.1.3,Win32,60,0.102777793,-0.292592604,1,0,0,1.963145,scale,,,,,,0.275930788,0.223606798,0.275930788,0.223606798,stimuli/lakes/503036_left.png,stimuli/lakes/503036_right.png,,,,0,62,62,36,1,,,,,
,,,,,,$5ec671f95b792005a7a009af,2020-07-20_14h37.14.653,fisher_task,2020.1.3,Win32,60,1.32455E-08,-0.250925937,1,0,0,7.244215,scale,,,,,,0.3702,0.3,0.1234,0.1,stimuli/lakes/902022_left.png,stimuli/lakes/902022_right.png,,,,0,63,63,22,1,,,,,
,,,,,,$5ec671f95b792005a7a009af,2020-07-20_14h37.14.653,fisher_task,2020.1.3,Win32,60,-0.151851841,-0.354629642,1,0,0,2.88025,scale,,,,,,0.275930788,0.223606798,0.275930788,0.223606798,stimuli/lakes/5090125_left.png,stimuli/lakes/5090125_right.png,,,,0,64,64,125,1,,,,,
,,,,,,$5ec671f95b792005a7a009af,2020-07-20_14h37.14.653,fisher_task,2020.1.3,Win32,60,0.037962977,-0.264814826,1,0,0,2.814295,scale,,,,,,0.21373507,0.173205081,0.326485712,0.264575131,stimuli/lakes/3080110_left.png,stimuli/lakes/3080110_right.png,,,,0,65,65,110,1,,,,,
,,,,,,$5ec671f95b792005a7a009af,2020-07-20_14h37.14.653,fisher_task,2020.1.3,Win32,60,0.002777791,-0.241666678,1,0,0,2.54851,scale,,,,,,0.21373507,0.173205081,0.326485712,0.264575131,stimuli/lakes/3090121_left.png,stimuli/lakes/3090121_right.png,,,space,0,66,66,121,1,1.154585,,,,
,,,,,,$5ec671f95b792005a7a009af,2020-07-20_14h37.14.653,fisher_task,2020.1.3,Win32,60,0.067592607,-0.25185192,1,0,0,2.81403,scale,,,,,,0.21373507,0.173205081,0.326485712,0.264575131,stimuli/lakes/306082_left.png,stimuli/lakes/306082_right.png,,,,0,67,67,82,1,,,,,
,,,,,,$5ec671f95b792005a7a009af,2020-07-20_14h37.14.653,fisher_task,2020.1.3,Win32,60,-0.1361111,-0.329629642,1,0,0,1.829885,scale,,,,,,0.349027907,0.282842712,0.174513954,0.141421356,stimuli/lakes/806087_left.png,stimuli/lakes/806087_right.png,,,,0,68,68,87,1,,,,,
,,,,,,$5ec671f95b792005a7a009af,2020-07-20_14h37.14.653,fisher_task,2020.1.3,Win32,60,0.16944446,-0.425000014,1,0,0,2.147005,scale,,,,,,0.2468,0.2,0.302267034,0.244948974,stimuli/lakes/403026_left.png,stimuli/lakes/403026_right.png,,,,0,69,69,26,1,,,,,
,,,,,,$5ec671f95b792005a7a009af,2020-07-20_14h37.14.653,fisher_task,2020.1.3,Win32,60,-0.152777767,-0.432407478,1,0,0,2.09653,scale,,,,,,0.349027907,0.282842712,0.174513954,0.141421356,stimuli/lakes/8080118_left.png,stimuli/lakes/8080118_right.png,,,,0,70,70,118,1,,,,,
,,,,,,$5ec671f95b792005a7a009af,2020-07-20_14h37.14.653,fisher_task,2020.1.3,Win32,60,0.036111125,-0.255555567,1,0,0,5.19432,scale,,,,,,0.2468,0.2,0.302267034,0.244948974,stimuli/lakes/406074_left.png,stimuli/lakes/406074_right.png,,,,0,71,71,74,1,,,,,
,,,,,,$5ec671f95b792005a7a009af,2020-07-20_14h37.14.653,fisher_task,2020.1.3,Win32,60,-0.107407396,-0.329629642,1,0,0,4.262055,scale,,,,,,0.326485712,0.264575131,0.21373507,0.173205081,stimuli/lakes/7070104_left.png,stimuli/lakes/7070104_right.png,,,,0,72,72,104,1,,,,,
,,,,,,$5ec671f95b792005a7a009af,2020-07-20_14h37.14.653,fisher_task,2020.1.3,Win32,60,0.152777793,-0.402777791,1,0,0,1.747395,scale,,,,,,0.2468,0.2,0.302267034,0.244948974,stimuli/lakes/40103_left.png,stimuli/lakes/40103_right.png,,,,0,73,73,3,1,,,,,
,,,,,,$5ec671f95b792005a7a009af,2020-07-20_14h37.14.653,fisher_task,2020.1.3,Win32,60,-0.114814803,-0.310185197,1,0,0,3.74636,scale,,,,,,0.326485712,0.264575131,0.21373507,0.173205081,stimuli/lakes/705068_left.png,stimuli/lakes/705068_right.png,,,,0,74,74,68,1,,,,,
,,,,,,$5ec671f95b792005a7a009af,2020-07-20_14h37.14.653,fisher_task,2020.1.3,Win32,60,0.150000015,-0.334259272,1,0,0,1.697975,scale,,,,,,0.174513954,0.141421356,0.349027907,0.282842712,stimuli/lakes/204051_left.png,stimuli/lakes/204051_right.png,,,,0,75,75,51,1,,,,,
,,,,,,$5ec671f95b792005a7a009af,2020-07-20_14h37.14.653,fisher_task,2020.1.3,Win32,60,0.152777793,-0.374074087,1,0,0,2.26432,scale,,,,,,0.1234,0.1,0.3702,0.3,stimuli/lakes/105059_left.png,stimuli/lakes/105059_right.png,,,,0,76,76,59,1,,,,,
,,,,,,$5ec671f95b792005a7a009af,2020-07-20_14h37.14.653,fisher_task,2020.1.3,Win32,60,-0.163888878,-0.400925939,1,0,0,3.579445,scale,,,,,,0.302267034,0.244948974,0.2468,0.2,stimuli/lakes/605066_left.png,stimuli/lakes/605066_right.png,,,,0,77,77,66,1,,,,,
,,,,,,$5ec671f95b792005a7a009af,2020-07-20_14h37.14.653,fisher_task,2020.1.3,Win32,60,0.184259275,-0.412962977,1,0,0,3.72884,scale,,,,,,0.2468,0.2,0.302267034,0.244948974,stimuli/lakes/404044_left.png,stimuli/lakes/404044_right.png,,,,0,78,78,44,1,,,,,
,,,,,,$5ec671f95b792005a7a009af,2020-07-20_14h37.14.653,fisher_task,2020.1.3,Win32,60,-0.12685184,-0.319444457,1,0,0,5.694445,scale,,,,,,0.349027907,0.282842712,0.174513954,0.141421356,stimuli/lakes/804057_left.png,stimuli/lakes/804057_right.png,,,,0,79,79,57,1,,,,,
,,,,,,$5ec671f95b792005a7a009af,2020-07-20_14h37.14.653,fisher_task,2020.1.3,Win32,60,0.184259275,-0.41666668,1,0,0,1.73022,scale,,,,,,0.2468,0.2,0.302267034,0.244948974,stimuli/lakes/40102_left.png,stimuli/lakes/40102_right.png,,,,0,80,80,2,1,,,,,
,,,,,,$5ec671f95b792005a7a009af,2020-07-20_14h37.14.653,fisher_task,2020.1.3,Win32,60,0.184259275,-0.41666668,1,0,0,1.298845,scale,,,,,,0.21373507,0.173205081,0.326485712,0.264575131,stimuli/lakes/303034_left.png,stimuli/lakes/303034_right.png,,,,0,81,81,34,1,,,,,
,,,,,,$5ec671f95b792005a7a009af,2020-07-20_14h37.14.653,fisher_task,2020.1.3,Win32,60,-0.162037026,-0.363888902,1,0,0,2.34655,scale,,,,,,0.326485712,0.264575131,0.21373507,0.173205081,stimuli/lakes/706077_left.png,stimuli/lakes/706077_right.png,,,,0,82,82,77,1,,,,,
,,,,,,$5ec671f95b792005a7a009af,2020-07-20_14h37.14.653,fisher_task,2020.1.3,Win32,60,-0.052777765,-0.282407419,1,0,0,3.92897,scale,,,,,,0.302267034,0.244948974,0.2468,0.2,stimuli/lakes/603037_left.png,stimuli/lakes/603037_right.png,,,,0,83,83,37,1,,,,,
,,,,,,$5ec671f95b792005a7a009af,2020-07-20_14h37.14.653,fisher_task,2020.1.3,Win32,60,-0.174074007,-0.423148218,1,0,0,2.314565,scale,,,,,,0.3702,0.3,0.1234,0.1,stimuli/lakes/907097_left.png,stimuli/lakes/907097_right.png,,,,0,84,84,97,1,,,,,
,,,,,,$5ec671f95b792005a7a009af,2020-07-20_14h37.14.653,fisher_task,2020.1.3,Win32,60,-0.174074007,-0.423148218,1,0,0,1.4306,scale,,,,,,0.326485712,0.264575131,0.21373507,0.173205081,stimuli/lakes/706086_left.png,stimuli/lakes/706086_right.png,,,,0,85,85,86,1,,,,,
,,,,,,$5ec671f95b792005a7a009af,2020-07-20_14h37.14.653,fisher_task,2020.1.3,Win32,60,0.02500007,-0.259259271,1,0,0,5.343095,scale,,,,,,0.1234,0.1,0.3702,0.3,stimuli/lakes/1090119_left.png,stimuli/lakes/1090119_right.png,,,,0,86,86,119,1,,,,,
,,,,,,$5ec671f95b792005a7a009af,2020-07-20_14h37.14.653,fisher_task,2020.1.3,Win32,60,-0.150925858,-0.423148218,1,0,0,3.67981,scale,,,,,,0.3702,0.3,0.1234,0.1,stimuli/lakes/9070106_left.png,stimuli/lakes/9070106_right.png,,,,0,87,87,106,1,,,,,
,,,,,,$5ec671f95b792005a7a009af,2020-07-20_14h37.14.653,fisher_task,2020.1.3,Win32,60,0.146296312,-0.326851864,1,0,0,4.111075,scale,,,,,,0.21373507,0.173205081,0.326485712,0.264575131,stimuli/lakes/304043_left.png,stimuli/lakes/304043_right.png,,,space,0,88,88,43,1,1.12282,,,,
,,,,,,$5ec671f95b792005a7a009af,2020-07-20_14h37.14.653,fisher_task,2020.1.3,Win32,60,-0.014814802,-0.264814826,1,0,0,1.39898,scale,,,,,,0.3702,0.3,0.1234,0.1,stimuli/lakes/901010_left.png,stimuli/lakes/901010_right.png,,,,0,89,89,10,1,,,,,
,,,,,,$5ec671f95b792005a7a009af,2020-07-20_14h37.14.653,fisher_task,2020.1.3,Win32,60,0.121296311,-0.292592604,1,0,0,1.863045,scale,,,,,,0.2468,0.2,0.302267034,0.244948974,stimuli/lakes/407092_left.png,stimuli/lakes/407092_right.png,,,,0,90,90,92,1,,,,,
,,,,,,$5ec671f95b792005a7a009af,2020-07-20_14h37.14.653,fisher_task,2020.1.3,Win32,60,-0.112037025,-0.279629698,1,0,0,2.264275,scale,,,,,,0.275930788,0.223606798,0.275930788,0.223606798,stimuli/lakes/506075_left.png,stimuli/lakes/506075_right.png,,,,0,91,91,75,1,,,,,
,,,,,,$5ec671f95b792005a7a009af,2020-07-20_14h37.14.653,fisher_task,2020.1.3,Win32,60,-0.171296286,-0.423148218,1,0,0,9.290885,scale,,,,,,0.349027907,0.282842712,0.174513954,0.141421356,stimuli/lakes/806078_left.png,stimuli/lakes/806078_right.png,,,,0,92,92,78,1,,,,,
,,,,,,$5ec671f95b792005a7a009af,2020-07-20_14h37.14.653,fisher_task,2020.1.3,Win32,60,0.001851922,-0.24722229,1,0,0,4.676835,scale,,,,,,0.302267034,0.244948974,0.2468,0.2,stimuli/lakes/602017_left.png,stimuli/lakes/602017_right.png,,,,0,93,93,17,1,,,,,
,,,,,,$5ec671f95b792005a7a009af,2020-07-20_14h37.14.653,fisher_task,2020.1.3,Win32,60,0.078703718,-0.275000068,1,0,0,3.695225,scale,,,,,,0.21373507,0.173205081,0.326485712,0.264575131,stimuli/lakes/306073_left.png,stimuli/lakes/306073_right.png,,,,0,94,94,73,1,,,,,
,,,,,,$5ec671f95b792005a7a009af,2020-07-20_14h37.14.653,fisher_task,2020.1.3,Win32,60,-0.176851841,-0.386111181,1,0,0,4.196665,scale,,,,,,0.326485712,0.264575131,0.21373507,0.173205081,stimuli/lakes/705067_left.png,stimuli/lakes/705067_right.png,,,,0,95,95,67,1,,,,,
,,,,,,$5ec671f95b792005a7a009af,2020-07-20_14h37.14.653,fisher_task,2020.1.3,Win32,60,0.148148164,-0.348148161,1,0,0,3.69528,scale,,,,,,0.174513954,0.141421356,0.349027907,0.282842712,stimuli/lakes/206072_left.png,stimuli/lakes/206072_right.png,,,,0,96,96,72,1,,,,,
,,,,,,$5ec671f95b792005a7a009af,2020-07-20_14h37.14.653,fisher_task,2020.1.3,Win32,60,-0.004629616,-0.264814826,1,0,0,2.59673,scale,,,,,,0.2468,0.2,0.302267034,0.244948974,stimuli/lakes/4070101_left.png,stimuli/lakes/4070101_right.png,,,,0,97,97,101,1,,,,,
,,,,,,$5ec671f95b792005a7a009af,2020-07-20_14h37.14.653,fisher_task,2020.1.3,Win32,60,0.002777791,-0.258333345,1,0,0,1.83081,scale,,,,,,0.1234,0.1,0.3702,0.3,stimuli/lakes/106071_left.png,stimuli/lakes/106071_right.png,,,,0,98,98,71,1,,,,,
,,,,,,$5ec671f95b792005a7a009af,2020-07-20_14h37.14.653,fisher_task,2020.1.3,Win32,60,0.068518533,-0.265740809,1,0,0,2.813195,scale,,,,,,0.302267034,0.244948974,0.2468,0.2,stimuli/lakes/604055_left.png,stimuli/lakes/604055_right.png,,,,0,99,99,55,1,,,,,
,,,,,,$5ec671f95b792005a7a009af,2020-07-20_14h37.14.653,fisher_task,2020.1.3,Win32,60,-0.072222154,-0.283333345,1,0,0,2.84491,scale,,,,,,0.326485712,0.264575131,0.21373507,0.173205081,stimuli/lakes/704047_left.png,stimuli/lakes/704047_right.png,,,,0,100,100,47,1,,,,,
,,,,,,$5ec671f95b792005a7a009af,2020-07-20_14h37.14.653,fisher_task,2020.1.3,Win32,60,0.166666682,-0.434259273,1,0,0,2.46302,scale,,,,,,0.21373507,0.173205081,0.326485712,0.264575131,stimuli/lakes/30100_left.png,stimuli/lakes/30100_right.png,,,,0,101,101,0,1,,,,,
,,,,,,$5ec671f95b792005a7a009af,2020-07-20_14h37.14.653,fisher_task,2020.1.3,Win32,60,-0.115740729,-0.295370382,1,0,0,1.914875,scale,,,,,,0.302267034,0.244948974,0.2468,0.2,stimuli/lakes/603028_left.png,stimuli/lakes/603028_right.png,,,,0,102,102,28,1,,,,,
,,,,,,$5ec671f95b792005a7a009af,2020-07-20_14h37.14.653,fisher_task,2020.1.3,Win32,60,0.163888905,-0.365740754,1,0,0,2.613585,scale,,,,,,0.275930788,0.223606798,0.275930788,0.223606798,stimuli/lakes/503027_left.png,stimuli/lakes/503027_right.png,,,,0,103,103,27,1,,,,,
,,,,,,$5ec671f95b792005a7a009af,2020-07-20_14h37.14.653,fisher_task,2020.1.3,Win32,60,-0.091666655,-0.278703715,1,0,0,2.78,scale,,,,,,0.349027907,0.282842712,0.174513954,0.141421356,stimuli/lakes/805069_left.png,stimuli/lakes/805069_right.png,,,,0,104,104,69,1,,,,,
,,,,,,$5ec671f95b792005a7a009af,2020-07-20_14h37.14.653,fisher_task,2020.1.3,Win32,60,0.156481497,-0.378703717,1,0,0,3.013025,scale,,,,,,0.174513954,0.141421356,0.349027907,0.282842712,stimuli/lakes/205060_left.png,stimuli/lakes/205060_right.png,,,,0,105,105,60,1,,,,,
,,,,,,$5ec671f95b792005a7a009af,2020-07-20_14h37.14.653,fisher_task,2020.1.3,Win32,60,-0.181481471,-0.422222236,1,0,0,2.514045,scale,,,,,,0.302267034,0.244948974,0.2468,0.2,stimuli/lakes/605065_left.png,stimuli/lakes/605065_right.png,,,,0,106,106,65,1,,,,,
,,,,,,$5ec671f95b792005a7a009af,2020-07-20_14h37.14.653,fisher_task,2020.1.3,Win32,60,0.124074089,-0.299074086,1,0,0,2.22936,scale,,,,,,0.21373507,0.173205081,0.326485712,0.264575131,stimuli/lakes/303025_left.png,stimuli/lakes/303025_right.png,,,,0,107,107,25,1,,,,,
,,,,,,$5ec671f95b792005a7a009af,2020-07-20_14h37.14.653,fisher_task,2020.1.3,Win32,60,0.156481497,-0.431481495,1,0,0,2.21374,scale,,,,,,0.21373507,0.173205081,0.326485712,0.264575131,stimuli/lakes/30101_left.png,stimuli/lakes/30101_right.png,,,,0,108,108,1,1,,,,,
,,,,,,$5ec671f95b792005a7a009af,2020-07-20_14h37.14.653,fisher_task,2020.1.3,Win32,60,0.160185201,-0.420370384,1,0,0,3.829125,scale,,,,,,0.1234,0.1,0.3702,0.3,stimuli/lakes/104041_left.png,stimuli/lakes/104041_right.png,,,,0,109,109,41,1,,,,,
,,,,,,$5ec671f95b792005a7a009af,2020-07-20_14h37.14.653,fisher_task,2020.1.3,Win32,60,-0.070370358,-0.265740809,1,0,0,1.979645,scale,,,,,,0.349027907,0.282842712,0.174513954,0.141421356,stimuli/lakes/803039_left.png,stimuli/lakes/803039_right.png,,,space,0,110,110,39,1,1.815425,,,,
,,,,,,$5ec671f95b792005a7a009af,2020-07-20_14h37.14.653,fisher_task,2020.1.3,Win32,60,-0.031481469,-0.24722229,1,0,0,1.780785,scale,,,,,,0.326485712,0.264575131,0.21373507,0.173205081,stimuli/lakes/702020_left.png,stimuli/lakes/702020_right.png,,,,0,111,111,20,1,,,,,
,,,,,,$5ec671f95b792005a7a009af,2020-07-20_14h37.14.653,fisher_task,2020.1.3,Win32,60,-0.064814803,-0.275000068,1,0,0,3.680185,scale,,,,,,0.275930788,0.223606798,0.275930788,0.223606798,stimuli/lakes/506084_left.png,stimuli/lakes/506084_right.png,,,,0,112,112,84,1,,,,,
,,,,,,$5ec671f95b792005a7a009af,2020-07-20_14h37.14.653,fisher_task,2020.1.3,Win32,60,-0.051851839,-0.255555567,1,0,0,4.79501,scale,,,,,,0.21373507,0.173205081,0.326485712,0.264575131,stimuli/lakes/3080109_left.png,stimuli/lakes/3080109_right.png,,,,0,113,113,109,1,,,,,
,,,,,,$5ec671f95b792005a7a009af,2020-07-20_14h37.14.653,fisher_task,2020.1.3,Win32,60,0.102777793,-0.287962975,1,0,0,2.47917,scale,,,,,,0.21373507,0.173205081,0.326485712,0.264575131,stimuli/lakes/305061_left.png,stimuli/lakes/305061_right.png,,,,0,114,114,61,1,,,,,
,,,,,,$5ec671f95b792005a7a009af,2020-07-20_14h37.14.653,fisher_task,2020.1.3,Win32,60,-0.085185173,-0.315740753,1,0,0,5.177775,scale,,,,,,0.349027907,0.282842712,0.174513954,0.141421356,stimuli/lakes/807096_left.png,stimuli/lakes/807096_right.png,,,,0,115,115,96,1,,,,,
,,,,,,$5ec671f95b792005a7a009af,2020-07-20_14h37.14.653,fisher_task,2020.1.3,Win32,60,-0.061111099,-0.294444456,1,0,0,2.264255,scale,,,,,,0.302267034,0.244948974,0.2468,0.2,stimuli/lakes/604046_left.png,stimuli/lakes/604046_right.png,,,,0,116,116,46,1,,,,,
,,,,,,$5ec671f95b792005a7a009af,2020-07-20_14h37.14.653,fisher_task,2020.1.3,Win32,60,0.069444459,-0.296296308,1,0,0,3.530025,scale,,,,,,0.174513954,0.141421356,0.349027907,0.282842712,stimuli/lakes/206081_left.png,stimuli/lakes/206081_right.png,,,,0,117,117,81,1,,,,,
,,,,,,$5ec671f95b792005a7a009af,2020-07-20_14h37.14.653,fisher_task,2020.1.3,Win32,60,0.150000015,-0.424074088,1,0,0,1.83065,scale,,,,,,0.21373507,0.173205081,0.326485712,0.264575131,stimuli/lakes/302013_left.png,stimuli/lakes/302013_right.png,,,,0,118,118,13,1,,,,,
,,,,,,$5ec671f95b792005a7a009af,2020-07-20_14h37.14.653,fisher_task,2020.1.3,Win32,60,0.151851867,-0.420370384,1,0,0,1.697485,scale,,,,,,0.2468,0.2,0.302267034,0.244948974,stimuli/lakes/403035_left.png,stimuli/lakes/403035_right.png,,,,0,119,119,35,1,,,,,
,,,,,,$5ec671f95b792005a7a009af,2020-07-20_14h37.14.653,fisher_task,2020.1.3,Win32,60,0.096296311,-0.289814827,1,0,0,2.79686,scale,,,,,,0.21373507,0.173205081,0.326485712,0.264575131,stimuli/lakes/305062_left.png,stimuli/lakes/305062_right.png,,,,0,120,120,62,1,,,,,
,,,,,,$5ec671f95b792005a7a009af,2020-07-20_14h37.14.653,fisher_task,2020.1.3,Win32,60,-0.037037024,-0.261111179,1,0,0,7.575695,scale,,,,,,0.2468,0.2,0.302267034,0.244948974,stimuli/lakes/4090123_left.png,stimuli/lakes/4090123_right.png,,,,0,121,121,123,1,,,,,
,,,,,,$5ec671f95b792005a7a009af,2020-07-20_14h37.14.653,fisher_task,2020.1.3,Win32,60,0.137962978,-0.359259272,1,0,0,3.963305,scale,,,,,,0.1234,0.1,0.3702,0.3,stimuli/lakes/104050_left.png,stimuli/lakes/104050_right.png,,,,0,122,122,50,1,,,,,
,,,,,,$5ec671f95b792005a7a009af,2020-07-20_14h37.14.653,fisher_task,2020.1.3,Win32,60,0.07592594,-0.266666678,1,0,0,4.813065,scale,,,,,,0.349027907,0.282842712,0.174513954,0.141421356,stimuli/lakes/802021_left.png,stimuli/lakes/802021_right.png,,,,0,123,123,21,1,,,,,
,,,,,,$5ec671f95b792005a7a009af,2020-07-20_14h37.14.653,fisher_task,2020.1.3,Win32,60,-0.119444433,-0.325925995,1,0,0,3.96098,scale,,,,,,0.302267034,0.244948974,0.2468,0.2,stimuli/lakes/6070103_left.png,stimuli/lakes/6070103_right.png,,,,0,124,124,103,1,,,,,
,,,,,,$5ec671f95b792005a7a009af,2020-07-20_14h37.14.653,fisher_task,2020.1.3,Win32,60,-0.018518506,-0.269444456,1,0,0,2.98012,scale,,,,,,0.349027907,0.282842712,0.174513954,0.141421356,stimuli/lakes/803030_left.png,stimuli/lakes/803030_right.png,,,,0,125,125,30,1,,,,,
,,,,,,$5ec671f95b792005a7a009af,2020-07-20_14h37.14.653,fisher_task,2020.1.3,Win32,60,-0.146296229,-0.381481551,1,0,0,1.530175,scale,,,,,,0.349027907,0.282842712,0.174513954,0.141421356,stimuli/lakes/8070105_left.png,stimuli/lakes/8070105_right.png,,,,0,126,126,105,1,,,,,
,,,,,,$5ec671f95b792005a7a009af,2020-07-20_14h37.14.653,fisher_task,2020.1.3,Win32,60,-0.002777708,-0.269444456,1,0,0,4.26145,scale,,,,,,0.21373507,0.173205081,0.326485712,0.264575131,stimuli/lakes/3090122_left.png,stimuli/lakes/3090122_right.png,,,,0,127,127,122,1,,,,,
,,,,,,$5ec671f95b792005a7a009af,2020-07-20_14h37.14.653,fisher_task,2020.1.3,Win32,60,-0.157407397,-0.384259272,1,0,0,4.57993,scale,,,,,,0.326485712,0.264575131,0.21373507,0.173205081,stimuli/lakes/7080116_left.png,stimuli/lakes/7080116_right.png,,,,0,128,128,116,1,,,,,
,,,,,,$5ec671f95b792005a7a009af,2020-07-20_14h37.14.653,fisher_task,2020.1.3,Win32,60,0.159259275,-0.419444458,1,0,0,1.481455,scale,,,,,,0.174513954,0.141421356,0.349027907,0.282842712,stimuli/lakes/203033_left.png,stimuli/lakes/203033_right.png,,,,0,129,129,33,1,,,,,
,,,,,,$5ec671f95b792005a7a009af,2020-07-20_14h37.14.653,fisher_task,2020.1.3,Win32,60,,,,,,,,,,,,,,,,,,,,,,,,,,,,space,11.64512,space,29.43176
