keySpace.keys,instructions.thisRepN,instructions.thisTrialN,instructions.thisN,instructions.thisIndex,instructions.ran,participant,date,expName,psychopyVersion,OS,frameRate,mouse.x,mouse.y,mouse.leftButton,mouse.midButton,mouse.rightButton,mouse.time,mouse.clicked_name,training.thisRepN,training.thisTrialN,training.thisN,training.thisIndex,training.ran,widthBasketLeft,heightBasketLeft,widthBasketRight,heightBasketRight,leftLake,rightLake,space2.keys,space2.rt,space1.keys,trials.thisRepN,trials.thisTrialN,trials.thisN,trials.thisIndex,trials.ran,space1.rt,finalSpace1.keys,finalSpace1.rt,finalSpace2.keys,finalSpace2.rt
,0,0,0,0,1,$5eb035358c62bb09069a842f,2020-07-20_09h40.34.323,fisher_task,2020.1.3,Win32,60,,,,,,,,,,,,,,,,,,,,,,,,,,,,,,,
,,,,,,$5eb035358c62bb09069a842f,2020-07-20_09h40.34.323,fisher_task,2020.1.3,Win32,60,0.180487805,-0.434146341,1,0,0,4.515095,scale,0,0,0,0,1,0.275930788,0.223606798,0.275930788,0.223606798,stimuli/training/20_left.png,stimuli/training/20_right.png,,,,,,,,,,,,,
,,,,,,$5eb035358c62bb09069a842f,2020-07-20_09h40.34.323,fisher_task,2020.1.3,Win32,60,-0.157317073,-0.38902439,1,0,0,4.566465,scale,0,1,1,1,1,0.275930788,0.223606798,0.275930788,0.223606798,stimuli/training/80_left.png,stimuli/training/80_right.png,,,,,,,,,,,,,
,,,,,,$5eb035358c62bb09069a842f,2020-07-20_09h40.34.323,fisher_task,2020.1.3,Win32,60,0.108536585,-0.3,1,0,0,5.31598,scale,0,2,2,2,1,0.174513954,0.141421356,0.349027907,0.282842712,stimuli/training/50_left.png,stimuli/training/50_right.png,,,,,,,,,,,,,
,,,,,,$5eb035358c62bb09069a842f,2020-07-20_09h40.34.323,fisher_task,2020.1.3,Win32,60,-0.02195122,-0.267073171,1,0,0,4.482835,scale,0,3,3,3,1,0.349027907,0.282842712,0.174513954,0.141421356,stimuli/training/50_left.png,stimuli/training/50_right.png,,,,,,,,,,,,,
,,,,,,$5eb035358c62bb09069a842f,2020-07-20_09h40.34.323,fisher_task,2020.1.3,Win32,60,0.101219512,-0.297560976,1,0,0,2.64964,scale,0,4,4,4,1,0.275930788,0.223606798,0.275930788,0.223606798,stimuli/training/50_left.png,stimuli/training/50_right.png,,,,,,,,,,,,,
,,,,,,$5eb035358c62bb09069a842f,2020-07-20_09h40.34.323,fisher_task,2020.1.3,Win32,60,0.173170732,-0.432926829,1,0,0,1.899735,scale,0,5,5,5,1,0.174513954,0.141421356,0.349027907,0.282842712,stimuli/training/20_left.png,stimuli/training/20_right.png,,,,,,,,,,,,,
,,,,,,$5eb035358c62bb09069a842f,2020-07-20_09h40.34.323,fisher_task,2020.1.3,Win32,60,-0.148780488,-0.42195122,1,0,0,1.665935,scale,0,6,6,6,1,0.349027907,0.282842712,0.174513954,0.141421356,stimuli/training/80_left.png,stimuli/training/80_right.png,,,,,,,,,,,,,
,,,,,,$5eb035358c62bb09069a842f,2020-07-20_09h40.34.323,fisher_task,2020.1.3,Win32,60,0.164634146,-0.412195122,1,0,0,2.732895,scale,0,7,7,7,1,0.1234,0.1,0.3702,0.3,stimuli/training/30_left.png,stimuli/training/30_right.png,,,,,,,,,,,,,
,,,,,,$5eb035358c62bb09069a842f,2020-07-20_09h40.34.323,fisher_task,2020.1.3,Win32,60,-0.168292683,-0.414634146,1,0,0,1.33271,scale,0,8,8,8,1,0.3702,0.3,0.1234,0.1,stimuli/training/70_left.png,stimuli/training/70_right.png,,,,,,,,,,,,,
,,,,,,$5eb035358c62bb09069a842f,2020-07-20_09h40.34.323,fisher_task,2020.1.3,Win32,60,-0.168292683,-0.42804878,1,0,0,1.466325,scale,0,9,9,9,1,0.326485712,0.264575131,0.21373507,0.173205081,stimuli/training/90_left.png,stimuli/training/90_right.png,,,,,,,,,,,,,
,,,,,,$5eb035358c62bb09069a842f,2020-07-20_09h40.34.323,fisher_task,2020.1.3,Win32,60,0.184146341,-0.432926829,1,0,0,2.200135,scale,0,10,10,10,1,0.21373507,0.173205081,0.326485712,0.264575131,stimuli/training/10_left.png,stimuli/training/10_right.png,,,,,,,,,,,,,
,,,,,,$5eb035358c62bb09069a842f,2020-07-20_09h40.34.323,fisher_task,2020.1.3,Win32,60,-0.17195122,-0.432926829,1,0,0,1.866075,scale,,,,,,0.2468,0.2,0.302267034,0.244948974,stimuli/lakes/4090124_left.png,stimuli/lakes/4090124_right.png,space,4.512805,,0,0,0,124,1,,,,,
,,,,,,$5eb035358c62bb09069a842f,2020-07-20_09h40.34.323,fisher_task,2020.1.3,Win32,60,-0.153658537,-0.395121951,1,0,0,3.116375,scale,,,,,,0.349027907,0.282842712,0.174513954,0.141421356,stimuli/lakes/8070105_left.png,stimuli/lakes/8070105_right.png,,,,0,1,1,105,1,,,,,
,,,,,,$5eb035358c62bb09069a842f,2020-07-20_09h40.34.323,fisher_task,2020.1.3,Win32,60,-0.137804878,-0.356097561,1,0,0,2.615955,scale,,,,,,0.326485712,0.264575131,0.21373507,0.173205081,stimuli/lakes/706086_left.png,stimuli/lakes/706086_right.png,,,,0,2,2,86,1,,,,,
,,,,,,$5eb035358c62bb09069a842f,2020-07-20_09h40.34.323,fisher_task,2020.1.3,Win32,60,-0.146341463,-0.42195122,1,0,0,1.800325,scale,,,,,,0.326485712,0.264575131,0.21373507,0.173205081,stimuli/lakes/7090128_left.png,stimuli/lakes/7090128_right.png,,,,0,3,3,128,1,,,,,
,,,,,,$5eb035358c62bb09069a842f,2020-07-20_09h40.34.323,fisher_task,2020.1.3,Win32,60,-0.069512195,-0.279268293,1,0,0,1.732755,scale,,,,,,0.326485712,0.264575131,0.21373507,0.173205081,stimuli/lakes/705068_left.png,stimuli/lakes/705068_right.png,,,,0,4,4,68,1,,,,,
,,,,,,$5eb035358c62bb09069a842f,2020-07-20_09h40.34.323,fisher_task,2020.1.3,Win32,60,0.08902439,-0.273170732,1,0,0,6.04952,scale,,,,,,0.302267034,0.244948974,0.2468,0.2,stimuli/lakes/605066_left.png,stimuli/lakes/605066_right.png,,,,0,5,5,66,1,,,,,
,,,,,,$5eb035358c62bb09069a842f,2020-07-20_09h40.34.323,fisher_task,2020.1.3,Win32,60,-0.132926829,-0.425609756,1,0,0,1.51703,scale,,,,,,0.302267034,0.244948974,0.2468,0.2,stimuli/lakes/6080115_left.png,stimuli/lakes/6080115_right.png,,,,0,6,6,115,1,,,,,
,,,,,,$5eb035358c62bb09069a842f,2020-07-20_09h40.34.323,fisher_task,2020.1.3,Win32,60,-0.153658537,-0.424390244,1,0,0,1.466115,scale,,,,,,0.174513954,0.141421356,0.349027907,0.282842712,stimuli/lakes/2090120_left.png,stimuli/lakes/2090120_right.png,,,,0,7,7,120,1,,,,,
,,,,,,$5eb035358c62bb09069a842f,2020-07-20_09h40.34.323,fisher_task,2020.1.3,Win32,60,-0.153658537,-0.424390244,1,0,0,1.316405,scale,,,,,,0.2468,0.2,0.302267034,0.244948974,stimuli/lakes/4070101_left.png,stimuli/lakes/4070101_right.png,,,,0,8,8,101,1,,,,,
,,,,,,$5eb035358c62bb09069a842f,2020-07-20_09h40.34.323,fisher_task,2020.1.3,Win32,60,-0.07804878,-0.269512195,1,0,0,1.567575,scale,,,,,,0.326485712,0.264575131,0.21373507,0.173205081,stimuli/lakes/705067_left.png,stimuli/lakes/705067_right.png,,,,0,9,9,67,1,,,,,
,,,,,,$5eb035358c62bb09069a842f,2020-07-20_09h40.34.323,fisher_task,2020.1.3,Win32,60,0.113414634,-0.298780488,1,0,0,1.41631,scale,,,,,,0.2468,0.2,0.302267034,0.244948974,stimuli/lakes/405063_left.png,stimuli/lakes/405063_right.png,,,,0,10,10,63,1,,,,,
,,,,,,$5eb035358c62bb09069a842f,2020-07-20_09h40.34.323,fisher_task,2020.1.3,Win32,60,-0.126829268,-0.342682927,1,0,0,2.08306,scale,,,,,,0.275930788,0.223606798,0.275930788,0.223606798,stimuli/lakes/506084_left.png,stimuli/lakes/506084_right.png,,,,0,11,11,84,1,,,,,
,,,,,,$5eb035358c62bb09069a842f,2020-07-20_09h40.34.323,fisher_task,2020.1.3,Win32,60,0.059756098,-0.262195122,1,0,0,3.44969,scale,,,,,,0.21373507,0.173205081,0.326485712,0.264575131,stimuli/lakes/305061_left.png,stimuli/lakes/305061_right.png,,,,0,12,12,61,1,,,,,
,,,,,,$5eb035358c62bb09069a842f,2020-07-20_09h40.34.323,fisher_task,2020.1.3,Win32,60,0.135365854,-0.32804878,1,0,0,13.78323,scale,,,,,,0.302267034,0.244948974,0.2468,0.2,stimuli/lakes/602017_left.png,stimuli/lakes/602017_right.png,,,,0,13,13,17,1,,,,,
,,,,,,$5eb035358c62bb09069a842f,2020-07-20_09h40.34.323,fisher_task,2020.1.3,Win32,60,0.154878049,-0.414634146,1,0,0,1.23318,scale,,,,,,0.21373507,0.173205081,0.326485712,0.264575131,stimuli/lakes/303025_left.png,stimuli/lakes/303025_right.png,,,,0,14,14,25,1,,,,,
,,,,,,$5eb035358c62bb09069a842f,2020-07-20_09h40.34.323,fisher_task,2020.1.3,Win32,60,-0.163414634,-0.424390244,1,0,0,1.36662,scale,,,,,,0.302267034,0.244948974,0.2468,0.2,stimuli/lakes/6090126_left.png,stimuli/lakes/6090126_right.png,,,,0,15,15,126,1,,,,,
,,,,,,$5eb035358c62bb09069a842f,2020-07-20_09h40.34.323,fisher_task,2020.1.3,Win32,60,0.141463415,-0.4,1,0,0,1.58294,scale,,,,,,0.275930788,0.223606798,0.275930788,0.223606798,stimuli/lakes/503027_left.png,stimuli/lakes/503027_right.png,,,,0,16,16,27,1,,,,,
,,,,,,$5eb035358c62bb09069a842f,2020-07-20_09h40.34.323,fisher_task,2020.1.3,Win32,60,0.176829268,-0.413414634,1,0,0,1.19937,scale,,,,,,0.2468,0.2,0.302267034,0.244948974,stimuli/lakes/402014_left.png,stimuli/lakes/402014_right.png,,,,0,17,17,14,1,,,,,
,,,,,,$5eb035358c62bb09069a842f,2020-07-20_09h40.34.323,fisher_task,2020.1.3,Win32,60,0.067073171,-0.268292683,1,0,0,1.63318,scale,,,,,,0.349027907,0.282842712,0.174513954,0.141421356,stimuli/lakes/802021_left.png,stimuli/lakes/802021_right.png,,,,0,18,18,21,1,,,,,
,,,,,,$5eb035358c62bb09069a842f,2020-07-20_09h40.34.323,fisher_task,2020.1.3,Win32,60,-0.068292683,-0.297560976,1,0,0,1.549655,scale,,,,,,0.2468,0.2,0.302267034,0.244948974,stimuli/lakes/407092_left.png,stimuli/lakes/407092_right.png,,,,0,19,19,92,1,,,,,
,,,,,,$5eb035358c62bb09069a842f,2020-07-20_09h40.34.323,fisher_task,2020.1.3,Win32,60,0.13902439,-0.367073171,1,0,0,1.74969,scale,,,,,,0.2468,0.2,0.302267034,0.244948974,stimuli/lakes/403035_left.png,stimuli/lakes/403035_right.png,,,,0,20,20,35,1,,,,,
,,,,,,$5eb035358c62bb09069a842f,2020-07-20_09h40.34.323,fisher_task,2020.1.3,Win32,60,0.15,-0.413414634,1,0,0,1.33309,scale,,,,,,0.326485712,0.264575131,0.21373507,0.173205081,stimuli/lakes/702019_left.png,stimuli/lakes/702019_right.png,,,,0,21,21,19,1,,,,,
,,,,,,$5eb035358c62bb09069a842f,2020-07-20_09h40.34.323,fisher_task,2020.1.3,Win32,60,0.062195122,-0.280487805,1,0,0,2.065965,scale,,,,,,0.349027907,0.282842712,0.174513954,0.141421356,stimuli/lakes/804048_left.png,stimuli/lakes/804048_right.png,,,space,0,22,22,48,1,6.14435,,,,
,,,,,,$5eb035358c62bb09069a842f,2020-07-20_09h40.34.323,fisher_task,2020.1.3,Win32,60,-0.146341463,-0.33902439,1,0,0,2.7163,scale,,,,,,0.174513954,0.141421356,0.349027907,0.282842712,stimuli/lakes/207099_left.png,stimuli/lakes/207099_right.png,,,,0,23,23,99,1,,,,,
,,,,,,$5eb035358c62bb09069a842f,2020-07-20_09h40.34.323,fisher_task,2020.1.3,Win32,60,-0.082926829,-0.269512195,1,0,0,1.899595,scale,,,,,,0.174513954,0.141421356,0.349027907,0.282842712,stimuli/lakes/207090_left.png,stimuli/lakes/207090_right.png,,,,0,24,24,90,1,,,,,
,,,,,,$5eb035358c62bb09069a842f,2020-07-20_09h40.34.323,fisher_task,2020.1.3,Win32,60,0.162195122,-0.429268293,1,0,0,2.532455,scale,,,,,,0.21373507,0.173205081,0.326485712,0.264575131,stimuli/lakes/302013_left.png,stimuli/lakes/302013_right.png,,,,0,25,25,13,1,,,,,
,,,,,,$5eb035358c62bb09069a842f,2020-07-20_09h40.34.323,fisher_task,2020.1.3,Win32,60,-0.151219512,-0.423170732,1,0,0,1.183295,scale,,,,,,0.349027907,0.282842712,0.174513954,0.141421356,stimuli/lakes/806078_left.png,stimuli/lakes/806078_right.png,,,,0,26,26,78,1,,,,,
,,,,,,$5eb035358c62bb09069a842f,2020-07-20_09h40.34.323,fisher_task,2020.1.3,Win32,60,0.13902439,-0.326829268,1,0,0,1.66642,scale,,,,,,0.2468,0.2,0.302267034,0.244948974,stimuli/lakes/404044_left.png,stimuli/lakes/404044_right.png,,,,0,27,27,44,1,,,,,
,,,,,,$5eb035358c62bb09069a842f,2020-07-20_09h40.34.323,fisher_task,2020.1.3,Win32,60,-0.134146341,-0.334146341,1,0,0,2.299715,scale,,,,,,0.174513954,0.141421356,0.349027907,0.282842712,stimuli/lakes/206072_left.png,stimuli/lakes/206072_right.png,,,,0,28,28,72,1,,,,,
,,,,,,$5eb035358c62bb09069a842f,2020-07-20_09h40.34.323,fisher_task,2020.1.3,Win32,60,0.067073171,-0.27195122,1,0,0,2.39979,scale,,,,,,0.21373507,0.173205081,0.326485712,0.264575131,stimuli/lakes/305062_left.png,stimuli/lakes/305062_right.png,,,,0,29,29,62,1,,,,,
,,,,,,$5eb035358c62bb09069a842f,2020-07-20_09h40.34.323,fisher_task,2020.1.3,Win32,60,0.146341463,-0.392682927,1,0,0,1.58294,scale,,,,,,0.2468,0.2,0.302267034,0.244948974,stimuli/lakes/404053_left.png,stimuli/lakes/404053_right.png,,,,0,30,30,53,1,,,,,
,,,,,,$5eb035358c62bb09069a842f,2020-07-20_09h40.34.323,fisher_task,2020.1.3,Win32,60,0.145121951,-0.33902439,1,0,0,1.41636,scale,,,,,,0.3702,0.3,0.1234,0.1,stimuli/lakes/904058_left.png,stimuli/lakes/904058_right.png,,,,0,31,31,58,1,,,,,
,,,,,,$5eb035358c62bb09069a842f,2020-07-20_09h40.34.323,fisher_task,2020.1.3,Win32,60,-0.1,-0.313414634,1,0,0,1.532655,scale,,,,,,0.275930788,0.223606798,0.275930788,0.223606798,stimuli/lakes/506075_left.png,stimuli/lakes/506075_right.png,,,,0,32,32,75,1,,,,,
,,,,,,$5eb035358c62bb09069a842f,2020-07-20_09h40.34.323,fisher_task,2020.1.3,Win32,60,0.159756098,-0.419512195,1,0,0,1.31582,scale,,,,,,0.2468,0.2,0.302267034,0.244948974,stimuli/lakes/403026_left.png,stimuli/lakes/403026_right.png,,,,0,33,33,26,1,,,,,
,,,,,,$5eb035358c62bb09069a842f,2020-07-20_09h40.34.323,fisher_task,2020.1.3,Win32,60,0.159756098,-0.419512195,1,0,0,1.09913,scale,,,,,,0.21373507,0.173205081,0.326485712,0.264575131,stimuli/lakes/303034_left.png,stimuli/lakes/303034_right.png,,,,0,34,34,34,1,,,,,
,,,,,,$5eb035358c62bb09069a842f,2020-07-20_09h40.34.323,fisher_task,2020.1.3,Win32,60,-0.135365854,-0.423170732,1,0,0,0.999525,scale,,,,,,0.3702,0.3,0.1234,0.1,stimuli/lakes/907097_left.png,stimuli/lakes/907097_right.png,,,,0,35,35,97,1,,,,,
,,,,,,$5eb035358c62bb09069a842f,2020-07-20_09h40.34.323,fisher_task,2020.1.3,Win32,60,-0.142682927,-0.424390244,1,0,0,0.99983,scale,,,,,,0.302267034,0.244948974,0.2468,0.2,stimuli/lakes/607094_left.png,stimuli/lakes/607094_right.png,,,,0,36,36,94,1,,,,,
,,,,,,$5eb035358c62bb09069a842f,2020-07-20_09h40.34.323,fisher_task,2020.1.3,Win32,60,-0.143902439,-0.424390244,1,0,0,0.766325,scale,,,,,,0.302267034,0.244948974,0.2468,0.2,stimuli/lakes/606085_left.png,stimuli/lakes/606085_right.png,,,,0,37,37,85,1,,,,,
,,,,,,$5eb035358c62bb09069a842f,2020-07-20_09h40.34.323,fisher_task,2020.1.3,Win32,60,-0.143902439,-0.424390244,1,0,0,0.783475,scale,,,,,,0.302267034,0.244948974,0.2468,0.2,stimuli/lakes/6070103_left.png,stimuli/lakes/6070103_right.png,,,,0,38,38,103,1,,,,,
,,,,,,$5eb035358c62bb09069a842f,2020-07-20_09h40.34.323,fisher_task,2020.1.3,Win32,60,-0.151219512,-0.390243902,1,0,0,1.38309,scale,,,,,,0.2468,0.2,0.302267034,0.244948974,stimuli/lakes/4080112_left.png,stimuli/lakes/4080112_right.png,,,,0,39,39,112,1,,,,,
,,,,,,$5eb035358c62bb09069a842f,2020-07-20_09h40.34.323,fisher_task,2020.1.3,Win32,60,0.156097561,-0.430487805,1,0,0,1.49943,scale,,,,,,0.326485712,0.264575131,0.21373507,0.173205081,stimuli/lakes/70107_left.png,stimuli/lakes/70107_right.png,,,,0,40,40,7,1,,,,,
,,,,,,$5eb035358c62bb09069a842f,2020-07-20_09h40.34.323,fisher_task,2020.1.3,Win32,60,0.074390244,-0.26097561,1,0,0,1.88308,scale,,,,,,0.349027907,0.282842712,0.174513954,0.141421356,stimuli/lakes/803039_left.png,stimuli/lakes/803039_right.png,,,,0,41,41,39,1,,,,,
,,,,,,$5eb035358c62bb09069a842f,2020-07-20_09h40.34.323,fisher_task,2020.1.3,Win32,60,-0.062195122,-0.279268293,1,0,0,1.33317,scale,,,,,,0.2468,0.2,0.302267034,0.244948974,stimuli/lakes/406083_left.png,stimuli/lakes/406083_right.png,,,,0,42,42,83,1,,,,,
,,,,,,$5eb035358c62bb09069a842f,2020-07-20_09h40.34.323,fisher_task,2020.1.3,Win32,60,-0.131707317,-0.320731707,1,0,0,1.849775,scale,,,,,,0.21373507,0.173205081,0.326485712,0.264575131,stimuli/lakes/3080109_left.png,stimuli/lakes/3080109_right.png,,,,0,43,43,109,1,,,,,
,,,,,,$5eb035358c62bb09069a842f,2020-07-20_09h40.34.323,fisher_task,2020.1.3,Win32,60,0.162195122,-0.426829268,1,0,0,1.199685,scale,,,,,,0.275930788,0.223606798,0.275930788,0.223606798,stimuli/lakes/50104_left.png,stimuli/lakes/50104_right.png,,,space,0,44,44,4,1,11.73735,,,,
,,,,,,$5eb035358c62bb09069a842f,2020-07-20_09h40.34.323,fisher_task,2020.1.3,Win32,60,-0.165853659,-0.430487805,1,0,0,1.149695,scale,,,,,,0.302267034,0.244948974,0.2468,0.2,stimuli/lakes/6090127_left.png,stimuli/lakes/6090127_right.png,,,,0,45,45,127,1,,,,,
,,,,,,$5eb035358c62bb09069a842f,2020-07-20_09h40.34.323,fisher_task,2020.1.3,Win32,60,-0.165853659,-0.430487805,1,0,0,0.83317,scale,,,,,,0.302267034,0.244948974,0.2468,0.2,stimuli/lakes/6080114_left.png,stimuli/lakes/6080114_right.png,,,,0,46,46,114,1,,,,,
,,,,,,$5eb035358c62bb09069a842f,2020-07-20_09h40.34.323,fisher_task,2020.1.3,Win32,60,0.157317073,-0.351219512,1,0,0,24.01676,scale,,,,,,0.1234,0.1,0.3702,0.3,stimuli/lakes/104050_left.png,stimuli/lakes/104050_right.png,,,,0,47,47,50,1,,,,,
,,,,,,$5eb035358c62bb09069a842f,2020-07-20_09h40.34.323,fisher_task,2020.1.3,Win32,60,0.086585366,-0.274390244,1,0,0,1.54963,scale,,,,,,0.1234,0.1,0.3702,0.3,stimuli/lakes/106080_left.png,stimuli/lakes/106080_right.png,,,,0,48,48,80,1,,,,,
,,,,,,$5eb035358c62bb09069a842f,2020-07-20_09h40.34.323,fisher_task,2020.1.3,Win32,60,-0.15,-0.42804878,1,0,0,1.93234,scale,,,,,,0.349027907,0.282842712,0.174513954,0.141421356,stimuli/lakes/8080118_left.png,stimuli/lakes/8080118_right.png,,,,0,49,49,118,1,,,,,
,,,,,,$5eb035358c62bb09069a842f,2020-07-20_09h40.34.323,fisher_task,2020.1.3,Win32,60,0.151219512,-0.429268293,1,0,0,1.049475,scale,,,,,,0.2468,0.2,0.302267034,0.244948974,stimuli/lakes/40103_left.png,stimuli/lakes/40103_right.png,,,,0,50,50,3,1,,,,,
,,,,,,$5eb035358c62bb09069a842f,2020-07-20_09h40.34.323,fisher_task,2020.1.3,Win32,60,0.169512195,-0.424390244,1,0,0,1.482925,scale,,,,,,0.21373507,0.173205081,0.326485712,0.264575131,stimuli/lakes/30100_left.png,stimuli/lakes/30100_right.png,,,,0,51,51,0,1,,,,,
,,,,,,$5eb035358c62bb09069a842f,2020-07-20_09h40.34.323,fisher_task,2020.1.3,Win32,60,-0.181707317,-0.43902439,1,0,0,1.266365,scale,,,,,,0.326485712,0.264575131,0.21373507,0.173205081,stimuli/lakes/7080116_left.png,stimuli/lakes/7080116_right.png,,,,0,52,52,116,1,,,,,
,,,,,,$5eb035358c62bb09069a842f,2020-07-20_09h40.34.323,fisher_task,2020.1.3,Win32,60,-0.119512195,-0.313414634,1,0,0,1.51612,scale,,,,,,0.275930788,0.223606798,0.275930788,0.223606798,stimuli/lakes/507093_left.png,stimuli/lakes/507093_right.png,,,,0,53,53,93,1,,,,,
,,,,,,$5eb035358c62bb09069a842f,2020-07-20_09h40.34.323,fisher_task,2020.1.3,Win32,60,0.043902439,-0.258536585,1,0,0,2.799685,scale,,,,,,0.302267034,0.244948974,0.2468,0.2,stimuli/lakes/603037_left.png,stimuli/lakes/603037_right.png,,,,0,54,54,37,1,,,,,
,,,,,,$5eb035358c62bb09069a842f,2020-07-20_09h40.34.323,fisher_task,2020.1.3,Win32,60,0.173170732,-0.430487805,1,0,0,1.299905,scale,,,,,,0.21373507,0.173205081,0.326485712,0.264575131,stimuli/lakes/302012_left.png,stimuli/lakes/302012_right.png,,,,0,55,55,12,1,,,,,
,,,,,,$5eb035358c62bb09069a842f,2020-07-20_09h40.34.323,fisher_task,2020.1.3,Win32,60,-0.06097561,-0.259756098,1,0,0,2.00033,scale,,,,,,0.1234,0.1,0.3702,0.3,stimuli/lakes/1080107_left.png,stimuli/lakes/1080107_right.png,,,,0,56,56,107,1,,,,,
,,,,,,$5eb035358c62bb09069a842f,2020-07-20_09h40.34.323,fisher_task,2020.1.3,Win32,60,0.069512195,-0.285365854,1,0,0,1.499755,scale,,,,,,0.302267034,0.244948974,0.2468,0.2,stimuli/lakes/602018_left.png,stimuli/lakes/602018_right.png,,,,0,57,57,18,1,,,,,
,,,,,,$5eb035358c62bb09069a842f,2020-07-20_09h40.34.323,fisher_task,2020.1.3,Win32,60,0.119512195,-0.3,1,0,0,2.13247,scale,,,,,,0.326485712,0.264575131,0.21373507,0.173205081,stimuli/lakes/702020_left.png,stimuli/lakes/702020_right.png,,,,0,58,58,20,1,,,,,
,,,,,,$5eb035358c62bb09069a842f,2020-07-20_09h40.34.323,fisher_task,2020.1.3,Win32,60,0.12195122,-0.319512195,1,0,0,1.332465,scale,,,,,,0.2468,0.2,0.302267034,0.244948974,stimuli/lakes/40102_left.png,stimuli/lakes/40102_right.png,,,,0,59,59,2,1,,,,,
,,,,,,$5eb035358c62bb09069a842f,2020-07-20_09h40.34.323,fisher_task,2020.1.3,Win32,60,-0.130487805,-0.326829268,1,0,0,1.283445,scale,,,,,,0.326485712,0.264575131,0.21373507,0.173205081,stimuli/lakes/7070104_left.png,stimuli/lakes/7070104_right.png,,,,0,60,60,104,1,,,,,
,,,,,,$5eb035358c62bb09069a842f,2020-07-20_09h40.34.323,fisher_task,2020.1.3,Win32,60,-0.163414634,-0.436585366,1,0,0,0.99919,scale,,,,,,0.326485712,0.264575131,0.21373507,0.173205081,stimuli/lakes/7090129_left.png,stimuli/lakes/7090129_right.png,,,,0,61,61,129,1,,,,,
,,,,,,$5eb035358c62bb09069a842f,2020-07-20_09h40.34.323,fisher_task,2020.1.3,Win32,60,-0.16097561,-0.436585366,1,0,0,1.14969,scale,,,,,,0.2468,0.2,0.302267034,0.244948974,stimuli/lakes/4080111_left.png,stimuli/lakes/4080111_right.png,,,,0,62,62,111,1,,,,,
,,,,,,$5eb035358c62bb09069a842f,2020-07-20_09h40.34.323,fisher_task,2020.1.3,Win32,60,-0.145121951,-0.343902439,1,0,0,1.29977,scale,,,,,,0.21373507,0.173205081,0.326485712,0.264575131,stimuli/lakes/306073_left.png,stimuli/lakes/306073_right.png,,,,0,63,63,73,1,,,,,
,,,,,,$5eb035358c62bb09069a842f,2020-07-20_09h40.34.323,fisher_task,2020.1.3,Win32,60,-0.159756098,-0.409756098,1,0,0,1.132975,scale,,,,,,0.349027907,0.282842712,0.174513954,0.141421356,stimuli/lakes/805069_left.png,stimuli/lakes/805069_right.png,,,,0,64,64,69,1,,,,,
,,,,,,$5eb035358c62bb09069a842f,2020-07-20_09h40.34.323,fisher_task,2020.1.3,Win32,60,0.173170732,-0.423170732,1,0,0,1.349695,scale,,,,,,0.326485712,0.264575131,0.21373507,0.173205081,stimuli/lakes/70108_left.png,stimuli/lakes/70108_right.png,,,,0,65,65,8,1,,,,,
,,,,,,$5eb035358c62bb09069a842f,2020-07-20_09h40.34.323,fisher_task,2020.1.3,Win32,60,-0.16097561,-0.429268293,1,0,0,1.165715,scale,,,,,,0.349027907,0.282842712,0.174513954,0.141421356,stimuli/lakes/807096_left.png,stimuli/lakes/807096_right.png,,,space,0,66,66,96,1,190.80201,,,,
,,,,,,$5eb035358c62bb09069a842f,2020-07-20_09h40.34.323,fisher_task,2020.1.3,Win32,60,-0.12195122,-0.312195122,1,0,0,1.466555,scale,,,,,,0.302267034,0.244948974,0.2468,0.2,stimuli/lakes/605065_left.png,stimuli/lakes/605065_right.png,,,,0,67,67,65,1,,,,,
,,,,,,$5eb035358c62bb09069a842f,2020-07-20_09h40.34.323,fisher_task,2020.1.3,Win32,60,0.146341463,-0.353658537,1,0,0,1.699715,scale,,,,,,0.21373507,0.173205081,0.326485712,0.264575131,stimuli/lakes/304043_left.png,stimuli/lakes/304043_right.png,,,,0,68,68,43,1,,,,,
,,,,,,$5eb035358c62bb09069a842f,2020-07-20_09h40.34.323,fisher_task,2020.1.3,Win32,60,-0.143902439,-0.430487805,1,0,0,1.116075,scale,,,,,,0.275930788,0.223606798,0.275930788,0.223606798,stimuli/lakes/5070102_left.png,stimuli/lakes/5070102_right.png,,,,0,69,69,102,1,,,,,
,,,,,,$5eb035358c62bb09069a842f,2020-07-20_09h40.34.323,fisher_task,2020.1.3,Win32,60,0.156097561,-0.330487805,1,0,0,1.24959,scale,,,,,,0.174513954,0.141421356,0.349027907,0.282842712,stimuli/lakes/204042_left.png,stimuli/lakes/204042_right.png,,,,0,70,70,42,1,,,,,
,,,,,,$5eb035358c62bb09069a842f,2020-07-20_09h40.34.323,fisher_task,2020.1.3,Win32,60,0.073170732,-0.25,1,0,0,1.81643,scale,,,,,,0.3702,0.3,0.1234,0.1,stimuli/lakes/903031_left.png,stimuli/lakes/903031_right.png,,,,0,71,71,31,1,,,,,
,,,,,,$5eb035358c62bb09069a842f,2020-07-20_09h40.34.323,fisher_task,2020.1.3,Win32,60,-0.115853659,-0.319512195,1,0,0,1.16631,scale,,,,,,0.21373507,0.173205081,0.326485712,0.264575131,stimuli/lakes/3070100_left.png,stimuli/lakes/3070100_right.png,,,,0,72,72,100,1,,,,,
,,,,,,$5eb035358c62bb09069a842f,2020-07-20_09h40.34.323,fisher_task,2020.1.3,Win32,60,-0.12195122,-0.297560976,1,0,0,1.28329,scale,,,,,,0.302267034,0.244948974,0.2468,0.2,stimuli/lakes/606076_left.png,stimuli/lakes/606076_right.png,,,,0,73,73,76,1,,,,,
,,,,,,$5eb035358c62bb09069a842f,2020-07-20_09h40.34.323,fisher_task,2020.1.3,Win32,60,0.163414634,-0.423170732,1,0,0,1.94927,scale,,,,,,0.302267034,0.244948974,0.2468,0.2,stimuli/lakes/60106_left.png,stimuli/lakes/60106_right.png,,,,0,74,74,6,1,,,,,
,,,,,,$5eb035358c62bb09069a842f,2020-07-20_09h40.34.323,fisher_task,2020.1.3,Win32,60,0.165853659,-0.430487805,1,0,0,0.99951,scale,,,,,,0.174513954,0.141421356,0.349027907,0.282842712,stimuli/lakes/203033_left.png,stimuli/lakes/203033_right.png,,,,0,75,75,33,1,,,,,
,,,,,,$5eb035358c62bb09069a842f,2020-07-20_09h40.34.323,fisher_task,2020.1.3,Win32,60,0.119512195,-0.3,1,0,0,1.53278,scale,,,,,,0.275930788,0.223606798,0.275930788,0.223606798,stimuli/lakes/503036_left.png,stimuli/lakes/503036_right.png,,,,0,76,76,36,1,,,,,
,,,,,,$5eb035358c62bb09069a842f,2020-07-20_09h40.34.323,fisher_task,2020.1.3,Win32,60,-0.095121951,-0.281707317,1,0,0,1.450015,scale,,,,,,0.21373507,0.173205081,0.326485712,0.264575131,stimuli/lakes/3090122_left.png,stimuli/lakes/3090122_right.png,,,,0,77,77,122,1,,,,,
,,,,,,$5eb035358c62bb09069a842f,2020-07-20_09h40.34.323,fisher_task,2020.1.3,Win32,60,0.108536585,-0.319512195,1,0,0,1.84982,scale,,,,,,0.3702,0.3,0.1234,0.1,stimuli/lakes/903040_left.png,stimuli/lakes/903040_right.png,,,,0,78,78,40,1,,,,,
,,,,,,$5eb035358c62bb09069a842f,2020-07-20_09h40.34.323,fisher_task,2020.1.3,Win32,60,0.114634146,-0.28902439,1,0,0,2.51593,scale,,,,,,0.302267034,0.244948974,0.2468,0.2,stimuli/lakes/603028_left.png,stimuli/lakes/603028_right.png,,,,0,79,79,28,1,,,,,
,,,,,,$5eb035358c62bb09069a842f,2020-07-20_09h40.34.323,fisher_task,2020.1.3,Win32,60,-0.152439024,-0.441463415,1,0,0,1.132725,scale,,,,,,0.21373507,0.173205081,0.326485712,0.264575131,stimuli/lakes/3090121_left.png,stimuli/lakes/3090121_right.png,,,,0,80,80,121,1,,,,,
,,,,,,$5eb035358c62bb09069a842f,2020-07-20_09h40.34.323,fisher_task,2020.1.3,Win32,60,-0.163414634,-0.429268293,1,0,0,1.066485,scale,,,,,,0.275930788,0.223606798,0.275930788,0.223606798,stimuli/lakes/5080113_left.png,stimuli/lakes/5080113_right.png,,,,0,81,81,113,1,,,,,
,,,,,,$5eb035358c62bb09069a842f,2020-07-20_09h40.34.323,fisher_task,2020.1.3,Win32,60,-0.474390244,-0.380487805,1,0,0,3.08302,scale,,,,,,0.21373507,0.173205081,0.326485712,0.264575131,stimuli/lakes/3080110_left.png,stimuli/lakes/3080110_right.png,,,,0,82,82,110,1,,,,,
,,,,,,$5eb035358c62bb09069a842f,2020-07-20_09h40.34.323,fisher_task,2020.1.3,Win32,60,0.07195122,-0.275609756,1,0,0,1.58354,scale,,,,,,0.1234,0.1,0.3702,0.3,stimuli/lakes/106071_left.png,stimuli/lakes/106071_right.png,,,,0,83,83,71,1,,,,,
,,,,,,$5eb035358c62bb09069a842f,2020-07-20_09h40.34.323,fisher_task,2020.1.3,Win32,60,-0.057317073,-0.297560976,1,0,0,1.283045,scale,,,,,,0.326485712,0.264575131,0.21373507,0.173205081,stimuli/lakes/704056_left.png,stimuli/lakes/704056_right.png,,,,0,84,84,56,1,,,,,
,,,,,,$5eb035358c62bb09069a842f,2020-07-20_09h40.34.323,fisher_task,2020.1.3,Win32,60,0.086585366,-0.28902439,1,0,0,1.54993,scale,,,,,,0.21373507,0.173205081,0.326485712,0.264575131,stimuli/lakes/306082_left.png,stimuli/lakes/306082_right.png,,,,0,85,85,82,1,,,,,
,,,,,,$5eb035358c62bb09069a842f,2020-07-20_09h40.34.323,fisher_task,2020.1.3,Win32,60,0.170731707,-0.42804878,1,0,0,1.2995,scale,,,,,,0.1234,0.1,0.3702,0.3,stimuli/lakes/103032_left.png,stimuli/lakes/103032_right.png,,,,0,86,86,32,1,,,,,
,,,,,,$5eb035358c62bb09069a842f,2020-07-20_09h40.34.323,fisher_task,2020.1.3,Win32,60,-0.104878049,-0.314634146,1,0,0,1.466555,scale,,,,,,0.349027907,0.282842712,0.174513954,0.141421356,stimuli/lakes/804057_left.png,stimuli/lakes/804057_right.png,,,,0,87,87,57,1,,,,,
,,,,,,$5eb035358c62bb09069a842f,2020-07-20_09h40.34.323,fisher_task,2020.1.3,Win32,60,0.058536585,-0.267073171,1,0,0,1.53251,scale,,,,,,0.3702,0.3,0.1234,0.1,stimuli/lakes/901010_left.png,stimuli/lakes/901010_right.png,,,space,0,88,88,10,1,0.951455,,,,
,,,,,,$5eb035358c62bb09069a842f,2020-07-20_09h40.34.323,fisher_task,2020.1.3,Win32,60,-0.096341463,-0.304878049,1,0,0,1.58313,scale,,,,,,0.3702,0.3,0.1234,0.1,stimuli/lakes/904049_left.png,stimuli/lakes/904049_right.png,,,,0,89,89,49,1,,,,,
,,,,,,$5eb035358c62bb09069a842f,2020-07-20_09h40.34.323,fisher_task,2020.1.3,Win32,60,-0.147560976,-0.43902439,1,0,0,1.39972,scale,,,,,,0.174513954,0.141421356,0.349027907,0.282842712,stimuli/lakes/2080108_left.png,stimuli/lakes/2080108_right.png,,,,0,90,90,108,1,,,,,
,,,,,,$5eb035358c62bb09069a842f,2020-07-20_09h40.34.323,fisher_task,2020.1.3,Win32,60,0.086585366,-0.284146341,1,0,0,1.6828,scale,,,,,,0.275930788,0.223606798,0.275930788,0.223606798,stimuli/lakes/504045_left.png,stimuli/lakes/504045_right.png,,,,0,91,91,45,1,,,,,
,,,,,,$5eb035358c62bb09069a842f,2020-07-20_09h40.34.323,fisher_task,2020.1.3,Win32,60,0.097560976,-0.275609756,1,0,0,1.3498,scale,,,,,,0.174513954,0.141421356,0.349027907,0.282842712,stimuli/lakes/206081_left.png,stimuli/lakes/206081_right.png,,,,0,92,92,81,1,,,,,
,,,,,,$5eb035358c62bb09069a842f,2020-07-20_09h40.34.323,fisher_task,2020.1.3,Win32,60,-0.086585366,-0.303658537,1,0,0,1.23285,scale,,,,,,0.326485712,0.264575131,0.21373507,0.173205081,stimuli/lakes/707095_left.png,stimuli/lakes/707095_right.png,,,,0,93,93,95,1,,,,,
,,,,,,$5eb035358c62bb09069a842f,2020-07-20_09h40.34.323,fisher_task,2020.1.3,Win32,60,0.042682927,-0.262195122,1,0,0,1.599835,scale,,,,,,0.3702,0.3,0.1234,0.1,stimuli/lakes/902022_left.png,stimuli/lakes/902022_right.png,,,,0,94,94,22,1,,,,,
,,,,,,$5eb035358c62bb09069a842f,2020-07-20_09h40.34.323,fisher_task,2020.1.3,Win32,60,0.123170732,-0.318292683,1,0,0,1.43331,scale,,,,,,0.2468,0.2,0.302267034,0.244948974,stimuli/lakes/405064_left.png,stimuli/lakes/405064_right.png,,,,0,95,95,64,1,,,,,
,,,,,,$5eb035358c62bb09069a842f,2020-07-20_09h40.34.323,fisher_task,2020.1.3,Win32,60,-0.135365854,-0.348780488,1,0,0,1.46617,scale,,,,,,0.3702,0.3,0.1234,0.1,stimuli/lakes/906088_left.png,stimuli/lakes/906088_right.png,,,,0,96,96,88,1,,,,,
,,,,,,$5eb035358c62bb09069a842f,2020-07-20_09h40.34.323,fisher_task,2020.1.3,Win32,60,-0.163414634,-0.423170732,1,0,0,3.16655,scale,,,,,,0.326485712,0.264575131,0.21373507,0.173205081,stimuli/lakes/7080117_left.png,stimuli/lakes/7080117_right.png,,,,0,97,97,117,1,,,,,
,,,,,,$5eb035358c62bb09069a842f,2020-07-20_09h40.34.323,fisher_task,2020.1.3,Win32,60,0.447560976,-0.175609756,1,0,0,3.416315,scale,,,,,,0.326485712,0.264575131,0.21373507,0.173205081,stimuli/lakes/703029_left.png,stimuli/lakes/703029_right.png,,,,0,98,98,29,1,,,,,
,,,,,,$5eb035358c62bb09069a842f,2020-07-20_09h40.34.323,fisher_task,2020.1.3,Win32,60,-0.046341463,-0.263414634,1,0,0,1.266525,scale,,,,,,0.349027907,0.282842712,0.174513954,0.141421356,stimuli/lakes/803030_left.png,stimuli/lakes/803030_right.png,,,,0,99,99,30,1,,,,,
,,,,,,$5eb035358c62bb09069a842f,2020-07-20_09h40.34.323,fisher_task,2020.1.3,Win32,60,-0.163414634,-0.431707317,1,0,0,1.06642,scale,,,,,,0.275930788,0.223606798,0.275930788,0.223606798,stimuli/lakes/5090125_left.png,stimuli/lakes/5090125_right.png,,,,0,100,100,125,1,,,,,
,,,,,,$5eb035358c62bb09069a842f,2020-07-20_09h40.34.323,fisher_task,2020.1.3,Win32,60,0.052439024,-0.27195122,1,0,0,1.56606,scale,,,,,,0.326485712,0.264575131,0.21373507,0.173205081,stimuli/lakes/703038_left.png,stimuli/lakes/703038_right.png,,,,0,101,101,38,1,,,,,
,,,,,,$5eb035358c62bb09069a842f,2020-07-20_09h40.34.323,fisher_task,2020.1.3,Win32,60,-0.137804878,-0.345121951,1,0,0,4.466195,scale,,,,,,0.1234,0.1,0.3702,0.3,stimuli/lakes/107098_left.png,stimuli/lakes/107098_right.png,,,,0,102,102,98,1,,,,,
,,,,,,$5eb035358c62bb09069a842f,2020-07-20_09h40.34.323,fisher_task,2020.1.3,Win32,60,0.131707317,-0.330487805,1,0,0,2.33389,scale,,,,,,0.349027907,0.282842712,0.174513954,0.141421356,stimuli/lakes/80109_left.png,stimuli/lakes/80109_right.png,,,,0,103,103,9,1,,,,,
,,,,,,$5eb035358c62bb09069a842f,2020-07-20_09h40.34.323,fisher_task,2020.1.3,Win32,60,-0.123170732,-0.340243902,1,0,0,1.716875,scale,,,,,,0.2468,0.2,0.302267034,0.244948974,stimuli/lakes/4090123_left.png,stimuli/lakes/4090123_right.png,,,,0,104,104,123,1,,,,,
,,,,,,$5eb035358c62bb09069a842f,2020-07-20_09h40.34.323,fisher_task,2020.1.3,Win32,60,-0.153658537,-0.414634146,1,0,0,1.13332,scale,,,,,,0.3702,0.3,0.1234,0.1,stimuli/lakes/9070106_left.png,stimuli/lakes/9070106_right.png,,,,0,105,105,106,1,,,,,
,,,,,,$5eb035358c62bb09069a842f,2020-07-20_09h40.34.323,fisher_task,2020.1.3,Win32,60,0.145121951,-0.319512195,1,0,0,1.09936,scale,,,,,,0.174513954,0.141421356,0.349027907,0.282842712,stimuli/lakes/205060_left.png,stimuli/lakes/205060_right.png,,,,0,106,106,60,1,,,,,
,,,,,,$5eb035358c62bb09069a842f,2020-07-20_09h40.34.323,fisher_task,2020.1.3,Win32,60,0.132926829,-0.345121951,1,0,0,8.59927,scale,,,,,,0.275930788,0.223606798,0.275930788,0.223606798,stimuli/lakes/502016_left.png,stimuli/lakes/502016_right.png,,,,0,107,107,16,1,,,,,
,,,,,,$5eb035358c62bb09069a842f,2020-07-20_09h40.34.323,fisher_task,2020.1.3,Win32,60,-0.084146341,-0.281707317,1,0,0,1.66627,scale,,,,,,0.326485712,0.264575131,0.21373507,0.173205081,stimuli/lakes/704047_left.png,stimuli/lakes/704047_right.png,,,,0,108,108,47,1,,,,,
,,,,,,$5eb035358c62bb09069a842f,2020-07-20_09h40.34.323,fisher_task,2020.1.3,Win32,60,0.156097561,-0.323170732,1,0,0,1.04974,scale,,,,,,0.21373507,0.173205081,0.326485712,0.264575131,stimuli/lakes/304052_left.png,stimuli/lakes/304052_right.png,,,,0,109,109,52,1,,,,,
,,,,,,$5eb035358c62bb09069a842f,2020-07-20_09h40.34.323,fisher_task,2020.1.3,Win32,60,-0.082926829,-0.269512195,1,0,0,1.58299,scale,,,,,,0.302267034,0.244948974,0.2468,0.2,stimuli/lakes/604046_left.png,stimuli/lakes/604046_right.png,,,space,0,110,110,46,1,14.45794,,,,
,,,,,,$5eb035358c62bb09069a842f,2020-07-20_09h40.34.323,fisher_task,2020.1.3,Win32,60,0.045121951,-0.264634146,1,0,0,1.53244,scale,,,,,,0.21373507,0.173205081,0.326485712,0.264575131,stimuli/lakes/307091_left.png,stimuli/lakes/307091_right.png,,,,0,111,111,91,1,,,,,
,,,,,,$5eb035358c62bb09069a842f,2020-07-20_09h40.34.323,fisher_task,2020.1.3,Win32,60,-0.08902439,-0.314634146,1,0,0,1.349685,scale,,,,,,0.3702,0.3,0.1234,0.1,stimuli/lakes/906079_left.png,stimuli/lakes/906079_right.png,,,,0,112,112,79,1,,,,,
,,,,,,$5eb035358c62bb09069a842f,2020-07-20_09h40.34.323,fisher_task,2020.1.3,Win32,60,0.079268293,-0.306097561,1,0,0,1.23271,scale,,,,,,0.2468,0.2,0.302267034,0.244948974,stimuli/lakes/406074_left.png,stimuli/lakes/406074_right.png,,,,0,113,113,74,1,,,,,
,,,,,,$5eb035358c62bb09069a842f,2020-07-20_09h40.34.323,fisher_task,2020.1.3,Win32,60,0.140243902,-0.354878049,1,0,0,1.29932,scale,,,,,,0.302267034,0.244948974,0.2468,0.2,stimuli/lakes/60105_left.png,stimuli/lakes/60105_right.png,,,,0,114,114,5,1,,,,,
,,,,,,$5eb035358c62bb09069a842f,2020-07-20_09h40.34.323,fisher_task,2020.1.3,Win32,60,-0.154878049,-0.324390244,1,0,0,0.999325,scale,,,,,,0.326485712,0.264575131,0.21373507,0.173205081,stimuli/lakes/706077_left.png,stimuli/lakes/706077_right.png,,,,0,115,115,77,1,,,,,
,,,,,,$5eb035358c62bb09069a842f,2020-07-20_09h40.34.323,fisher_task,2020.1.3,Win32,60,-0.076829268,-0.27195122,1,0,0,2.04972,scale,,,,,,0.1234,0.1,0.3702,0.3,stimuli/lakes/107089_left.png,stimuli/lakes/107089_right.png,,,,0,116,116,89,1,,,,,
,,,,,,$5eb035358c62bb09069a842f,2020-07-20_09h40.34.323,fisher_task,2020.1.3,Win32,60,0.115853659,-0.303658537,1,0,0,1.64963,scale,,,,,,0.174513954,0.141421356,0.349027907,0.282842712,stimuli/lakes/204051_left.png,stimuli/lakes/204051_right.png,,,,0,117,117,51,1,,,,,
,,,,,,$5eb035358c62bb09069a842f,2020-07-20_09h40.34.323,fisher_task,2020.1.3,Win32,60,0.091463415,-0.287804878,1,0,0,9.95009,scale,,,,,,0.302267034,0.244948974,0.2468,0.2,stimuli/lakes/604055_left.png,stimuli/lakes/604055_right.png,,,,0,118,118,55,1,,,,,
,,,,,,$5eb035358c62bb09069a842f,2020-07-20_09h40.34.323,fisher_task,2020.1.3,Win32,60,0.153658537,-0.436585366,1,0,0,1.19975,scale,,,,,,0.21373507,0.173205081,0.326485712,0.264575131,stimuli/lakes/30101_left.png,stimuli/lakes/30101_right.png,,,,0,119,119,1,1,,,,,
,,,,,,$5eb035358c62bb09069a842f,2020-07-20_09h40.34.323,fisher_task,2020.1.3,Win32,60,0.12195122,-0.303658537,1,0,0,1.16672,scale,,,,,,0.174513954,0.141421356,0.349027907,0.282842712,stimuli/lakes/203024_left.png,stimuli/lakes/203024_right.png,,,,0,120,120,24,1,,,,,
,,,,,,$5eb035358c62bb09069a842f,2020-07-20_09h40.34.323,fisher_task,2020.1.3,Win32,60,0.151219512,-0.370731707,1,0,0,0.94988,scale,,,,,,0.2468,0.2,0.302267034,0.244948974,stimuli/lakes/402015_left.png,stimuli/lakes/402015_right.png,,,,0,121,121,15,1,,,,,
,,,,,,$5eb035358c62bb09069a842f,2020-07-20_09h40.34.323,fisher_task,2020.1.3,Win32,60,-0.124390244,-0.330487805,1,0,0,51.449775,scale,,,,,,0.349027907,0.282842712,0.174513954,0.141421356,stimuli/lakes/806087_left.png,stimuli/lakes/806087_right.png,,,,0,122,122,87,1,,,,,
,,,,,,$5eb035358c62bb09069a842f,2020-07-20_09h40.34.323,fisher_task,2020.1.3,Win32,60,0.125609756,-0.319512195,1,0,0,1.24939,scale,,,,,,0.1234,0.1,0.3702,0.3,stimuli/lakes/104041_left.png,stimuli/lakes/104041_right.png,,,,0,123,123,41,1,,,,,
,,,,,,$5eb035358c62bb09069a842f,2020-07-20_09h40.34.323,fisher_task,2020.1.3,Win32,60,-0.017073171,-0.256097561,1,0,0,4.366145,scale,,,,,,0.1234,0.1,0.3702,0.3,stimuli/lakes/105059_left.png,stimuli/lakes/105059_right.png,,,,0,124,124,59,1,,,,,
,,,,,,$5eb035358c62bb09069a842f,2020-07-20_09h40.34.323,fisher_task,2020.1.3,Win32,60,0.131707317,-0.347560976,1,0,0,1.35016,scale,,,,,,0.1234,0.1,0.3702,0.3,stimuli/lakes/103023_left.png,stimuli/lakes/103023_right.png,,,,0,125,125,23,1,,,,,
,,,,,,$5eb035358c62bb09069a842f,2020-07-20_09h40.34.323,fisher_task,2020.1.3,Win32,60,0.16097561,-0.4,1,0,0,1.182655,scale,,,,,,0.174513954,0.141421356,0.349027907,0.282842712,stimuli/lakes/202011_left.png,stimuli/lakes/202011_right.png,,,,0,126,126,11,1,,,,,
,,,,,,$5eb035358c62bb09069a842f,2020-07-20_09h40.34.323,fisher_task,2020.1.3,Win32,60,0.17195122,-0.417073171,1,0,0,1.34941,scale,,,,,,0.275930788,0.223606798,0.275930788,0.223606798,stimuli/lakes/504054_left.png,stimuli/lakes/504054_right.png,,,,0,127,127,54,1,,,,,
,,,,,,$5eb035358c62bb09069a842f,2020-07-20_09h40.34.323,fisher_task,2020.1.3,Win32,60,-0.120731707,-0.320731707,1,0,0,1.832745,scale,,,,,,0.1234,0.1,0.3702,0.3,stimuli/lakes/1090119_left.png,stimuli/lakes/1090119_right.png,,,,0,128,128,119,1,,,,,
,,,,,,$5eb035358c62bb09069a842f,2020-07-20_09h40.34.323,fisher_task,2020.1.3,Win32,60,-0.086585366,-0.304878049,1,0,0,4.266625,scale,,,,,,0.3702,0.3,0.1234,0.1,stimuli/lakes/905070_left.png,stimuli/lakes/905070_right.png,,,,0,129,129,70,1,,,,,
,,,,,,$5eb035358c62bb09069a842f,2020-07-20_09h40.34.323,fisher_task,2020.1.3,Win32,60,,,,,,,,,,,,,,,,,,,,,,,,,,,,space,8.263315,space,3.226465
