keySpace.keys,instructions.thisRepN,instructions.thisTrialN,instructions.thisN,instructions.thisIndex,instructions.ran,participant,date,expName,psychopyVersion,OS,frameRate,mouse.x,mouse.y,mouse.leftButton,mouse.midButton,mouse.rightButton,mouse.time,mouse.clicked_name,training.thisRepN,training.thisTrialN,training.thisN,training.thisIndex,training.ran,widthBasketLeft,heightBasketLeft,widthBasketRight,heightBasketRight,leftLake,rightLake,space2.keys,space2.rt,space1.keys,trials.thisRepN,trials.thisTrialN,trials.thisN,trials.thisIndex,trials.ran,space1.rt,finalSpace1.keys,finalSpace1.rt,finalSpace2.keys,finalSpace2.rt
,0,0,0,0,1,$5ed2c06278a1230d37296bb4,2020-07-20_14h39.35.887,fisher_task,2020.1.3,MacIntel,60,,,,,,,,,,,,,,,,,,,,,,,,,,,,,,,
,,,,,,$5ed2c06278a1230d37296bb4,2020-07-20_14h39.35.887,fisher_task,2020.1.3,MacIntel,60,0.122473958,-0.323706597,1,0,0,2.451,scale,0,0,0,0,1,0.275930788,0.223606798,0.275930788,0.223606798,stimuli/training/20_left.png,stimuli/training/20_right.png,,,,,,,,,,,,,
,,,,,,$5ed2c06278a1230d37296bb4,2020-07-20_14h39.35.887,fisher_task,2020.1.3,MacIntel,60,-0.134110243,-0.324201389,1,0,0,2.13593,scale,0,1,1,1,1,0.275930788,0.223606798,0.275930788,0.223606798,stimuli/training/80_left.png,stimuli/training/80_right.png,,,,,,,,,,,,,
,,,,,,$5ed2c06278a1230d37296bb4,2020-07-20_14h39.35.887,fisher_task,2020.1.3,MacIntel,60,0.191757813,-0.432300347,1,0,0,2.38267,scale,0,2,2,2,1,0.174513954,0.141421356,0.349027907,0.282842712,stimuli/training/50_left.png,stimuli/training/50_right.png,,,,,,,,,,,,,
,,,,,,$5ed2c06278a1230d37296bb4,2020-07-20_14h39.35.887,fisher_task,2020.1.3,MacIntel,60,-0.015694444,-0.261918403,1,0,0,6.63451,scale,0,3,3,3,1,0.349027907,0.282842712,0.174513954,0.141421356,stimuli/training/50_left.png,stimuli/training/50_right.png,,,,,,,,,,,,,
,,,,,,$5ed2c06278a1230d37296bb4,2020-07-20_14h39.35.887,fisher_task,2020.1.3,MacIntel,60,0.159431424,-0.411966146,1,0,0,4.11677,scale,0,4,4,4,1,0.275930788,0.223606798,0.275930788,0.223606798,stimuli/training/50_left.png,stimuli/training/50_right.png,,,,,,,,,,,,,
,,,,,,$5ed2c06278a1230d37296bb4,2020-07-20_14h39.35.887,fisher_task,2020.1.3,MacIntel,60,0.159431424,-0.411966146,1,0,0,1.70024,scale,0,5,5,5,1,0.174513954,0.141421356,0.349027907,0.282842712,stimuli/training/20_left.png,stimuli/training/20_right.png,,,,,,,,,,,,,
,,,,,,$5ed2c06278a1230d37296bb4,2020-07-20_14h39.35.887,fisher_task,2020.1.3,MacIntel,60,-0.162699653,-0.416710069,1,0,0,1.41491,scale,0,6,6,6,1,0.349027907,0.282842712,0.174513954,0.141421356,stimuli/training/80_left.png,stimuli/training/80_right.png,,,,,,,,,,,,,
,,,,,,$5ed2c06278a1230d37296bb4,2020-07-20_14h39.35.887,fisher_task,2020.1.3,MacIntel,60,0.121948785,-0.289262153,1,0,0,3.317985,scale,0,7,7,7,1,0.1234,0.1,0.3702,0.3,stimuli/training/30_left.png,stimuli/training/30_right.png,,,,,,,,,,,,,
,,,,,,$5ed2c06278a1230d37296bb4,2020-07-20_14h39.35.887,fisher_task,2020.1.3,MacIntel,60,-0.146905382,-0.406948785,1,0,0,1.499745,scale,0,8,8,8,1,0.3702,0.3,0.1234,0.1,stimuli/training/70_left.png,stimuli/training/70_right.png,,,,,,,,,,,,,
,,,,,,$5ed2c06278a1230d37296bb4,2020-07-20_14h39.35.887,fisher_task,2020.1.3,MacIntel,60,-0.117118056,-0.324422743,1,0,0,3.23322,scale,0,9,9,9,1,0.326485712,0.264575131,0.21373507,0.173205081,stimuli/training/90_left.png,stimuli/training/90_right.png,,,,,,,,,,,,,
,,,,,,$5ed2c06278a1230d37296bb4,2020-07-20_14h39.35.887,fisher_task,2020.1.3,MacIntel,60,0.161996528,-0.415607639,1,0,0,2.200895,scale,0,10,10,10,1,0.21373507,0.173205081,0.326485712,0.264575131,stimuli/training/10_left.png,stimuli/training/10_right.png,,,,,,,,,,,,,
,,,,,,$5ed2c06278a1230d37296bb4,2020-07-20_14h39.35.887,fisher_task,2020.1.3,MacIntel,60,-0.142721354,-0.32984375,1,0,0,2.60041,scale,,,,,,0.326485712,0.264575131,0.21373507,0.173205081,stimuli/lakes/705067_left.png,stimuli/lakes/705067_right.png,space,6.68344,,0,0,0,67,1,,,,,
,,,,,,$5ed2c06278a1230d37296bb4,2020-07-20_14h39.35.887,fisher_task,2020.1.3,MacIntel,60,-0.005299479,-0.261979167,1,0,0,4.400455,scale,,,,,,0.2468,0.2,0.302267034,0.244948974,stimuli/lakes/4070101_left.png,stimuli/lakes/4070101_right.png,,,,0,1,1,101,1,,,,,
,,,,,,$5ed2c06278a1230d37296bb4,2020-07-20_14h39.35.887,fisher_task,2020.1.3,MacIntel,60,-0.013268229,-0.234166667,1,0,0,4.46635,scale,,,,,,0.1234,0.1,0.3702,0.3,stimuli/lakes/107089_left.png,stimuli/lakes/107089_right.png,,,,0,2,2,89,1,,,,,
,,,,,,$5ed2c06278a1230d37296bb4,2020-07-20_14h39.35.887,fisher_task,2020.1.3,MacIntel,60,0.135972222,-0.321306424,1,0,0,4.58268,scale,,,,,,0.2468,0.2,0.302267034,0.244948974,stimuli/lakes/405064_left.png,stimuli/lakes/405064_right.png,,,,0,3,3,64,1,,,,,
,,,,,,$5ed2c06278a1230d37296bb4,2020-07-20_14h39.35.887,fisher_task,2020.1.3,MacIntel,60,0.144509549,-0.384661458,1,0,0,3.34927,scale,,,,,,0.21373507,0.173205081,0.326485712,0.264575131,stimuli/lakes/305061_left.png,stimuli/lakes/305061_right.png,,,,0,4,4,61,1,,,,,
,,,,,,$5ed2c06278a1230d37296bb4,2020-07-20_14h39.35.887,fisher_task,2020.1.3,MacIntel,60,-0.135290799,-0.338324653,1,0,0,6.13207,scale,,,,,,0.275930788,0.223606798,0.275930788,0.223606798,stimuli/lakes/5070102_left.png,stimuli/lakes/5070102_right.png,,,,0,5,5,102,1,,,,,
,,,,,,$5ed2c06278a1230d37296bb4,2020-07-20_14h39.35.887,fisher_task,2020.1.3,MacIntel,60,-0.172825521,-0.431137153,1,0,0,1.66652,scale,,,,,,0.3702,0.3,0.1234,0.1,stimuli/lakes/906079_left.png,stimuli/lakes/906079_right.png,,,,0,6,6,79,1,,,,,
,,,,,,$5ed2c06278a1230d37296bb4,2020-07-20_14h39.35.887,fisher_task,2020.1.3,MacIntel,60,0.007582465,-0.251054687,1,0,0,2.48236,scale,,,,,,0.326485712,0.264575131,0.21373507,0.173205081,stimuli/lakes/702019_left.png,stimuli/lakes/702019_right.png,,,,0,7,7,19,1,,,,,
,,,,,,$5ed2c06278a1230d37296bb4,2020-07-20_14h39.35.887,fisher_task,2020.1.3,MacIntel,60,-0.019869792,-0.257508681,1,0,0,4.650615,scale,,,,,,0.326485712,0.264575131,0.21373507,0.173205081,stimuli/lakes/704047_left.png,stimuli/lakes/704047_right.png,,,,0,8,8,47,1,,,,,
,,,,,,$5ed2c06278a1230d37296bb4,2020-07-20_14h39.35.887,fisher_task,2020.1.3,MacIntel,60,0.146827257,-0.367682292,1,0,0,1.615855,scale,,,,,,0.174513954,0.141421356,0.349027907,0.282842712,stimuli/lakes/204051_left.png,stimuli/lakes/204051_right.png,,,,0,9,9,51,1,,,,,
,,,,,,$5ed2c06278a1230d37296bb4,2020-07-20_14h39.35.887,fisher_task,2020.1.3,MacIntel,60,-0.011644965,-0.252178819,1,0,0,2.333095,scale,,,,,,0.21373507,0.173205081,0.326485712,0.264575131,stimuli/lakes/3090122_left.png,stimuli/lakes/3090122_right.png,,,,0,10,10,122,1,,,,,
,,,,,,$5ed2c06278a1230d37296bb4,2020-07-20_14h39.35.887,fisher_task,2020.1.3,MacIntel,60,0.063958333,-0.274830729,1,0,0,4.93294,scale,,,,,,0.3702,0.3,0.1234,0.1,stimuli/lakes/904049_left.png,stimuli/lakes/904049_right.png,,,,0,11,11,49,1,,,,,
,,,,,,$5ed2c06278a1230d37296bb4,2020-07-20_14h39.35.887,fisher_task,2020.1.3,MacIntel,60,-0.200273438,-0.419631076,1,0,0,2.332475,scale,,,,,,0.3702,0.3,0.1234,0.1,stimuli/lakes/9070106_left.png,stimuli/lakes/9070106_right.png,,,,0,12,12,106,1,,,,,
,,,,,,$5ed2c06278a1230d37296bb4,2020-07-20_14h39.35.887,fisher_task,2020.1.3,MacIntel,60,0.184396701,-0.433229167,1,0,0,3.916305,scale,,,,,,0.275930788,0.223606798,0.275930788,0.223606798,stimuli/lakes/503036_left.png,stimuli/lakes/503036_right.png,,,,0,13,13,36,1,,,,,
,,,,,,$5ed2c06278a1230d37296bb4,2020-07-20_14h39.35.887,fisher_task,2020.1.3,MacIntel,60,0.193667535,-0.439878472,1,0,0,4.76744,scale,,,,,,0.2468,0.2,0.302267034,0.244948974,stimuli/lakes/40103_left.png,stimuli/lakes/40103_right.png,,,,0,14,14,3,1,,,,,
,,,,,,$5ed2c06278a1230d37296bb4,2020-07-20_14h39.35.887,fisher_task,2020.1.3,MacIntel,60,-0.001831597,-0.213138021,1,0,0,2.03257,scale,,,,,,0.1234,0.1,0.3702,0.3,stimuli/lakes/1090119_left.png,stimuli/lakes/1090119_right.png,,,,0,15,15,119,1,,,,,
,,,,,,$5ed2c06278a1230d37296bb4,2020-07-20_14h39.35.887,fisher_task,2020.1.3,MacIntel,60,0.053767361,-0.205915799,1,0,0,2.299695,scale,,,,,,0.2468,0.2,0.302267034,0.244948974,stimuli/lakes/406083_left.png,stimuli/lakes/406083_right.png,,,,0,16,16,83,1,,,,,
,,,,,,$5ed2c06278a1230d37296bb4,2020-07-20_14h39.35.887,fisher_task,2020.1.3,MacIntel,60,0.197400174,-0.34859375,1,0,0,2.598555,scale,,,,,,0.1234,0.1,0.3702,0.3,stimuli/lakes/104041_left.png,stimuli/lakes/104041_right.png,,,,0,17,17,41,1,,,,,
,,,,,,$5ed2c06278a1230d37296bb4,2020-07-20_14h39.35.887,fisher_task,2020.1.3,MacIntel,60,0.181892361,-0.304435764,1,0,0,2.532295,scale,,,,,,0.21373507,0.173205081,0.326485712,0.264575131,stimuli/lakes/305062_left.png,stimuli/lakes/305062_right.png,,,,0,18,18,62,1,,,,,
,,,,,,$5ed2c06278a1230d37296bb4,2020-07-20_14h39.35.887,fisher_task,2020.1.3,MacIntel,60,0.217556424,-0.409774306,1,0,0,1.58649,scale,,,,,,0.21373507,0.173205081,0.326485712,0.264575131,stimuli/lakes/302013_left.png,stimuli/lakes/302013_right.png,,,,0,19,19,13,1,,,,,
,,,,,,$5ed2c06278a1230d37296bb4,2020-07-20_14h39.35.887,fisher_task,2020.1.3,MacIntel,60,0.195143229,-0.411488715,1,0,0,1.949795,scale,,,,,,0.21373507,0.173205081,0.326485712,0.264575131,stimuli/lakes/304043_left.png,stimuli/lakes/304043_right.png,,,,0,20,20,43,1,,,,,
,,,,,,$5ed2c06278a1230d37296bb4,2020-07-20_14h39.35.887,fisher_task,2020.1.3,MacIntel,60,0.192530382,-0.424375,1,0,0,1.217255,scale,,,,,,0.2468,0.2,0.302267034,0.244948974,stimuli/lakes/404053_left.png,stimuli/lakes/404053_right.png,,,,0,21,21,53,1,,,,,
,,,,,,$5ed2c06278a1230d37296bb4,2020-07-20_14h39.35.887,fisher_task,2020.1.3,MacIntel,60,-0.040017361,-0.192118056,1,0,0,2.583485,scale,,,,,,0.1234,0.1,0.3702,0.3,stimuli/lakes/1080107_left.png,stimuli/lakes/1080107_right.png,,,space,0,22,22,107,1,5.27041,,,,
,,,,,,$5ed2c06278a1230d37296bb4,2020-07-20_14h39.35.887,fisher_task,2020.1.3,MacIntel,60,-0.185355903,-0.417756076,1,0,0,1.48394,scale,,,,,,0.275930788,0.223606798,0.275930788,0.223606798,stimuli/lakes/507093_left.png,stimuli/lakes/507093_right.png,,,,0,23,23,93,1,,,,,
,,,,,,$5ed2c06278a1230d37296bb4,2020-07-20_14h39.35.887,fisher_task,2020.1.3,MacIntel,60,-0.002265625,-0.267087674,1,0,0,2.15137,scale,,,,,,0.21373507,0.173205081,0.326485712,0.264575131,stimuli/lakes/307091_left.png,stimuli/lakes/307091_right.png,,,,0,24,24,91,1,,,,,
,,,,,,$5ed2c06278a1230d37296bb4,2020-07-20_14h39.35.887,fisher_task,2020.1.3,MacIntel,60,0.047452257,-0.253042535,1,0,0,2.117305,scale,,,,,,0.302267034,0.244948974,0.2468,0.2,stimuli/lakes/603037_left.png,stimuli/lakes/603037_right.png,,,,0,25,25,37,1,,,,,
,,,,,,$5ed2c06278a1230d37296bb4,2020-07-20_14h39.35.887,fisher_task,2020.1.3,MacIntel,60,-0.176388889,-0.391631944,1,0,0,2.46647,scale,,,,,,0.302267034,0.244948974,0.2468,0.2,stimuli/lakes/606076_left.png,stimuli/lakes/606076_right.png,,,,0,26,26,76,1,,,,,
,,,,,,$5ed2c06278a1230d37296bb4,2020-07-20_14h39.35.887,fisher_task,2020.1.3,MacIntel,60,0.207382813,-0.400112847,1,0,0,2.216435,scale,,,,,,0.174513954,0.141421356,0.349027907,0.282842712,stimuli/lakes/204042_left.png,stimuli/lakes/204042_right.png,,,,0,27,27,42,1,,,,,
,,,,,,$5ed2c06278a1230d37296bb4,2020-07-20_14h39.35.887,fisher_task,2020.1.3,MacIntel,60,0.147673611,-0.358094618,1,0,0,3.016115,scale,,,,,,0.275930788,0.223606798,0.275930788,0.223606798,stimuli/lakes/504045_left.png,stimuli/lakes/504045_right.png,,,,0,28,28,45,1,,,,,
,,,,,,$5ed2c06278a1230d37296bb4,2020-07-20_14h39.35.887,fisher_task,2020.1.3,MacIntel,60,-0.062526042,-0.271015625,1,0,0,2.03366,scale,,,,,,0.174513954,0.141421356,0.349027907,0.282842712,stimuli/lakes/2090120_left.png,stimuli/lakes/2090120_right.png,,,,0,29,29,120,1,,,,,
,,,,,,$5ed2c06278a1230d37296bb4,2020-07-20_14h39.35.887,fisher_task,2020.1.3,MacIntel,60,-0.125664063,-0.312803819,1,0,0,2.215575,scale,,,,,,0.1234,0.1,0.3702,0.3,stimuli/lakes/107098_left.png,stimuli/lakes/107098_right.png,,,,0,30,30,98,1,,,,,
,,,,,,$5ed2c06278a1230d37296bb4,2020-07-20_14h39.35.887,fisher_task,2020.1.3,MacIntel,60,-0.039275174,-0.261914062,1,0,0,1.26739,scale,,,,,,0.326485712,0.264575131,0.21373507,0.173205081,stimuli/lakes/703038_left.png,stimuli/lakes/703038_right.png,,,,0,31,31,38,1,,,,,
,,,,,,$5ed2c06278a1230d37296bb4,2020-07-20_14h39.35.887,fisher_task,2020.1.3,MacIntel,60,0.133524306,-0.334782986,1,0,0,2.282755,scale,,,,,,0.2468,0.2,0.302267034,0.244948974,stimuli/lakes/405063_left.png,stimuli/lakes/405063_right.png,,,,0,32,32,63,1,,,,,
,,,,,,$5ed2c06278a1230d37296bb4,2020-07-20_14h39.35.887,fisher_task,2020.1.3,MacIntel,60,-0.154874132,-0.364787326,1,0,0,2.91657,scale,,,,,,0.349027907,0.282842712,0.174513954,0.141421356,stimuli/lakes/8070105_left.png,stimuli/lakes/8070105_right.png,,,,0,33,33,105,1,,,,,
,,,,,,$5ed2c06278a1230d37296bb4,2020-07-20_14h39.35.887,fisher_task,2020.1.3,MacIntel,60,0.167851562,-0.408098958,1,0,0,1.550485,scale,,,,,,0.21373507,0.173205081,0.326485712,0.264575131,stimuli/lakes/303034_left.png,stimuli/lakes/303034_right.png,,,,0,34,34,34,1,,,,,
,,,,,,$5ed2c06278a1230d37296bb4,2020-07-20_14h39.35.887,fisher_task,2020.1.3,MacIntel,60,-0.165455729,-0.41594184,1,0,0,1.44958,scale,,,,,,0.275930788,0.223606798,0.275930788,0.223606798,stimuli/lakes/5080113_left.png,stimuli/lakes/5080113_right.png,,,,0,35,35,113,1,,,,,
,,,,,,$5ed2c06278a1230d37296bb4,2020-07-20_14h39.35.887,fisher_task,2020.1.3,MacIntel,60,-0.068702257,-0.271588542,1,0,0,4.033355,scale,,,,,,0.21373507,0.173205081,0.326485712,0.264575131,stimuli/lakes/3080109_left.png,stimuli/lakes/3080109_right.png,,,,0,36,36,109,1,,,,,
,,,,,,$5ed2c06278a1230d37296bb4,2020-07-20_14h39.35.887,fisher_task,2020.1.3,MacIntel,60,-0.080386285,-0.272256944,1,0,0,2.33191,scale,,,,,,0.275930788,0.223606798,0.275930788,0.223606798,stimuli/lakes/506084_left.png,stimuli/lakes/506084_right.png,,,,0,37,37,84,1,,,,,
,,,,,,$5ed2c06278a1230d37296bb4,2020-07-20_14h39.35.887,fisher_task,2020.1.3,MacIntel,60,0.132261285,-0.330347222,1,0,0,2.783945,scale,,,,,,0.326485712,0.264575131,0.21373507,0.173205081,stimuli/lakes/702020_left.png,stimuli/lakes/702020_right.png,,,,0,38,38,20,1,,,,,
,,,,,,$5ed2c06278a1230d37296bb4,2020-07-20_14h39.35.887,fisher_task,2020.1.3,MacIntel,60,0.036267361,-0.237960069,1,0,0,1.984625,scale,,,,,,0.349027907,0.282842712,0.174513954,0.141421356,stimuli/lakes/803039_left.png,stimuli/lakes/803039_right.png,,,,0,39,39,39,1,,,,,
,,,,,,$5ed2c06278a1230d37296bb4,2020-07-20_14h39.35.887,fisher_task,2020.1.3,MacIntel,60,-0.17015625,-0.422790799,1,0,0,1.36667,scale,,,,,,0.302267034,0.244948974,0.2468,0.2,stimuli/lakes/6080114_left.png,stimuli/lakes/6080114_right.png,,,,0,40,40,114,1,,,,,
,,,,,,$5ed2c06278a1230d37296bb4,2020-07-20_14h39.35.887,fisher_task,2020.1.3,MacIntel,60,0.098016493,-0.294605035,1,0,0,4.466165,scale,,,,,,0.3702,0.3,0.1234,0.1,stimuli/lakes/903040_left.png,stimuli/lakes/903040_right.png,,,,0,41,41,40,1,,,,,
,,,,,,$5ed2c06278a1230d37296bb4,2020-07-20_14h39.35.887,fisher_task,2020.1.3,MacIntel,60,0.138029514,-0.423580729,1,0,0,3.434065,scale,,,,,,0.2468,0.2,0.302267034,0.244948974,stimuli/lakes/402015_left.png,stimuli/lakes/402015_right.png,,,,0,42,42,15,1,,,,,
,,,,,,$5ed2c06278a1230d37296bb4,2020-07-20_14h39.35.887,fisher_task,2020.1.3,MacIntel,60,-0.164826389,-0.422473958,1,0,0,1.683915,scale,,,,,,0.275930788,0.223606798,0.275930788,0.223606798,stimuli/lakes/5090125_left.png,stimuli/lakes/5090125_right.png,,,,0,43,43,125,1,,,,,
,,,,,,$5ed2c06278a1230d37296bb4,2020-07-20_14h39.35.887,fisher_task,2020.1.3,MacIntel,60,0.138359375,-0.424960938,1,0,0,3.315505,scale,,,,,,0.21373507,0.173205081,0.326485712,0.264575131,stimuli/lakes/302012_left.png,stimuli/lakes/302012_right.png,,,space,0,44,44,12,1,2.654065,,,,
,,,,,,$5ed2c06278a1230d37296bb4,2020-07-20_14h39.35.887,fisher_task,2020.1.3,MacIntel,60,0.142447917,-0.337634549,1,0,0,2.04884,scale,,,,,,0.275930788,0.223606798,0.275930788,0.223606798,stimuli/lakes/502016_left.png,stimuli/lakes/502016_right.png,,,,0,45,45,16,1,,,,,
,,,,,,$5ed2c06278a1230d37296bb4,2020-07-20_14h39.35.887,fisher_task,2020.1.3,MacIntel,60,-0.165720486,-0.372109375,1,0,0,2.283155,scale,,,,,,0.302267034,0.244948974,0.2468,0.2,stimuli/lakes/6070103_left.png,stimuli/lakes/6070103_right.png,,,,0,46,46,103,1,,,,,
,,,,,,$5ed2c06278a1230d37296bb4,2020-07-20_14h39.35.887,fisher_task,2020.1.3,MacIntel,60,0.120920139,-0.294917535,1,0,0,1.36585,scale,,,,,,0.2468,0.2,0.302267034,0.244948974,stimuli/lakes/403035_left.png,stimuli/lakes/403035_right.png,,,,0,47,47,35,1,,,,,
,,,,,,$5ed2c06278a1230d37296bb4,2020-07-20_14h39.35.887,fisher_task,2020.1.3,MacIntel,60,-0.020381944,-0.259435764,1,0,0,1.5654,scale,,,,,,0.21373507,0.173205081,0.326485712,0.264575131,stimuli/lakes/3070100_left.png,stimuli/lakes/3070100_right.png,,,,0,48,48,100,1,,,,,
,,,,,,$5ed2c06278a1230d37296bb4,2020-07-20_14h39.35.887,fisher_task,2020.1.3,MacIntel,60,-0.10374566,-0.290507813,1,0,0,5.251565,scale,,,,,,0.2468,0.2,0.302267034,0.244948974,stimuli/lakes/4080111_left.png,stimuli/lakes/4080111_right.png,,,,0,49,49,111,1,,,,,
,,,,,,$5ed2c06278a1230d37296bb4,2020-07-20_14h39.35.887,fisher_task,2020.1.3,MacIntel,60,-0.146302083,-0.417256944,1,0,0,3.299255,scale,,,,,,0.326485712,0.264575131,0.21373507,0.173205081,stimuli/lakes/7080117_left.png,stimuli/lakes/7080117_right.png,,,,0,50,50,117,1,,,,,
,,,,,,$5ed2c06278a1230d37296bb4,2020-07-20_14h39.35.887,fisher_task,2020.1.3,MacIntel,60,-0.171610243,-0.400881076,1,0,0,3.26546,scale,,,,,,0.349027907,0.282842712,0.174513954,0.141421356,stimuli/lakes/805069_left.png,stimuli/lakes/805069_right.png,,,,0,51,51,69,1,,,,,
,,,,,,$5ed2c06278a1230d37296bb4,2020-07-20_14h39.35.887,fisher_task,2020.1.3,MacIntel,60,0.113897569,-0.293446181,1,0,0,3.965425,scale,,,,,,0.3702,0.3,0.1234,0.1,stimuli/lakes/902022_left.png,stimuli/lakes/902022_right.png,,,,0,52,52,22,1,,,,,
,,,,,,$5ed2c06278a1230d37296bb4,2020-07-20_14h39.35.887,fisher_task,2020.1.3,MacIntel,60,-0.174605035,-0.429765625,1,0,0,2.017415,scale,,,,,,0.302267034,0.244948974,0.2468,0.2,stimuli/lakes/6090127_left.png,stimuli/lakes/6090127_right.png,,,,0,53,53,127,1,,,,,
,,,,,,$5ed2c06278a1230d37296bb4,2020-07-20_14h39.35.887,fisher_task,2020.1.3,MacIntel,60,0.146271701,-0.427578125,1,0,0,3.16584,scale,,,,,,0.174513954,0.141421356,0.349027907,0.282842712,stimuli/lakes/203024_left.png,stimuli/lakes/203024_right.png,,,,0,54,54,24,1,,,,,
,,,,,,$5ed2c06278a1230d37296bb4,2020-07-20_14h39.35.887,fisher_task,2020.1.3,MacIntel,60,-0.135338542,-0.326341146,1,0,0,2.898535,scale,,,,,,0.3702,0.3,0.1234,0.1,stimuli/lakes/905070_left.png,stimuli/lakes/905070_right.png,,,,0,55,55,70,1,,,,,
,,,,,,$5ed2c06278a1230d37296bb4,2020-07-20_14h39.35.887,fisher_task,2020.1.3,MacIntel,60,-0.006115451,-0.236315104,1,0,0,3.51613,scale,,,,,,0.174513954,0.141421356,0.349027907,0.282842712,stimuli/lakes/207099_left.png,stimuli/lakes/207099_right.png,,,,0,56,56,99,1,,,,,
,,,,,,$5ed2c06278a1230d37296bb4,2020-07-20_14h39.35.887,fisher_task,2020.1.3,MacIntel,60,0.018125,-0.236006944,1,0,0,1.4501,scale,,,,,,0.2468,0.2,0.302267034,0.244948974,stimuli/lakes/406074_left.png,stimuli/lakes/406074_right.png,,,,0,57,57,74,1,,,,,
,,,,,,$5ed2c06278a1230d37296bb4,2020-07-20_14h39.35.887,fisher_task,2020.1.3,MacIntel,60,0.044340278,-0.252282986,1,0,0,1.55133,scale,,,,,,0.326485712,0.264575131,0.21373507,0.173205081,stimuli/lakes/703029_left.png,stimuli/lakes/703029_right.png,,,,0,58,58,29,1,,,,,
,,,,,,$5ed2c06278a1230d37296bb4,2020-07-20_14h39.35.887,fisher_task,2020.1.3,MacIntel,60,0.008871528,-0.247703993,1,0,0,4.067805,scale,,,,,,0.3702,0.3,0.1234,0.1,stimuli/lakes/904058_left.png,stimuli/lakes/904058_right.png,,,,0,59,59,58,1,,,,,
,,,,,,$5ed2c06278a1230d37296bb4,2020-07-20_14h39.35.887,fisher_task,2020.1.3,MacIntel,60,-0.003307292,-0.248064236,1,0,0,2.183185,scale,,,,,,0.2468,0.2,0.302267034,0.244948974,stimuli/lakes/4090123_left.png,stimuli/lakes/4090123_right.png,,,,0,60,60,123,1,,,,,
,,,,,,$5ed2c06278a1230d37296bb4,2020-07-20_14h39.35.887,fisher_task,2020.1.3,MacIntel,60,0.154756944,-0.333697917,1,0,0,2.95203,scale,,,,,,0.174513954,0.141421356,0.349027907,0.282842712,stimuli/lakes/205060_left.png,stimuli/lakes/205060_right.png,,,,0,61,61,60,1,,,,,
,,,,,,$5ed2c06278a1230d37296bb4,2020-07-20_14h39.35.887,fisher_task,2020.1.3,MacIntel,60,-0.076861979,-0.260646701,1,0,0,3.899705,scale,,,,,,0.326485712,0.264575131,0.21373507,0.173205081,stimuli/lakes/704056_left.png,stimuli/lakes/704056_right.png,,,,0,62,62,56,1,,,,,
,,,,,,$5ed2c06278a1230d37296bb4,2020-07-20_14h39.35.887,fisher_task,2020.1.3,MacIntel,60,0.096119792,-0.275138889,1,0,0,2.016355,scale,,,,,,0.275930788,0.223606798,0.275930788,0.223606798,stimuli/lakes/504054_left.png,stimuli/lakes/504054_right.png,,,,0,63,63,54,1,,,,,
,,,,,,$5ed2c06278a1230d37296bb4,2020-07-20_14h39.35.887,fisher_task,2020.1.3,MacIntel,60,-0.019895833,-0.243919271,1,0,0,1.867815,scale,,,,,,0.302267034,0.244948974,0.2468,0.2,stimuli/lakes/604055_left.png,stimuli/lakes/604055_right.png,,,,0,64,64,55,1,,,,,
,,,,,,$5ed2c06278a1230d37296bb4,2020-07-20_14h39.35.887,fisher_task,2020.1.3,MacIntel,60,-0.07859809,-0.269513889,1,0,0,1.383325,scale,,,,,,0.174513954,0.141421356,0.349027907,0.282842712,stimuli/lakes/2080108_left.png,stimuli/lakes/2080108_right.png,,,,0,65,65,108,1,,,,,
,,,,,,$5ed2c06278a1230d37296bb4,2020-07-20_14h39.35.887,fisher_task,2020.1.3,MacIntel,60,0.129665799,-0.427282986,1,0,0,3.13437,scale,,,,,,0.1234,0.1,0.3702,0.3,stimuli/lakes/103032_left.png,stimuli/lakes/103032_right.png,,,space,0,66,66,32,1,4.25062,,,,
,,,,,,$5ed2c06278a1230d37296bb4,2020-07-20_14h39.35.887,fisher_task,2020.1.3,MacIntel,60,-0.178697917,-0.349752604,1,0,0,4.40029,scale,,,,,,0.326485712,0.264575131,0.21373507,0.173205081,stimuli/lakes/706077_left.png,stimuli/lakes/706077_right.png,,,,0,67,67,77,1,,,,,
,,,,,,$5ed2c06278a1230d37296bb4,2020-07-20_14h39.35.887,fisher_task,2020.1.3,MacIntel,60,0.112048611,-0.323320312,1,0,0,2.93237,scale,,,,,,0.174513954,0.141421356,0.349027907,0.282842712,stimuli/lakes/206072_left.png,stimuli/lakes/206072_right.png,,,,0,68,68,72,1,,,,,
,,,,,,$5ed2c06278a1230d37296bb4,2020-07-20_14h39.35.887,fisher_task,2020.1.3,MacIntel,60,-0.165108507,-0.423116319,1,0,0,2.66627,scale,,,,,,0.326485712,0.264575131,0.21373507,0.173205081,stimuli/lakes/7080116_left.png,stimuli/lakes/7080116_right.png,,,,0,69,69,116,1,,,,,
,,,,,,$5ed2c06278a1230d37296bb4,2020-07-20_14h39.35.887,fisher_task,2020.1.3,MacIntel,60,-0.119335938,-0.305394965,1,0,0,2.06687,scale,,,,,,0.349027907,0.282842712,0.174513954,0.141421356,stimuli/lakes/804057_left.png,stimuli/lakes/804057_right.png,,,,0,70,70,57,1,,,,,
,,,,,,$5ed2c06278a1230d37296bb4,2020-07-20_14h39.35.887,fisher_task,2020.1.3,MacIntel,60,0.101167535,-0.332313368,1,0,0,5.417245,scale,,,,,,0.349027907,0.282842712,0.174513954,0.141421356,stimuli/lakes/80109_left.png,stimuli/lakes/80109_right.png,,,,0,71,71,9,1,,,,,
,,,,,,$5ed2c06278a1230d37296bb4,2020-07-20_14h39.35.887,fisher_task,2020.1.3,MacIntel,60,-0.201132813,-0.389283854,1,0,0,2.499195,scale,,,,,,0.326485712,0.264575131,0.21373507,0.173205081,stimuli/lakes/7070104_left.png,stimuli/lakes/7070104_right.png,,,,0,72,72,104,1,,,,,
,,,,,,$5ed2c06278a1230d37296bb4,2020-07-20_14h39.35.887,fisher_task,2020.1.3,MacIntel,60,-0.170954861,-0.429331597,1,0,0,1.132885,scale,,,,,,0.349027907,0.282842712,0.174513954,0.141421356,stimuli/lakes/8080118_left.png,stimuli/lakes/8080118_right.png,,,,0,73,73,118,1,,,,,
,,,,,,$5ed2c06278a1230d37296bb4,2020-07-20_14h39.35.887,fisher_task,2020.1.3,MacIntel,60,0.185998264,-0.378663194,1,0,0,3.19857,scale,,,,,,0.1234,0.1,0.3702,0.3,stimuli/lakes/104050_left.png,stimuli/lakes/104050_right.png,,,,0,74,74,50,1,,,,,
,,,,,,$5ed2c06278a1230d37296bb4,2020-07-20_14h39.35.887,fisher_task,2020.1.3,MacIntel,60,-0.10047309,-0.275633681,1,0,0,4.632745,scale,,,,,,0.302267034,0.244948974,0.2468,0.2,stimuli/lakes/605066_left.png,stimuli/lakes/605066_right.png,,,,0,75,75,66,1,,,,,
,,,,,,$5ed2c06278a1230d37296bb4,2020-07-20_14h39.35.887,fisher_task,2020.1.3,MacIntel,60,0.184917535,-0.423168403,1,0,0,1.270095,scale,,,,,,0.1234,0.1,0.3702,0.3,stimuli/lakes/103023_left.png,stimuli/lakes/103023_right.png,,,,0,76,76,23,1,,,,,
,,,,,,$5ed2c06278a1230d37296bb4,2020-07-20_14h39.35.887,fisher_task,2020.1.3,MacIntel,60,0.159001736,-0.422751736,1,0,0,1.649,scale,,,,,,0.21373507,0.173205081,0.326485712,0.264575131,stimuli/lakes/303025_left.png,stimuli/lakes/303025_right.png,,,,0,77,77,25,1,,,,,
,,,,,,$5ed2c06278a1230d37296bb4,2020-07-20_14h39.35.887,fisher_task,2020.1.3,MacIntel,60,-0.155412326,-0.376085069,1,0,0,1.817315,scale,,,,,,0.349027907,0.282842712,0.174513954,0.141421356,stimuli/lakes/806087_left.png,stimuli/lakes/806087_right.png,,,,0,78,78,87,1,,,,,
,,,,,,$5ed2c06278a1230d37296bb4,2020-07-20_14h39.35.887,fisher_task,2020.1.3,MacIntel,60,0.165082465,-0.375264757,1,0,0,1.2819,scale,,,,,,0.2468,0.2,0.302267034,0.244948974,stimuli/lakes/403026_left.png,stimuli/lakes/403026_right.png,,,,0,79,79,26,1,,,,,
,,,,,,$5ed2c06278a1230d37296bb4,2020-07-20_14h39.35.887,fisher_task,2020.1.3,MacIntel,60,0.135082465,-0.430069444,1,0,0,1.63364,scale,,,,,,0.21373507,0.173205081,0.326485712,0.264575131,stimuli/lakes/30100_left.png,stimuli/lakes/30100_right.png,,,,0,80,80,0,1,,,,,
,,,,,,$5ed2c06278a1230d37296bb4,2020-07-20_14h39.35.887,fisher_task,2020.1.3,MacIntel,60,0.070230035,-0.255512153,1,0,0,2.31687,scale,,,,,,0.3702,0.3,0.1234,0.1,stimuli/lakes/901010_left.png,stimuli/lakes/901010_right.png,,,,0,81,81,10,1,,,,,
,,,,,,$5ed2c06278a1230d37296bb4,2020-07-20_14h39.35.887,fisher_task,2020.1.3,MacIntel,60,-0.125130208,-0.4171875,1,0,0,6.85019,scale,,,,,,0.302267034,0.244948974,0.2468,0.2,stimuli/lakes/6090126_left.png,stimuli/lakes/6090126_right.png,,,,0,82,82,126,1,,,,,
,,,,,,$5ed2c06278a1230d37296bb4,2020-07-20_14h39.35.887,fisher_task,2020.1.3,MacIntel,60,0.103823785,-0.299878472,1,0,0,2.065235,scale,,,,,,0.349027907,0.282842712,0.174513954,0.141421356,stimuli/lakes/803030_left.png,stimuli/lakes/803030_right.png,,,,0,83,83,30,1,,,,,
,,,,,,$5ed2c06278a1230d37296bb4,2020-07-20_14h39.35.887,fisher_task,2020.1.3,MacIntel,60,-0.166085069,-0.343537326,1,0,0,2.649875,scale,,,,,,0.302267034,0.244948974,0.2468,0.2,stimuli/lakes/605065_left.png,stimuli/lakes/605065_right.png,,,,0,84,84,65,1,,,,,
,,,,,,$5ed2c06278a1230d37296bb4,2020-07-20_14h39.35.887,fisher_task,2020.1.3,MacIntel,60,0.110590278,-0.262608507,1,0,0,1.883045,scale,,,,,,0.174513954,0.141421356,0.349027907,0.282842712,stimuli/lakes/207090_left.png,stimuli/lakes/207090_right.png,,,,0,85,85,90,1,,,,,
,,,,,,$5ed2c06278a1230d37296bb4,2020-07-20_14h39.35.887,fisher_task,2020.1.3,MacIntel,60,0.187521701,-0.427170139,1,0,0,1.465975,scale,,,,,,0.174513954,0.141421356,0.349027907,0.282842712,stimuli/lakes/202011_left.png,stimuli/lakes/202011_right.png,,,,0,86,86,11,1,,,,,
,,,,,,$5ed2c06278a1230d37296bb4,2020-07-20_14h39.35.887,fisher_task,2020.1.3,MacIntel,60,0.056467014,-0.240021701,1,0,0,2.39979,scale,,,,,,0.21373507,0.173205081,0.326485712,0.264575131,stimuli/lakes/3080110_left.png,stimuli/lakes/3080110_right.png,,,,0,87,87,110,1,,,,,
,,,,,,$5ed2c06278a1230d37296bb4,2020-07-20_14h39.35.887,fisher_task,2020.1.3,MacIntel,60,-0.053867187,-0.237421875,1,0,0,2.31616,scale,,,,,,0.275930788,0.223606798,0.275930788,0.223606798,stimuli/lakes/506075_left.png,stimuli/lakes/506075_right.png,,,space,0,88,88,75,1,1.66723,,,,
,,,,,,$5ed2c06278a1230d37296bb4,2020-07-20_14h39.35.887,fisher_task,2020.1.3,MacIntel,60,0.158806424,-0.335876736,1,0,0,1.7669,scale,,,,,,0.2468,0.2,0.302267034,0.244948974,stimuli/lakes/404044_left.png,stimuli/lakes/404044_right.png,,,,0,89,89,44,1,,,,,
,,,,,,$5ed2c06278a1230d37296bb4,2020-07-20_14h39.35.887,fisher_task,2020.1.3,MacIntel,60,-0.1759375,-0.403949653,1,0,0,1.28372,scale,,,,,,0.326485712,0.264575131,0.21373507,0.173205081,stimuli/lakes/707095_left.png,stimuli/lakes/707095_right.png,,,,0,90,90,95,1,,,,,
,,,,,,$5ed2c06278a1230d37296bb4,2020-07-20_14h39.35.887,fisher_task,2020.1.3,MacIntel,60,-0.188884549,-0.419895833,1,0,0,1.483075,scale,,,,,,0.3702,0.3,0.1234,0.1,stimuli/lakes/906088_left.png,stimuli/lakes/906088_right.png,,,,0,91,91,88,1,,,,,
,,,,,,$5ed2c06278a1230d37296bb4,2020-07-20_14h39.35.887,fisher_task,2020.1.3,MacIntel,60,0.079275174,-0.244678819,1,0,0,3.350715,scale,,,,,,0.1234,0.1,0.3702,0.3,stimuli/lakes/106071_left.png,stimuli/lakes/106071_right.png,,,,0,92,92,71,1,,,,,
,,,,,,$5ed2c06278a1230d37296bb4,2020-07-20_14h39.35.887,fisher_task,2020.1.3,MacIntel,60,-0.166649306,-0.330868056,1,0,0,2.76602,scale,,,,,,0.302267034,0.244948974,0.2468,0.2,stimuli/lakes/606085_left.png,stimuli/lakes/606085_right.png,,,,0,93,93,85,1,,,,,
,,,,,,$5ed2c06278a1230d37296bb4,2020-07-20_14h39.35.887,fisher_task,2020.1.3,MacIntel,60,0.114635417,-0.264027778,1,0,0,2.333885,scale,,,,,,0.302267034,0.244948974,0.2468,0.2,stimuli/lakes/602018_left.png,stimuli/lakes/602018_right.png,,,,0,94,94,18,1,,,,,
,,,,,,$5ed2c06278a1230d37296bb4,2020-07-20_14h39.35.887,fisher_task,2020.1.3,MacIntel,60,0.068042535,-0.248138021,1,0,0,1.566385,scale,,,,,,0.174513954,0.141421356,0.349027907,0.282842712,stimuli/lakes/206081_left.png,stimuli/lakes/206081_right.png,,,,0,95,95,81,1,,,,,
,,,,,,$5ed2c06278a1230d37296bb4,2020-07-20_14h39.35.887,fisher_task,2020.1.3,MacIntel,60,-0.120798611,-0.321284722,1,0,0,2.93347,scale,,,,,,0.302267034,0.244948974,0.2468,0.2,stimuli/lakes/607094_left.png,stimuli/lakes/607094_right.png,,,,0,96,96,94,1,,,,,
,,,,,,$5ed2c06278a1230d37296bb4,2020-07-20_14h39.35.887,fisher_task,2020.1.3,MacIntel,60,-0.004192708,-0.242044271,1,0,0,2.13312,scale,,,,,,0.302267034,0.244948974,0.2468,0.2,stimuli/lakes/603028_left.png,stimuli/lakes/603028_right.png,,,,0,97,97,28,1,,,,,
,,,,,,$5ed2c06278a1230d37296bb4,2020-07-20_14h39.35.887,fisher_task,2020.1.3,MacIntel,60,0.122335069,-0.287508681,1,0,0,2.748655,scale,,,,,,0.326485712,0.264575131,0.21373507,0.173205081,stimuli/lakes/70108_left.png,stimuli/lakes/70108_right.png,,,,0,98,98,8,1,,,,,
,,,,,,$5ed2c06278a1230d37296bb4,2020-07-20_14h39.35.887,fisher_task,2020.1.3,MacIntel,60,-0.095690104,-0.25530816,1,0,0,4.116615,scale,,,,,,0.302267034,0.244948974,0.2468,0.2,stimuli/lakes/604046_left.png,stimuli/lakes/604046_right.png,,,,0,99,99,46,1,,,,,
,,,,,,$5ed2c06278a1230d37296bb4,2020-07-20_14h39.35.887,fisher_task,2020.1.3,MacIntel,60,0.159986979,-0.323168403,1,0,0,1.933075,scale,,,,,,0.1234,0.1,0.3702,0.3,stimuli/lakes/106080_left.png,stimuli/lakes/106080_right.png,,,,0,100,100,80,1,,,,,
,,,,,,$5ed2c06278a1230d37296bb4,2020-07-20_14h39.35.887,fisher_task,2020.1.3,MacIntel,60,-0.008211806,-0.230577257,1,0,0,2.89959,scale,,,,,,0.21373507,0.173205081,0.326485712,0.264575131,stimuli/lakes/3090121_left.png,stimuli/lakes/3090121_right.png,,,,0,101,101,121,1,,,,,
,,,,,,$5ed2c06278a1230d37296bb4,2020-07-20_14h39.35.887,fisher_task,2020.1.3,MacIntel,60,0.12812934,-0.284856771,1,0,0,1.86628,scale,,,,,,0.21373507,0.173205081,0.326485712,0.264575131,stimuli/lakes/306082_left.png,stimuli/lakes/306082_right.png,,,,0,102,102,82,1,,,,,
,,,,,,$5ed2c06278a1230d37296bb4,2020-07-20_14h39.35.887,fisher_task,2020.1.3,MacIntel,60,-0.090885417,-0.26858941,1,0,0,2.617055,scale,,,,,,0.349027907,0.282842712,0.174513954,0.141421356,stimuli/lakes/804048_left.png,stimuli/lakes/804048_right.png,,,,0,103,103,48,1,,,,,
,,,,,,$5ed2c06278a1230d37296bb4,2020-07-20_14h39.35.887,fisher_task,2020.1.3,MacIntel,60,-0.007725694,-0.240286458,1,0,0,3.666615,scale,,,,,,0.302267034,0.244948974,0.2468,0.2,stimuli/lakes/60106_left.png,stimuli/lakes/60106_right.png,,,,0,104,104,6,1,,,,,
,,,,,,$5ed2c06278a1230d37296bb4,2020-07-20_14h39.35.887,fisher_task,2020.1.3,MacIntel,60,-0.182539062,-0.417595486,1,0,0,2.767325,scale,,,,,,0.349027907,0.282842712,0.174513954,0.141421356,stimuli/lakes/807096_left.png,stimuli/lakes/807096_right.png,,,,0,105,105,96,1,,,,,
,,,,,,$5ed2c06278a1230d37296bb4,2020-07-20_14h39.35.887,fisher_task,2020.1.3,MacIntel,60,0.140902778,-0.301228299,1,0,0,5.434635,scale,,,,,,0.349027907,0.282842712,0.174513954,0.141421356,stimuli/lakes/802021_left.png,stimuli/lakes/802021_right.png,,,,0,106,106,21,1,,,,,
,,,,,,$5ed2c06278a1230d37296bb4,2020-07-20_14h39.35.887,fisher_task,2020.1.3,MacIntel,60,0.180321181,-0.425833333,1,0,0,2.39959,scale,,,,,,0.2468,0.2,0.302267034,0.244948974,stimuli/lakes/40102_left.png,stimuli/lakes/40102_right.png,,,,0,107,107,2,1,,,,,
,,,,,,$5ed2c06278a1230d37296bb4,2020-07-20_14h39.35.887,fisher_task,2020.1.3,MacIntel,60,-0.045182292,-0.284292535,1,0,0,3.933865,scale,,,,,,0.2468,0.2,0.302267034,0.244948974,stimuli/lakes/4090124_left.png,stimuli/lakes/4090124_right.png,,,,0,108,108,124,1,,,,,
,,,,,,$5ed2c06278a1230d37296bb4,2020-07-20_14h39.35.887,fisher_task,2020.1.3,MacIntel,60,0.118524306,-0.271037326,1,0,0,4.26605,scale,,,,,,0.2468,0.2,0.302267034,0.244948974,stimuli/lakes/407092_left.png,stimuli/lakes/407092_right.png,,,,0,109,109,92,1,,,,,
,,,,,,$5ed2c06278a1230d37296bb4,2020-07-20_14h39.35.887,fisher_task,2020.1.3,MacIntel,60,0.185911458,-0.426601562,1,0,0,2.01575,scale,,,,,,0.174513954,0.141421356,0.349027907,0.282842712,stimuli/lakes/203033_left.png,stimuli/lakes/203033_right.png,,,space,0,110,110,33,1,1.59863,,,,
,,,,,,$5ed2c06278a1230d37296bb4,2020-07-20_14h39.35.887,fisher_task,2020.1.3,MacIntel,60,0.100763889,-0.302986111,1,0,0,2.61602,scale,,,,,,0.21373507,0.173205081,0.326485712,0.264575131,stimuli/lakes/306073_left.png,stimuli/lakes/306073_right.png,,,,0,111,111,73,1,,,,,
,,,,,,$5ed2c06278a1230d37296bb4,2020-07-20_14h39.35.887,fisher_task,2020.1.3,MacIntel,60,-0.020681424,-0.230082465,1,0,0,1.699755,scale,,,,,,0.2468,0.2,0.302267034,0.244948974,stimuli/lakes/4080112_left.png,stimuli/lakes/4080112_right.png,,,,0,112,112,112,1,,,,,
,,,,,,$5ed2c06278a1230d37296bb4,2020-07-20_14h39.35.887,fisher_task,2020.1.3,MacIntel,60,-0.183298611,-0.421085069,1,0,0,2.899175,scale,,,,,,0.349027907,0.282842712,0.174513954,0.141421356,stimuli/lakes/806078_left.png,stimuli/lakes/806078_right.png,,,,0,113,113,78,1,,,,,
,,,,,,$5ed2c06278a1230d37296bb4,2020-07-20_14h39.35.887,fisher_task,2020.1.3,MacIntel,60,-0.181102431,-0.400581597,1,0,0,1.549475,scale,,,,,,0.326485712,0.264575131,0.21373507,0.173205081,stimuli/lakes/706086_left.png,stimuli/lakes/706086_right.png,,,,0,114,114,86,1,,,,,
,,,,,,$5ed2c06278a1230d37296bb4,2020-07-20_14h39.35.887,fisher_task,2020.1.3,MacIntel,60,0.028381076,-0.233515625,1,0,0,3.550115,scale,,,,,,0.3702,0.3,0.1234,0.1,stimuli/lakes/903031_left.png,stimuli/lakes/903031_right.png,,,,0,115,115,31,1,,,,,
,,,,,,$5ed2c06278a1230d37296bb4,2020-07-20_14h39.35.887,fisher_task,2020.1.3,MacIntel,60,-0.041905382,-0.250026042,1,0,0,3.866675,scale,,,,,,0.326485712,0.264575131,0.21373507,0.173205081,stimuli/lakes/705068_left.png,stimuli/lakes/705068_right.png,,,,0,116,116,68,1,,,,,
,,,,,,$5ed2c06278a1230d37296bb4,2020-07-20_14h39.35.887,fisher_task,2020.1.3,MacIntel,60,-0.175603299,-0.426024306,1,0,0,3.30073,scale,,,,,,0.302267034,0.244948974,0.2468,0.2,stimuli/lakes/6080115_left.png,stimuli/lakes/6080115_right.png,,,,0,117,117,115,1,,,,,
,,,,,,$5ed2c06278a1230d37296bb4,2020-07-20_14h39.35.887,fisher_task,2020.1.3,MacIntel,60,0.184635417,-0.413580729,1,0,0,1.283405,scale,,,,,,0.2468,0.2,0.302267034,0.244948974,stimuli/lakes/402014_left.png,stimuli/lakes/402014_right.png,,,,0,118,118,14,1,,,,,
,,,,,,$5ed2c06278a1230d37296bb4,2020-07-20_14h39.35.887,fisher_task,2020.1.3,MacIntel,60,-0.001158854,-0.22968316,1,0,0,2.199185,scale,,,,,,0.302267034,0.244948974,0.2468,0.2,stimuli/lakes/60105_left.png,stimuli/lakes/60105_right.png,,,,0,119,119,5,1,,,,,
,,,,,,$5ed2c06278a1230d37296bb4,2020-07-20_14h39.35.887,fisher_task,2020.1.3,MacIntel,60,0.179392361,-0.338715278,1,0,0,2.231885,scale,,,,,,0.275930788,0.223606798,0.275930788,0.223606798,stimuli/lakes/503027_left.png,stimuli/lakes/503027_right.png,,,,0,120,120,27,1,,,,,
,,,,,,$5ed2c06278a1230d37296bb4,2020-07-20_14h39.35.887,fisher_task,2020.1.3,MacIntel,60,-0.145342882,-0.42687934,1,0,0,2.932605,scale,,,,,,0.326485712,0.264575131,0.21373507,0.173205081,stimuli/lakes/7090128_left.png,stimuli/lakes/7090128_right.png,,,,0,121,121,128,1,,,,,
,,,,,,$5ed2c06278a1230d37296bb4,2020-07-20_14h39.35.887,fisher_task,2020.1.3,MacIntel,60,0.201744792,-0.416158854,1,0,0,2.383685,scale,,,,,,0.21373507,0.173205081,0.326485712,0.264575131,stimuli/lakes/304052_left.png,stimuli/lakes/304052_right.png,,,,0,122,122,52,1,,,,,
,,,,,,$5ed2c06278a1230d37296bb4,2020-07-20_14h39.35.887,fisher_task,2020.1.3,MacIntel,60,-0.190533854,-0.430894097,1,0,0,1.83294,scale,,,,,,0.3702,0.3,0.1234,0.1,stimuli/lakes/907097_left.png,stimuli/lakes/907097_right.png,,,,0,123,123,97,1,,,,,
,,,,,,$5ed2c06278a1230d37296bb4,2020-07-20_14h39.35.887,fisher_task,2020.1.3,MacIntel,60,0.179561632,-0.351931424,1,0,0,2.182445,scale,,,,,,0.1234,0.1,0.3702,0.3,stimuli/lakes/105059_left.png,stimuli/lakes/105059_right.png,,,,0,124,124,59,1,,,,,
,,,,,,$5ed2c06278a1230d37296bb4,2020-07-20_14h39.35.887,fisher_task,2020.1.3,MacIntel,60,-0.186653646,-0.431158854,1,0,0,3.99943,scale,,,,,,0.326485712,0.264575131,0.21373507,0.173205081,stimuli/lakes/7090129_left.png,stimuli/lakes/7090129_right.png,,,,0,125,125,129,1,,,,,
,,,,,,$5ed2c06278a1230d37296bb4,2020-07-20_14h39.35.887,fisher_task,2020.1.3,MacIntel,60,0.187834201,-0.428177083,1,0,0,2.649855,scale,,,,,,0.21373507,0.173205081,0.326485712,0.264575131,stimuli/lakes/30101_left.png,stimuli/lakes/30101_right.png,,,,0,126,126,1,1,,,,,
,,,,,,$5ed2c06278a1230d37296bb4,2020-07-20_14h39.35.887,fisher_task,2020.1.3,MacIntel,60,0.065646701,-0.245881076,1,0,0,2.234355,scale,,,,,,0.302267034,0.244948974,0.2468,0.2,stimuli/lakes/602017_left.png,stimuli/lakes/602017_right.png,,,,0,127,127,17,1,,,,,
,,,,,,$5ed2c06278a1230d37296bb4,2020-07-20_14h39.35.887,fisher_task,2020.1.3,MacIntel,60,0.186006944,-0.419175347,1,0,0,1.683215,scale,,,,,,0.275930788,0.223606798,0.275930788,0.223606798,stimuli/lakes/50104_left.png,stimuli/lakes/50104_right.png,,,,0,128,128,4,1,,,,,
,,,,,,$5ed2c06278a1230d37296bb4,2020-07-20_14h39.35.887,fisher_task,2020.1.3,MacIntel,60,0.118502604,-0.292790799,1,0,0,1.634655,scale,,,,,,0.326485712,0.264575131,0.21373507,0.173205081,stimuli/lakes/70107_left.png,stimuli/lakes/70107_right.png,,,,0,129,129,7,1,,,,,
,,,,,,$5ed2c06278a1230d37296bb4,2020-07-20_14h39.35.887,fisher_task,2020.1.3,MacIntel,60,,,,,,,,,,,,,,,,,,,,,,,,,,,,space,4.101185,space,47.599785
