keySpace.keys,instructions.thisRepN,instructions.thisTrialN,instructions.thisN,instructions.thisIndex,instructions.ran,participant,date,expName,psychopyVersion,OS,frameRate,mouse.x,mouse.y,mouse.leftButton,mouse.midButton,mouse.rightButton,mouse.time,mouse.clicked_name,training.thisRepN,training.thisTrialN,training.thisN,training.thisIndex,training.ran,widthBasketLeft,heightBasketLeft,widthBasketRight,heightBasketRight,leftLake,rightLake,space2.keys,space2.rt,space1.keys,trials.thisRepN,trials.thisTrialN,trials.thisN,trials.thisIndex,trials.ran,space1.rt,finalSpace1.keys,finalSpace1.rt,finalSpace2.keys,finalSpace2.rt
,0,0,0,0,1,$5e8caee6b47439057c61db9f,2020-07-20_15h43.24.852,fisher_task,2020.1.3,Win32,60,,,,,,,,,,,,,,,,,,,,,,,,,,,,,,,
,,,,,,$5e8caee6b47439057c61db9f,2020-07-20_15h43.24.852,fisher_task,2020.1.3,Win32,60,0.123148148,-0.325,1,0,0,4.121605,scale,0,0,0,0,1,0.275930788,0.223606798,0.275930788,0.223606798,stimuli/training/20_left.png,stimuli/training/20_right.png,,,,,,,,,,,,,
,,,,,,$5e8caee6b47439057c61db9f,2020-07-20_15h43.24.852,fisher_task,2020.1.3,Win32,60,-0.169444444,-0.416666667,1,0,0,2.502065,scale,0,1,1,1,1,0.275930788,0.223606798,0.275930788,0.223606798,stimuli/training/80_left.png,stimuli/training/80_right.png,,,,,,,,,,,,,
,,,,,,$5e8caee6b47439057c61db9f,2020-07-20_15h43.24.852,fisher_task,2020.1.3,Win32,60,0.123148148,-0.318518519,1,0,0,2.619745,scale,0,2,2,2,1,0.174513954,0.141421356,0.349027907,0.282842712,stimuli/training/50_left.png,stimuli/training/50_right.png,,,,,,,,,,,,,
,,,,,,$5e8caee6b47439057c61db9f,2020-07-20_15h43.24.852,fisher_task,2020.1.3,Win32,60,-0.101851852,-0.305555556,1,0,0,3.73683,scale,0,3,3,3,1,0.349027907,0.282842712,0.174513954,0.141421356,stimuli/training/50_left.png,stimuli/training/50_right.png,,,,,,,,,,,,,
,,,,,,$5e8caee6b47439057c61db9f,2020-07-20_15h43.24.852,fisher_task,2020.1.3,Win32,60,0.157407407,-0.415740741,1,0,0,2.18509,scale,0,4,4,4,1,0.275930788,0.223606798,0.275930788,0.223606798,stimuli/training/50_left.png,stimuli/training/50_right.png,,,,,,,,,,,,,
,,,,,,$5e8caee6b47439057c61db9f,2020-07-20_15h43.24.852,fisher_task,2020.1.3,Win32,60,0.147222222,-0.417592593,1,0,0,2.501625,scale,0,5,5,5,1,0.174513954,0.141421356,0.349027907,0.282842712,stimuli/training/20_left.png,stimuli/training/20_right.png,,,,,,,,,,,,,
,,,,,,$5e8caee6b47439057c61db9f,2020-07-20_15h43.24.852,fisher_task,2020.1.3,Win32,60,-0.162962963,-0.419444444,1,0,0,1.50129,scale,0,6,6,6,1,0.349027907,0.282842712,0.174513954,0.141421356,stimuli/training/80_left.png,stimuli/training/80_right.png,,,,,,,,,,,,,
,,,,,,$5e8caee6b47439057c61db9f,2020-07-20_15h43.24.852,fisher_task,2020.1.3,Win32,60,0.146296296,-0.415740741,1,0,0,1.63504,scale,0,7,7,7,1,0.1234,0.1,0.3702,0.3,stimuli/training/30_left.png,stimuli/training/30_right.png,,,,,,,,,,,,,
,,,,,,$5e8caee6b47439057c61db9f,2020-07-20_15h43.24.852,fisher_task,2020.1.3,Win32,60,-0.172222222,-0.416666667,1,0,0,1.96832,scale,0,8,8,8,1,0.3702,0.3,0.1234,0.1,stimuli/training/70_left.png,stimuli/training/70_right.png,,,,,,,,,,,,,
,,,,,,$5e8caee6b47439057c61db9f,2020-07-20_15h43.24.852,fisher_task,2020.1.3,Win32,60,-0.172222222,-0.412037037,1,0,0,1.08421,scale,0,9,9,9,1,0.326485712,0.264575131,0.21373507,0.173205081,stimuli/training/90_left.png,stimuli/training/90_right.png,,,,,,,,,,,,,
,,,,,,$5e8caee6b47439057c61db9f,2020-07-20_15h43.24.852,fisher_task,2020.1.3,Win32,60,0.157407407,-0.411111111,1,0,0,2.018515,scale,0,10,10,10,1,0.21373507,0.173205081,0.326485712,0.264575131,stimuli/training/10_left.png,stimuli/training/10_right.png,,,,,,,,,,,,,
,,,,,,$5e8caee6b47439057c61db9f,2020-07-20_15h43.24.852,fisher_task,2020.1.3,Win32,60,-0.162962963,-0.409259259,1,0,0,7.708195,scale,,,,,,0.1234,0.1,0.3702,0.3,stimuli/lakes/1090119_left.png,stimuli/lakes/1090119_right.png,space,4.9143,,0,0,0,119,1,,,,,
,,,,,,$5e8caee6b47439057c61db9f,2020-07-20_15h43.24.852,fisher_task,2020.1.3,Win32,60,0.115740741,-0.305555556,1,0,0,3.920595,scale,,,,,,0.3702,0.3,0.1234,0.1,stimuli/lakes/904049_left.png,stimuli/lakes/904049_right.png,,,,0,1,1,49,1,,,,,
,,,,,,$5e8caee6b47439057c61db9f,2020-07-20_15h43.24.852,fisher_task,2020.1.3,Win32,60,-0.117592593,-0.313888889,1,0,0,2.852655,scale,,,,,,0.174513954,0.141421356,0.349027907,0.282842712,stimuli/lakes/206081_left.png,stimuli/lakes/206081_right.png,,,,0,2,2,81,1,,,,,
,,,,,,$5e8caee6b47439057c61db9f,2020-07-20_15h43.24.852,fisher_task,2020.1.3,Win32,60,-0.160185185,-0.417592593,1,0,0,2.919415,scale,,,,,,0.21373507,0.173205081,0.326485712,0.264575131,stimuli/lakes/3090122_left.png,stimuli/lakes/3090122_right.png,,,,0,3,3,122,1,,,,,
,,,,,,$5e8caee6b47439057c61db9f,2020-07-20_15h43.24.852,fisher_task,2020.1.3,Win32,60,0.111111111,-0.302777778,1,0,0,3.420215,scale,,,,,,0.302267034,0.244948974,0.2468,0.2,stimuli/lakes/60106_left.png,stimuli/lakes/60106_right.png,,,,0,4,4,6,1,,,,,
,,,,,,$5e8caee6b47439057c61db9f,2020-07-20_15h43.24.852,fisher_task,2020.1.3,Win32,60,-0.158333333,-0.419444444,1,0,0,1.78561,scale,,,,,,0.349027907,0.282842712,0.174513954,0.141421356,stimuli/lakes/8070105_left.png,stimuli/lakes/8070105_right.png,,,,0,5,5,105,1,,,,,
,,,,,,$5e8caee6b47439057c61db9f,2020-07-20_15h43.24.852,fisher_task,2020.1.3,Win32,60,0.103703704,-0.297222222,1,0,0,2.40223,scale,,,,,,0.3702,0.3,0.1234,0.1,stimuli/lakes/902022_left.png,stimuli/lakes/902022_right.png,,,,0,6,6,22,1,,,,,
,,,,,,$5e8caee6b47439057c61db9f,2020-07-20_15h43.24.852,fisher_task,2020.1.3,Win32,60,0.149074074,-0.415740741,1,0,0,1.71808,scale,,,,,,0.275930788,0.223606798,0.275930788,0.223606798,stimuli/lakes/503036_left.png,stimuli/lakes/503036_right.png,,,,0,7,7,36,1,,,,,
,,,,,,$5e8caee6b47439057c61db9f,2020-07-20_15h43.24.852,fisher_task,2020.1.3,Win32,60,-0.121296296,-0.311111111,1,0,0,2.652765,scale,,,,,,0.302267034,0.244948974,0.2468,0.2,stimuli/lakes/606085_left.png,stimuli/lakes/606085_right.png,,,,0,8,8,85,1,,,,,
,,,,,,$5e8caee6b47439057c61db9f,2020-07-20_15h43.24.852,fisher_task,2020.1.3,Win32,60,-0.008333333,-0.253703704,1,0,0,2.58576,scale,,,,,,0.302267034,0.244948974,0.2468,0.2,stimuli/lakes/605066_left.png,stimuli/lakes/605066_right.png,,,,0,9,9,66,1,,,,,
,,,,,,$5e8caee6b47439057c61db9f,2020-07-20_15h43.24.852,fisher_task,2020.1.3,Win32,60,0.156481481,-0.419444444,1,0,0,1.667825,scale,,,,,,0.1234,0.1,0.3702,0.3,stimuli/lakes/103023_left.png,stimuli/lakes/103023_right.png,,,,0,10,10,23,1,,,,,
,,,,,,$5e8caee6b47439057c61db9f,2020-07-20_15h43.24.852,fisher_task,2020.1.3,Win32,60,0.147222222,-0.424074074,1,0,0,1.601105,scale,,,,,,0.2468,0.2,0.302267034,0.244948974,stimuli/lakes/40102_left.png,stimuli/lakes/40102_right.png,,,,0,11,11,2,1,,,,,
,,,,,,$5e8caee6b47439057c61db9f,2020-07-20_15h43.24.852,fisher_task,2020.1.3,Win32,60,-0.094444444,-0.298148148,1,0,0,2.084625,scale,,,,,,0.326485712,0.264575131,0.21373507,0.173205081,stimuli/lakes/702020_left.png,stimuli/lakes/702020_right.png,,,,0,12,12,20,1,,,,,
,,,,,,$5e8caee6b47439057c61db9f,2020-07-20_15h43.24.852,fisher_task,2020.1.3,Win32,60,-0.007407407,-0.248148148,1,0,0,3.720265,scale,,,,,,0.21373507,0.173205081,0.326485712,0.264575131,stimuli/lakes/306082_left.png,stimuli/lakes/306082_right.png,,,,0,13,13,82,1,,,,,
,,,,,,$5e8caee6b47439057c61db9f,2020-07-20_15h43.24.852,fisher_task,2020.1.3,Win32,60,0.109259259,-0.302777778,1,0,0,2.4194,scale,,,,,,0.326485712,0.264575131,0.21373507,0.173205081,stimuli/lakes/702019_left.png,stimuli/lakes/702019_right.png,,,,0,14,14,19,1,,,,,
,,,,,,$5e8caee6b47439057c61db9f,2020-07-20_15h43.24.852,fisher_task,2020.1.3,Win32,60,-0.117592593,-0.305555556,1,0,0,2.318535,scale,,,,,,0.302267034,0.244948974,0.2468,0.2,stimuli/lakes/604055_left.png,stimuli/lakes/604055_right.png,,,,0,15,15,55,1,,,,,
,,,,,,$5e8caee6b47439057c61db9f,2020-07-20_15h43.24.852,fisher_task,2020.1.3,Win32,60,0.103703704,-0.308333333,1,0,0,2.452065,scale,,,,,,0.2468,0.2,0.302267034,0.244948974,stimuli/lakes/406074_left.png,stimuli/lakes/406074_right.png,,,,0,16,16,74,1,,,,,
,,,,,,$5e8caee6b47439057c61db9f,2020-07-20_15h43.24.852,fisher_task,2020.1.3,Win32,60,0.102777778,-0.300925926,1,0,0,2.101775,scale,,,,,,0.21373507,0.173205081,0.326485712,0.264575131,stimuli/lakes/306073_left.png,stimuli/lakes/306073_right.png,,,,0,17,17,73,1,,,,,
,,,,,,$5e8caee6b47439057c61db9f,2020-07-20_15h43.24.852,fisher_task,2020.1.3,Win32,60,0.106481481,-0.32037037,1,0,0,3.25312,scale,,,,,,0.174513954,0.141421356,0.349027907,0.282842712,stimuli/lakes/203033_left.png,stimuli/lakes/203033_right.png,,,,0,18,18,33,1,,,,,
,,,,,,$5e8caee6b47439057c61db9f,2020-07-20_15h43.24.852,fisher_task,2020.1.3,Win32,60,-0.159259259,-0.417592593,1,0,0,1.600795,scale,,,,,,0.326485712,0.264575131,0.21373507,0.173205081,stimuli/lakes/7080117_left.png,stimuli/lakes/7080117_right.png,,,,0,19,19,117,1,,,,,
,,,,,,$5e8caee6b47439057c61db9f,2020-07-20_15h43.24.852,fisher_task,2020.1.3,Win32,60,-0.123148148,-0.330555556,1,0,0,2.0184,scale,,,,,,0.349027907,0.282842712,0.174513954,0.141421356,stimuli/lakes/803039_left.png,stimuli/lakes/803039_right.png,,,,0,20,20,39,1,,,,,
,,,,,,$5e8caee6b47439057c61db9f,2020-07-20_15h43.24.852,fisher_task,2020.1.3,Win32,60,0.151851852,-0.411111111,1,0,0,1.95155,scale,,,,,,0.302267034,0.244948974,0.2468,0.2,stimuli/lakes/603037_left.png,stimuli/lakes/603037_right.png,,,,0,21,21,37,1,,,,,
,,,,,,$5e8caee6b47439057c61db9f,2020-07-20_15h43.24.852,fisher_task,2020.1.3,Win32,60,-0.110185185,-0.293518519,1,0,0,2.2202,scale,,,,,,0.21373507,0.173205081,0.326485712,0.264575131,stimuli/lakes/3070100_left.png,stimuli/lakes/3070100_right.png,,,space,0,22,22,100,1,649.49974,,,,
,,,,,,$5e8caee6b47439057c61db9f,2020-07-20_15h43.24.852,fisher_task,2020.1.3,Win32,60,0,-0.262962963,1,0,0,1.901445,scale,,,,,,0.275930788,0.223606798,0.275930788,0.223606798,stimuli/lakes/506075_left.png,stimuli/lakes/506075_right.png,,,,0,23,23,75,1,,,,,
,,,,,,$5e8caee6b47439057c61db9f,2020-07-20_15h43.24.852,fisher_task,2020.1.3,Win32,60,-0.15462963,-0.415740741,1,0,0,1.40069,scale,,,,,,0.2468,0.2,0.302267034,0.244948974,stimuli/lakes/4090124_left.png,stimuli/lakes/4090124_right.png,,,,0,24,24,124,1,,,,,
,,,,,,$5e8caee6b47439057c61db9f,2020-07-20_15h43.24.852,fisher_task,2020.1.3,Win32,60,0.101851852,-0.29537037,1,0,0,2.035085,scale,,,,,,0.326485712,0.264575131,0.21373507,0.173205081,stimuli/lakes/70107_left.png,stimuli/lakes/70107_right.png,,,,0,25,25,7,1,,,,,
,,,,,,$5e8caee6b47439057c61db9f,2020-07-20_15h43.24.852,fisher_task,2020.1.3,Win32,60,0.155555556,-0.416666667,1,0,0,1.38447,scale,,,,,,0.2468,0.2,0.302267034,0.244948974,stimuli/lakes/402014_left.png,stimuli/lakes/402014_right.png,,,,0,26,26,14,1,,,,,
,,,,,,$5e8caee6b47439057c61db9f,2020-07-20_15h43.24.852,fisher_task,2020.1.3,Win32,60,0.15462963,-0.415740741,1,0,0,1.26746,scale,,,,,,0.21373507,0.173205081,0.326485712,0.264575131,stimuli/lakes/30100_left.png,stimuli/lakes/30100_right.png,,,,0,27,27,0,1,,,,,
,,,,,,$5e8caee6b47439057c61db9f,2020-07-20_15h43.24.852,fisher_task,2020.1.3,Win32,60,-0.019444444,-0.251851852,1,0,0,2.05247,scale,,,,,,0.275930788,0.223606798,0.275930788,0.223606798,stimuli/lakes/506084_left.png,stimuli/lakes/506084_right.png,,,,0,28,28,84,1,,,,,
,,,,,,$5e8caee6b47439057c61db9f,2020-07-20_15h43.24.852,fisher_task,2020.1.3,Win32,60,-0.163888889,-0.418518519,1,0,0,1.10078,scale,,,,,,0.349027907,0.282842712,0.174513954,0.141421356,stimuli/lakes/8080118_left.png,stimuli/lakes/8080118_right.png,,,,0,29,29,118,1,,,,,
,,,,,,$5e8caee6b47439057c61db9f,2020-07-20_15h43.24.852,fisher_task,2020.1.3,Win32,60,-0.112962963,-0.300925926,1,0,0,2.60208,scale,,,,,,0.1234,0.1,0.3702,0.3,stimuli/lakes/1080107_left.png,stimuli/lakes/1080107_right.png,,,,0,30,30,107,1,,,,,
,,,,,,$5e8caee6b47439057c61db9f,2020-07-20_15h43.24.852,fisher_task,2020.1.3,Win32,60,0.111111111,-0.303703704,1,0,0,2.30188,scale,,,,,,0.21373507,0.173205081,0.326485712,0.264575131,stimuli/lakes/305062_left.png,stimuli/lakes/305062_right.png,,,,0,31,31,62,1,,,,,
,,,,,,$5e8caee6b47439057c61db9f,2020-07-20_15h43.24.852,fisher_task,2020.1.3,Win32,60,0.141666667,-0.415740741,1,0,0,2.002545,scale,,,,,,0.275930788,0.223606798,0.275930788,0.223606798,stimuli/lakes/50104_left.png,stimuli/lakes/50104_right.png,,,,0,32,32,4,1,,,,,
,,,,,,$5e8caee6b47439057c61db9f,2020-07-20_15h43.24.852,fisher_task,2020.1.3,Win32,60,0.108333333,-0.303703704,1,0,0,1.61868,scale,,,,,,0.174513954,0.141421356,0.349027907,0.282842712,stimuli/lakes/206072_left.png,stimuli/lakes/206072_right.png,,,,0,33,33,72,1,,,,,
,,,,,,$5e8caee6b47439057c61db9f,2020-07-20_15h43.24.852,fisher_task,2020.1.3,Win32,60,-0.172222222,-0.417592593,1,0,0,1.200855,scale,,,,,,0.349027907,0.282842712,0.174513954,0.141421356,stimuli/lakes/807096_left.png,stimuli/lakes/807096_right.png,,,,0,34,34,96,1,,,,,
,,,,,,$5e8caee6b47439057c61db9f,2020-07-20_15h43.24.852,fisher_task,2020.1.3,Win32,60,0.097222222,-0.292592593,1,0,0,1.53443,scale,,,,,,0.1234,0.1,0.3702,0.3,stimuli/lakes/106071_left.png,stimuli/lakes/106071_right.png,,,,0,35,35,71,1,,,,,
,,,,,,$5e8caee6b47439057c61db9f,2020-07-20_15h43.24.852,fisher_task,2020.1.3,Win32,60,0.082407407,-0.284259259,1,0,0,2.402205,scale,,,,,,0.3702,0.3,0.1234,0.1,stimuli/lakes/901010_left.png,stimuli/lakes/901010_right.png,,,,0,36,36,10,1,,,,,
,,,,,,$5e8caee6b47439057c61db9f,2020-07-20_15h43.24.852,fisher_task,2020.1.3,Win32,60,0.152777778,-0.412962963,1,0,0,1.951495,scale,,,,,,0.1234,0.1,0.3702,0.3,stimuli/lakes/106080_left.png,stimuli/lakes/106080_right.png,,,,0,37,37,80,1,,,,,
,,,,,,$5e8caee6b47439057c61db9f,2020-07-20_15h43.24.852,fisher_task,2020.1.3,Win32,60,-0.013888889,-0.25462963,1,0,0,1.90134,scale,,,,,,0.2468,0.2,0.302267034,0.244948974,stimuli/lakes/407092_left.png,stimuli/lakes/407092_right.png,,,,0,38,38,92,1,,,,,
,,,,,,$5e8caee6b47439057c61db9f,2020-07-20_15h43.24.852,fisher_task,2020.1.3,Win32,60,0.150925926,-0.408333333,1,0,0,1.267675,scale,,,,,,0.21373507,0.173205081,0.326485712,0.264575131,stimuli/lakes/303034_left.png,stimuli/lakes/303034_right.png,,,,0,39,39,34,1,,,,,
,,,,,,$5e8caee6b47439057c61db9f,2020-07-20_15h43.24.852,fisher_task,2020.1.3,Win32,60,0.160185185,-0.419444444,1,0,0,0.766835,scale,,,,,,0.21373507,0.173205081,0.326485712,0.264575131,stimuli/lakes/30101_left.png,stimuli/lakes/30101_right.png,,,,0,40,40,1,1,,,,,
,,,,,,$5e8caee6b47439057c61db9f,2020-07-20_15h43.24.852,fisher_task,2020.1.3,Win32,60,-0.171296296,-0.403703704,1,0,0,1.93548,scale,,,,,,0.326485712,0.264575131,0.21373507,0.173205081,stimuli/lakes/705068_left.png,stimuli/lakes/705068_right.png,,,,0,41,41,68,1,,,,,
,,,,,,$5e8caee6b47439057c61db9f,2020-07-20_15h43.24.852,fisher_task,2020.1.3,Win32,60,-0.166666667,-0.403703704,1,0,0,1.35091,scale,,,,,,0.302267034,0.244948974,0.2468,0.2,stimuli/lakes/6090127_left.png,stimuli/lakes/6090127_right.png,,,,0,42,42,127,1,,,,,
,,,,,,$5e8caee6b47439057c61db9f,2020-07-20_15h43.24.852,fisher_task,2020.1.3,Win32,60,0.148148148,-0.409259259,1,0,0,1.11791,scale,,,,,,0.21373507,0.173205081,0.326485712,0.264575131,stimuli/lakes/303025_left.png,stimuli/lakes/303025_right.png,,,,0,43,43,25,1,,,,,
,,,,,,$5e8caee6b47439057c61db9f,2020-07-20_15h43.24.852,fisher_task,2020.1.3,Win32,60,-0.155555556,-0.415740741,1,0,0,2.302375,scale,,,,,,0.2468,0.2,0.302267034,0.244948974,stimuli/lakes/404044_left.png,stimuli/lakes/404044_right.png,,,space,0,44,44,44,1,2.277085,,,,
,,,,,,$5e8caee6b47439057c61db9f,2020-07-20_15h43.24.852,fisher_task,2020.1.3,Win32,60,0.142592593,-0.410185185,1,0,0,1.567575,scale,,,,,,0.174513954,0.141421356,0.349027907,0.282842712,stimuli/lakes/204042_left.png,stimuli/lakes/204042_right.png,,,,0,45,45,42,1,,,,,
,,,,,,$5e8caee6b47439057c61db9f,2020-07-20_15h43.24.852,fisher_task,2020.1.3,Win32,60,-0.163888889,-0.417592593,1,0,0,1.217085,scale,,,,,,0.349027907,0.282842712,0.174513954,0.141421356,stimuli/lakes/80109_left.png,stimuli/lakes/80109_right.png,,,,0,46,46,9,1,,,,,
,,,,,,$5e8caee6b47439057c61db9f,2020-07-20_15h43.24.852,fisher_task,2020.1.3,Win32,60,-0.165740741,-0.415740741,1,0,0,1.434205,scale,,,,,,0.326485712,0.264575131,0.21373507,0.173205081,stimuli/lakes/707095_left.png,stimuli/lakes/707095_right.png,,,,0,47,47,95,1,,,,,
,,,,,,$5e8caee6b47439057c61db9f,2020-07-20_15h43.24.852,fisher_task,2020.1.3,Win32,60,-0.138888889,-0.325925926,1,0,0,1.217625,scale,,,,,,0.326485712,0.264575131,0.21373507,0.173205081,stimuli/lakes/704047_left.png,stimuli/lakes/704047_right.png,,,,0,48,48,47,1,,,,,
,,,,,,$5e8caee6b47439057c61db9f,2020-07-20_15h43.24.852,fisher_task,2020.1.3,Win32,60,0.107407407,-0.298148148,1,0,0,1.351025,scale,,,,,,0.2468,0.2,0.302267034,0.244948974,stimuli/lakes/404053_left.png,stimuli/lakes/404053_right.png,,,,0,49,49,53,1,,,,,
,,,,,,$5e8caee6b47439057c61db9f,2020-07-20_15h43.24.852,fisher_task,2020.1.3,Win32,60,-0.008333333,-0.257407407,1,0,0,1.634625,scale,,,,,,0.349027907,0.282842712,0.174513954,0.141421356,stimuli/lakes/804048_left.png,stimuli/lakes/804048_right.png,,,,0,50,50,48,1,,,,,
,,,,,,$5e8caee6b47439057c61db9f,2020-07-20_15h43.24.852,fisher_task,2020.1.3,Win32,60,-0.164814815,-0.425,1,0,0,1.067155,scale,,,,,,0.3702,0.3,0.1234,0.1,stimuli/lakes/9070106_left.png,stimuli/lakes/9070106_right.png,,,,0,51,51,106,1,,,,,
,,,,,,$5e8caee6b47439057c61db9f,2020-07-20_15h43.24.852,fisher_task,2020.1.3,Win32,60,-0.1,-0.3,1,0,0,2.052185,scale,,,,,,0.302267034,0.244948974,0.2468,0.2,stimuli/lakes/6080115_left.png,stimuli/lakes/6080115_right.png,,,,0,52,52,115,1,,,,,
,,,,,,$5e8caee6b47439057c61db9f,2020-07-20_15h43.24.852,fisher_task,2020.1.3,Win32,60,-0.159259259,-0.412037037,1,0,0,2.75239,scale,,,,,,0.302267034,0.244948974,0.2468,0.2,stimuli/lakes/6090126_left.png,stimuli/lakes/6090126_right.png,,,,0,53,53,126,1,,,,,
,,,,,,$5e8caee6b47439057c61db9f,2020-07-20_15h43.24.852,fisher_task,2020.1.3,Win32,60,-0.161111111,-0.412037037,1,0,0,3.286165,scale,,,,,,0.21373507,0.173205081,0.326485712,0.264575131,stimuli/lakes/307091_left.png,stimuli/lakes/307091_right.png,,,,0,54,54,91,1,,,,,
,,,,,,$5e8caee6b47439057c61db9f,2020-07-20_15h43.24.852,fisher_task,2020.1.3,Win32,60,0.1,-0.3,1,0,0,6.623535,scale,,,,,,0.1234,0.1,0.3702,0.3,stimuli/lakes/105059_left.png,stimuli/lakes/105059_right.png,,,,0,55,55,59,1,,,,,
,,,,,,$5e8caee6b47439057c61db9f,2020-07-20_15h43.24.852,fisher_task,2020.1.3,Win32,60,0.158333333,-0.419444444,1,0,0,1.58469,scale,,,,,,0.21373507,0.173205081,0.326485712,0.264575131,stimuli/lakes/302012_left.png,stimuli/lakes/302012_right.png,,,,0,56,56,12,1,,,,,
,,,,,,$5e8caee6b47439057c61db9f,2020-07-20_15h43.24.852,fisher_task,2020.1.3,Win32,60,0.144444444,-0.42037037,1,0,0,1.86903,scale,,,,,,0.326485712,0.264575131,0.21373507,0.173205081,stimuli/lakes/70108_left.png,stimuli/lakes/70108_right.png,,,,0,57,57,8,1,,,,,
,,,,,,$5e8caee6b47439057c61db9f,2020-07-20_15h43.24.852,fisher_task,2020.1.3,Win32,60,0.153703704,-0.42037037,1,0,0,1.734705,scale,,,,,,0.302267034,0.244948974,0.2468,0.2,stimuli/lakes/60105_left.png,stimuli/lakes/60105_right.png,,,,0,58,58,5,1,,,,,
,,,,,,$5e8caee6b47439057c61db9f,2020-07-20_15h43.24.852,fisher_task,2020.1.3,Win32,60,-0.098148148,-0.302777778,1,0,0,1.3177,scale,,,,,,0.349027907,0.282842712,0.174513954,0.141421356,stimuli/lakes/804057_left.png,stimuli/lakes/804057_right.png,,,,0,59,59,57,1,,,,,
,,,,,,$5e8caee6b47439057c61db9f,2020-07-20_15h43.24.852,fisher_task,2020.1.3,Win32,60,-0.167592593,-0.423148148,1,0,0,1.568015,scale,,,,,,0.275930788,0.223606798,0.275930788,0.223606798,stimuli/lakes/5090125_left.png,stimuli/lakes/5090125_right.png,,,,0,60,60,125,1,,,,,
,,,,,,$5e8caee6b47439057c61db9f,2020-07-20_15h43.24.852,fisher_task,2020.1.3,Win32,60,0.109259259,-0.318518519,1,0,0,1.584725,scale,,,,,,0.21373507,0.173205081,0.326485712,0.264575131,stimuli/lakes/305061_left.png,stimuli/lakes/305061_right.png,,,,0,61,61,61,1,,,,,
,,,,,,$5e8caee6b47439057c61db9f,2020-07-20_15h43.24.852,fisher_task,2020.1.3,Win32,60,0.153703704,-0.417592593,1,0,0,1.667845,scale,,,,,,0.174513954,0.141421356,0.349027907,0.282842712,stimuli/lakes/205060_left.png,stimuli/lakes/205060_right.png,,,,0,62,62,60,1,,,,,
,,,,,,$5e8caee6b47439057c61db9f,2020-07-20_15h43.24.852,fisher_task,2020.1.3,Win32,60,-0.110185185,-0.281481481,1,0,0,1.9513,scale,,,,,,0.174513954,0.141421356,0.349027907,0.282842712,stimuli/lakes/2080108_left.png,stimuli/lakes/2080108_right.png,,,,0,63,63,108,1,,,,,
,,,,,,$5e8caee6b47439057c61db9f,2020-07-20_15h43.24.852,fisher_task,2020.1.3,Win32,60,-0.164814815,-0.424074074,1,0,0,1.48452,scale,,,,,,0.349027907,0.282842712,0.174513954,0.141421356,stimuli/lakes/806087_left.png,stimuli/lakes/806087_right.png,,,,0,64,64,87,1,,,,,
,,,,,,$5e8caee6b47439057c61db9f,2020-07-20_15h43.24.852,fisher_task,2020.1.3,Win32,60,-0.162962963,-0.425,1,0,0,1.26826,scale,,,,,,0.349027907,0.282842712,0.174513954,0.141421356,stimuli/lakes/805069_left.png,stimuli/lakes/805069_right.png,,,,0,65,65,69,1,,,,,
,,,,,,$5e8caee6b47439057c61db9f,2020-07-20_15h43.24.852,fisher_task,2020.1.3,Win32,60,-0.109259259,-0.294444444,1,0,0,1.48447,scale,,,,,,0.3702,0.3,0.1234,0.1,stimuli/lakes/904058_left.png,stimuli/lakes/904058_right.png,,,space,0,66,66,58,1,1.80397,,,,
,,,,,,$5e8caee6b47439057c61db9f,2020-07-20_15h43.24.852,fisher_task,2020.1.3,Win32,60,-0.112037037,-0.308333333,1,0,0,1.58484,scale,,,,,,0.302267034,0.244948974,0.2468,0.2,stimuli/lakes/6070103_left.png,stimuli/lakes/6070103_right.png,,,,0,67,67,103,1,,,,,
,,,,,,$5e8caee6b47439057c61db9f,2020-07-20_15h43.24.852,fisher_task,2020.1.3,Win32,60,-0.171296296,-0.423148148,1,0,0,1.668675,scale,,,,,,0.326485712,0.264575131,0.21373507,0.173205081,stimuli/lakes/705067_left.png,stimuli/lakes/705067_right.png,,,,0,68,68,67,1,,,,,
,,,,,,$5e8caee6b47439057c61db9f,2020-07-20_15h43.24.852,fisher_task,2020.1.3,Win32,60,0.105555556,-0.302777778,1,0,0,2.01815,scale,,,,,,0.21373507,0.173205081,0.326485712,0.264575131,stimuli/lakes/304052_left.png,stimuli/lakes/304052_right.png,,,,0,69,69,52,1,,,,,
,,,,,,$5e8caee6b47439057c61db9f,2020-07-20_15h43.24.852,fisher_task,2020.1.3,Win32,60,-0.157407407,-0.411111111,1,0,0,1.684835,scale,,,,,,0.2468,0.2,0.302267034,0.244948974,stimuli/lakes/4080111_left.png,stimuli/lakes/4080111_right.png,,,,0,70,70,111,1,,,,,
,,,,,,$5e8caee6b47439057c61db9f,2020-07-20_15h43.24.852,fisher_task,2020.1.3,Win32,60,0.098148148,-0.288888889,1,0,0,1.601645,scale,,,,,,0.174513954,0.141421356,0.349027907,0.282842712,stimuli/lakes/204051_left.png,stimuli/lakes/204051_right.png,,,,0,71,71,51,1,,,,,
,,,,,,$5e8caee6b47439057c61db9f,2020-07-20_15h43.24.852,fisher_task,2020.1.3,Win32,60,-0.182407407,-0.406481481,1,0,0,2.21939,scale,,,,,,0.275930788,0.223606798,0.275930788,0.223606798,stimuli/lakes/507093_left.png,stimuli/lakes/507093_right.png,,,,0,72,72,93,1,,,,,
,,,,,,$5e8caee6b47439057c61db9f,2020-07-20_15h43.24.852,fisher_task,2020.1.3,Win32,60,0.160185185,-0.413888889,1,0,0,1.35092,scale,,,,,,0.1234,0.1,0.3702,0.3,stimuli/lakes/103032_left.png,stimuli/lakes/103032_right.png,,,,0,73,73,32,1,,,,,
,,,,,,$5e8caee6b47439057c61db9f,2020-07-20_15h43.24.852,fisher_task,2020.1.3,Win32,60,0.142592593,-0.412037037,1,0,0,1.701255,scale,,,,,,0.275930788,0.223606798,0.275930788,0.223606798,stimuli/lakes/504054_left.png,stimuli/lakes/504054_right.png,,,,0,74,74,54,1,,,,,
,,,,,,$5e8caee6b47439057c61db9f,2020-07-20_15h43.24.852,fisher_task,2020.1.3,Win32,60,0.137037037,-0.415740741,1,0,0,13.18093,scale,,,,,,0.302267034,0.244948974,0.2468,0.2,stimuli/lakes/602017_left.png,stimuli/lakes/602017_right.png,,,,0,75,75,17,1,,,,,
,,,,,,$5e8caee6b47439057c61db9f,2020-07-20_15h43.24.852,fisher_task,2020.1.3,Win32,60,-0.162037037,-0.419444444,1,0,0,1.16719,scale,,,,,,0.349027907,0.282842712,0.174513954,0.141421356,stimuli/lakes/803030_left.png,stimuli/lakes/803030_right.png,,,,0,76,76,30,1,,,,,
,,,,,,$5e8caee6b47439057c61db9f,2020-07-20_15h43.24.852,fisher_task,2020.1.3,Win32,60,-0.114814815,-0.302777778,1,0,0,1.201485,scale,,,,,,0.302267034,0.244948974,0.2468,0.2,stimuli/lakes/607094_left.png,stimuli/lakes/607094_right.png,,,,0,77,77,94,1,,,,,
,,,,,,$5e8caee6b47439057c61db9f,2020-07-20_15h43.24.852,fisher_task,2020.1.3,Win32,60,-0.173148148,-0.416666667,1,0,0,1.36724,scale,,,,,,0.326485712,0.264575131,0.21373507,0.173205081,stimuli/lakes/7090129_left.png,stimuli/lakes/7090129_right.png,,,,0,78,78,129,1,,,,,
,,,,,,$5e8caee6b47439057c61db9f,2020-07-20_15h43.24.852,fisher_task,2020.1.3,Win32,60,0.066666667,-0.292592593,1,0,0,5.606685,scale,,,,,,0.174513954,0.141421356,0.349027907,0.282842712,stimuli/lakes/2090120_left.png,stimuli/lakes/2090120_right.png,,,,0,79,79,120,1,,,,,
,,,,,,$5e8caee6b47439057c61db9f,2020-07-20_15h43.24.852,fisher_task,2020.1.3,Win32,60,-0.02037037,-0.258333333,1,0,0,2.368495,scale,,,,,,0.302267034,0.244948974,0.2468,0.2,stimuli/lakes/604046_left.png,stimuli/lakes/604046_right.png,,,,0,80,80,46,1,,,,,
,,,,,,$5e8caee6b47439057c61db9f,2020-07-20_15h43.24.852,fisher_task,2020.1.3,Win32,60,-0.162037037,-0.414814815,1,0,0,1.36764,scale,,,,,,0.275930788,0.223606798,0.275930788,0.223606798,stimuli/lakes/5070102_left.png,stimuli/lakes/5070102_right.png,,,,0,81,81,102,1,,,,,
,,,,,,$5e8caee6b47439057c61db9f,2020-07-20_15h43.24.852,fisher_task,2020.1.3,Win32,60,-0.160185185,-0.415740741,1,0,0,2.30211,scale,,,,,,0.1234,0.1,0.3702,0.3,stimuli/lakes/107098_left.png,stimuli/lakes/107098_right.png,,,,0,82,82,98,1,,,,,
,,,,,,$5e8caee6b47439057c61db9f,2020-07-20_15h43.24.852,fisher_task,2020.1.3,Win32,60,-0.156481481,-0.422222222,1,0,0,1.23426,scale,,,,,,0.349027907,0.282842712,0.174513954,0.141421356,stimuli/lakes/806078_left.png,stimuli/lakes/806078_right.png,,,,0,83,83,78,1,,,,,
,,,,,,$5e8caee6b47439057c61db9f,2020-07-20_15h43.24.852,fisher_task,2020.1.3,Win32,60,0.140740741,-0.418518519,1,0,0,1.2009,scale,,,,,,0.21373507,0.173205081,0.326485712,0.264575131,stimuli/lakes/302013_left.png,stimuli/lakes/302013_right.png,,,,0,84,84,13,1,,,,,
,,,,,,$5e8caee6b47439057c61db9f,2020-07-20_15h43.24.852,fisher_task,2020.1.3,Win32,60,-0.109259259,-0.289814815,1,0,0,1.63464,scale,,,,,,0.326485712,0.264575131,0.21373507,0.173205081,stimuli/lakes/706086_left.png,stimuli/lakes/706086_right.png,,,,0,85,85,86,1,,,,,
,,,,,,$5e8caee6b47439057c61db9f,2020-07-20_15h43.24.852,fisher_task,2020.1.3,Win32,60,0.163888889,-0.425,1,0,0,1.467615,scale,,,,,,0.174513954,0.141421356,0.349027907,0.282842712,stimuli/lakes/202011_left.png,stimuli/lakes/202011_right.png,,,,0,86,86,11,1,,,,,
,,,,,,$5e8caee6b47439057c61db9f,2020-07-20_15h43.24.852,fisher_task,2020.1.3,Win32,60,-0.012037037,-0.267592593,1,0,0,1.63445,scale,,,,,,0.2468,0.2,0.302267034,0.244948974,stimuli/lakes/405064_left.png,stimuli/lakes/405064_right.png,,,,0,87,87,64,1,,,,,
,,,,,,$5e8caee6b47439057c61db9f,2020-07-20_15h43.24.852,fisher_task,2020.1.3,Win32,60,-0.15462963,-0.407407407,1,0,0,1.952165,scale,,,,,,0.21373507,0.173205081,0.326485712,0.264575131,stimuli/lakes/3080110_left.png,stimuli/lakes/3080110_right.png,,,space,0,88,88,110,1,1.45734,,,,
,,,,,,$5e8caee6b47439057c61db9f,2020-07-20_15h43.24.852,fisher_task,2020.1.3,Win32,60,-0.111111111,-0.289814815,1,0,0,1.901715,scale,,,,,,0.326485712,0.264575131,0.21373507,0.173205081,stimuli/lakes/704056_left.png,stimuli/lakes/704056_right.png,,,,0,89,89,56,1,,,,,
,,,,,,$5e8caee6b47439057c61db9f,2020-07-20_15h43.24.852,fisher_task,2020.1.3,Win32,60,0,-0.249074074,1,0,0,1.21741,scale,,,,,,0.302267034,0.244948974,0.2468,0.2,stimuli/lakes/606076_left.png,stimuli/lakes/606076_right.png,,,,0,90,90,76,1,,,,,
,,,,,,$5e8caee6b47439057c61db9f,2020-07-20_15h43.24.852,fisher_task,2020.1.3,Win32,60,-0.12037037,-0.305555556,1,0,0,1.751415,scale,,,,,,0.2468,0.2,0.302267034,0.244948974,stimuli/lakes/4080112_left.png,stimuli/lakes/4080112_right.png,,,,0,91,91,112,1,,,,,
,,,,,,$5e8caee6b47439057c61db9f,2020-07-20_15h43.24.852,fisher_task,2020.1.3,Win32,60,0.127777778,-0.34537037,1,0,0,2.118485,scale,,,,,,0.326485712,0.264575131,0.21373507,0.173205081,stimuli/lakes/703038_left.png,stimuli/lakes/703038_right.png,,,,0,92,92,38,1,,,,,
,,,,,,$5e8caee6b47439057c61db9f,2020-07-20_15h43.24.852,fisher_task,2020.1.3,Win32,60,-0.096296296,-0.275,1,0,0,2.018915,scale,,,,,,0.3702,0.3,0.1234,0.1,stimuli/lakes/903040_left.png,stimuli/lakes/903040_right.png,,,,0,93,93,40,1,,,,,
,,,,,,$5e8caee6b47439057c61db9f,2020-07-20_15h43.24.852,fisher_task,2020.1.3,Win32,60,0.00462963,-0.262037037,1,0,0,2.435685,scale,,,,,,0.302267034,0.244948974,0.2468,0.2,stimuli/lakes/605065_left.png,stimuli/lakes/605065_right.png,,,,0,94,94,65,1,,,,,
,,,,,,$5e8caee6b47439057c61db9f,2020-07-20_15h43.24.852,fisher_task,2020.1.3,Win32,60,0.15,-0.42037037,1,0,0,1.501765,scale,,,,,,0.275930788,0.223606798,0.275930788,0.223606798,stimuli/lakes/504045_left.png,stimuli/lakes/504045_right.png,,,,0,95,95,45,1,,,,,
,,,,,,$5e8caee6b47439057c61db9f,2020-07-20_15h43.24.852,fisher_task,2020.1.3,Win32,60,0.098148148,-0.289814815,1,0,0,1.968715,scale,,,,,,0.326485712,0.264575131,0.21373507,0.173205081,stimuli/lakes/703029_left.png,stimuli/lakes/703029_right.png,,,,0,96,96,29,1,,,,,
,,,,,,$5e8caee6b47439057c61db9f,2020-07-20_15h43.24.852,fisher_task,2020.1.3,Win32,60,0.103703704,-0.30462963,1,0,0,2.05159,scale,,,,,,0.1234,0.1,0.3702,0.3,stimuli/lakes/107089_left.png,stimuli/lakes/107089_right.png,,,,0,97,97,89,1,,,,,
,,,,,,$5e8caee6b47439057c61db9f,2020-07-20_15h43.24.852,fisher_task,2020.1.3,Win32,60,-0.001851852,-0.248148148,1,0,0,1.500875,scale,,,,,,0.2468,0.2,0.302267034,0.244948974,stimuli/lakes/405063_left.png,stimuli/lakes/405063_right.png,,,,0,98,98,63,1,,,,,
,,,,,,$5e8caee6b47439057c61db9f,2020-07-20_15h43.24.852,fisher_task,2020.1.3,Win32,60,-0.162037037,-0.407407407,1,0,0,1.45024,scale,,,,,,0.3702,0.3,0.1234,0.1,stimuli/lakes/906079_left.png,stimuli/lakes/906079_right.png,,,,0,99,99,79,1,,,,,
,,,,,,$5e8caee6b47439057c61db9f,2020-07-20_15h43.24.852,fisher_task,2020.1.3,Win32,60,-0.101851852,-0.29537037,1,0,0,2.301695,scale,,,,,,0.326485712,0.264575131,0.21373507,0.173205081,stimuli/lakes/706077_left.png,stimuli/lakes/706077_right.png,,,,0,100,100,77,1,,,,,
,,,,,,$5e8caee6b47439057c61db9f,2020-07-20_15h43.24.852,fisher_task,2020.1.3,Win32,60,0.093518519,-0.291666667,1,0,0,1.618845,scale,,,,,,0.275930788,0.223606798,0.275930788,0.223606798,stimuli/lakes/503027_left.png,stimuli/lakes/503027_right.png,,,,0,101,101,27,1,,,,,
,,,,,,$5e8caee6b47439057c61db9f,2020-07-20_15h43.24.852,fisher_task,2020.1.3,Win32,60,0.157407407,-0.427777778,1,0,0,1.917185,scale,,,,,,0.302267034,0.244948974,0.2468,0.2,stimuli/lakes/602018_left.png,stimuli/lakes/602018_right.png,,,,0,102,102,18,1,,,,,
,,,,,,$5e8caee6b47439057c61db9f,2020-07-20_15h43.24.852,fisher_task,2020.1.3,Win32,60,0.098148148,-0.291666667,1,0,0,2.235175,scale,,,,,,0.326485712,0.264575131,0.21373507,0.173205081,stimuli/lakes/7080116_left.png,stimuli/lakes/7080116_right.png,,,,0,103,103,116,1,,,,,
,,,,,,$5e8caee6b47439057c61db9f,2020-07-20_15h43.24.852,fisher_task,2020.1.3,Win32,60,0.14537037,-0.417592593,1,0,0,3.119475,scale,,,,,,0.275930788,0.223606798,0.275930788,0.223606798,stimuli/lakes/502016_left.png,stimuli/lakes/502016_right.png,,,,0,104,104,16,1,,,,,
,,,,,,$5e8caee6b47439057c61db9f,2020-07-20_15h43.24.852,fisher_task,2020.1.3,Win32,60,-0.078703704,-0.265740741,1,0,0,2.38554,scale,,,,,,0.302267034,0.244948974,0.2468,0.2,stimuli/lakes/603028_left.png,stimuli/lakes/603028_right.png,,,,0,105,105,28,1,,,,,
,,,,,,$5e8caee6b47439057c61db9f,2020-07-20_15h43.24.852,fisher_task,2020.1.3,Win32,60,-0.012037037,-0.258333333,1,0,0,1.851545,scale,,,,,,0.21373507,0.173205081,0.326485712,0.264575131,stimuli/lakes/3080109_left.png,stimuli/lakes/3080109_right.png,,,,0,106,106,109,1,,,,,
,,,,,,$5e8caee6b47439057c61db9f,2020-07-20_15h43.24.852,fisher_task,2020.1.3,Win32,60,0.141666667,-0.418518519,1,0,0,1.500875,scale,,,,,,0.1234,0.1,0.3702,0.3,stimuli/lakes/104050_left.png,stimuli/lakes/104050_right.png,,,,0,107,107,50,1,,,,,
,,,,,,$5e8caee6b47439057c61db9f,2020-07-20_15h43.24.852,fisher_task,2020.1.3,Win32,60,-0.090740741,-0.282407407,1,0,0,1.80154,scale,,,,,,0.2468,0.2,0.302267034,0.244948974,stimuli/lakes/4070101_left.png,stimuli/lakes/4070101_right.png,,,,0,108,108,101,1,,,,,
,,,,,,$5e8caee6b47439057c61db9f,2020-07-20_15h43.24.852,fisher_task,2020.1.3,Win32,60,-0.094444444,-0.286111111,1,0,0,1.76822,scale,,,,,,0.174513954,0.141421356,0.349027907,0.282842712,stimuli/lakes/207090_left.png,stimuli/lakes/207090_right.png,,,,0,109,109,90,1,,,,,
,,,,,,$5e8caee6b47439057c61db9f,2020-07-20_15h43.24.852,fisher_task,2020.1.3,Win32,60,0.15462963,-0.416666667,1,0,0,1.20114,scale,,,,,,0.2468,0.2,0.302267034,0.244948974,stimuli/lakes/40103_left.png,stimuli/lakes/40103_right.png,,,space,0,110,110,3,1,1.60235,,,,
,,,,,,$5e8caee6b47439057c61db9f,2020-07-20_15h43.24.852,fisher_task,2020.1.3,Win32,60,0.10462963,-0.308333333,1,0,0,1.184185,scale,,,,,,0.21373507,0.173205081,0.326485712,0.264575131,stimuli/lakes/304043_left.png,stimuli/lakes/304043_right.png,,,,0,111,111,43,1,,,,,
,,,,,,$5e8caee6b47439057c61db9f,2020-07-20_15h43.24.852,fisher_task,2020.1.3,Win32,60,0.094444444,-0.289814815,1,0,0,0.81706,scale,,,,,,0.2468,0.2,0.302267034,0.244948974,stimuli/lakes/403035_left.png,stimuli/lakes/403035_right.png,,,,0,112,112,35,1,,,,,
,,,,,,$5e8caee6b47439057c61db9f,2020-07-20_15h43.24.852,fisher_task,2020.1.3,Win32,60,-0.084259259,-0.286111111,1,0,0,1.80192,scale,,,,,,0.2468,0.2,0.302267034,0.244948974,stimuli/lakes/4090123_left.png,stimuli/lakes/4090123_right.png,,,,0,113,113,123,1,,,,,
,,,,,,$5e8caee6b47439057c61db9f,2020-07-20_15h43.24.852,fisher_task,2020.1.3,Win32,60,-0.161111111,-0.417592593,1,0,0,1.55131,scale,,,,,,0.3702,0.3,0.1234,0.1,stimuli/lakes/906088_left.png,stimuli/lakes/906088_right.png,,,,0,114,114,88,1,,,,,
,,,,,,$5e8caee6b47439057c61db9f,2020-07-20_15h43.24.852,fisher_task,2020.1.3,Win32,60,-0.084259259,-0.27962963,1,0,0,2.2521,scale,,,,,,0.3702,0.3,0.1234,0.1,stimuli/lakes/903031_left.png,stimuli/lakes/903031_right.png,,,,0,115,115,31,1,,,,,
,,,,,,$5e8caee6b47439057c61db9f,2020-07-20_15h43.24.852,fisher_task,2020.1.3,Win32,60,-0.159259259,-0.422222222,1,0,0,1.834875,scale,,,,,,0.326485712,0.264575131,0.21373507,0.173205081,stimuli/lakes/7090128_left.png,stimuli/lakes/7090128_right.png,,,,0,116,116,128,1,,,,,
,,,,,,$5e8caee6b47439057c61db9f,2020-07-20_15h43.24.852,fisher_task,2020.1.3,Win32,60,-0.14537037,-0.355555556,1,0,0,1.684365,scale,,,,,,0.3702,0.3,0.1234,0.1,stimuli/lakes/905070_left.png,stimuli/lakes/905070_right.png,,,,0,117,117,70,1,,,,,
,,,,,,$5e8caee6b47439057c61db9f,2020-07-20_15h43.24.852,fisher_task,2020.1.3,Win32,60,-0.156481481,-0.414814815,1,0,0,1.01774,scale,,,,,,0.3702,0.3,0.1234,0.1,stimuli/lakes/907097_left.png,stimuli/lakes/907097_right.png,,,,0,118,118,97,1,,,,,
,,,,,,$5e8caee6b47439057c61db9f,2020-07-20_15h43.24.852,fisher_task,2020.1.3,Win32,60,0.141666667,-0.368518519,1,0,0,1.45112,scale,,,,,,0.2468,0.2,0.302267034,0.244948974,stimuli/lakes/402015_left.png,stimuli/lakes/402015_right.png,,,,0,119,119,15,1,,,,,
,,,,,,$5e8caee6b47439057c61db9f,2020-07-20_15h43.24.852,fisher_task,2020.1.3,Win32,60,0.073148148,-0.269444444,1,0,0,1.86855,scale,,,,,,0.174513954,0.141421356,0.349027907,0.282842712,stimuli/lakes/207099_left.png,stimuli/lakes/207099_right.png,,,,0,120,120,99,1,,,,,
,,,,,,$5e8caee6b47439057c61db9f,2020-07-20_15h43.24.852,fisher_task,2020.1.3,Win32,60,0.141666667,-0.414814815,1,0,0,2.10325,scale,,,,,,0.1234,0.1,0.3702,0.3,stimuli/lakes/104041_left.png,stimuli/lakes/104041_right.png,,,,0,121,121,41,1,,,,,
,,,,,,$5e8caee6b47439057c61db9f,2020-07-20_15h43.24.852,fisher_task,2020.1.3,Win32,60,-0.158333333,-0.418518519,1,0,0,1.16768,scale,,,,,,0.326485712,0.264575131,0.21373507,0.173205081,stimuli/lakes/7070104_left.png,stimuli/lakes/7070104_right.png,,,,0,122,122,104,1,,,,,
,,,,,,$5e8caee6b47439057c61db9f,2020-07-20_15h43.24.852,fisher_task,2020.1.3,Win32,60,0.168518519,-0.421296296,1,0,0,1.134805,scale,,,,,,0.174513954,0.141421356,0.349027907,0.282842712,stimuli/lakes/203024_left.png,stimuli/lakes/203024_right.png,,,,0,123,123,24,1,,,,,
,,,,,,$5e8caee6b47439057c61db9f,2020-07-20_15h43.24.852,fisher_task,2020.1.3,Win32,60,-0.106481481,-0.294444444,1,0,0,2.80272,scale,,,,,,0.21373507,0.173205081,0.326485712,0.264575131,stimuli/lakes/3090121_left.png,stimuli/lakes/3090121_right.png,,,,0,124,124,121,1,,,,,
,,,,,,$5e8caee6b47439057c61db9f,2020-07-20_15h43.24.852,fisher_task,2020.1.3,Win32,60,-0.112962963,-0.297222222,1,0,0,2.417775,scale,,,,,,0.2468,0.2,0.302267034,0.244948974,stimuli/lakes/406083_left.png,stimuli/lakes/406083_right.png,,,,0,125,125,83,1,,,,,
,,,,,,$5e8caee6b47439057c61db9f,2020-07-20_15h43.24.852,fisher_task,2020.1.3,Win32,60,-0.002777778,-0.252777778,1,0,0,3.95397,scale,,,,,,0.275930788,0.223606798,0.275930788,0.223606798,stimuli/lakes/5080113_left.png,stimuli/lakes/5080113_right.png,,,,0,126,126,113,1,,,,,
,,,,,,$5e8caee6b47439057c61db9f,2020-07-20_15h43.24.852,fisher_task,2020.1.3,Win32,60,0.144444444,-0.362962963,1,0,0,1.334215,scale,,,,,,0.2468,0.2,0.302267034,0.244948974,stimuli/lakes/403026_left.png,stimuli/lakes/403026_right.png,,,,0,127,127,26,1,,,,,
,,,,,,$5e8caee6b47439057c61db9f,2020-07-20_15h43.24.852,fisher_task,2020.1.3,Win32,60,0.069444444,-0.286111111,1,0,0,2.38523,scale,,,,,,0.349027907,0.282842712,0.174513954,0.141421356,stimuli/lakes/802021_left.png,stimuli/lakes/802021_right.png,,,,0,128,128,21,1,,,,,
,,,,,,$5e8caee6b47439057c61db9f,2020-07-20_15h43.24.852,fisher_task,2020.1.3,Win32,60,-0.142592593,-0.419444444,1,0,0,1.267615,scale,,,,,,0.302267034,0.244948974,0.2468,0.2,stimuli/lakes/6080114_left.png,stimuli/lakes/6080114_right.png,,,,0,129,129,114,1,,,,,
,,,,,,$5e8caee6b47439057c61db9f,2020-07-20_15h43.24.852,fisher_task,2020.1.3,Win32,60,,,,,,,,,,,,,,,,,,,,,,,,,,,,space,10.605655,space,24.7808
