keySpace.keys,instructions.thisRepN,instructions.thisTrialN,instructions.thisN,instructions.thisIndex,instructions.ran,participant,date,expName,psychopyVersion,OS,frameRate,mouse.x,mouse.y,mouse.leftButton,mouse.midButton,mouse.rightButton,mouse.time,mouse.clicked_name,training.thisRepN,training.thisTrialN,training.thisN,training.thisIndex,training.ran,widthBasketLeft,heightBasketLeft,widthBasketRight,heightBasketRight,leftLake,rightLake,space2.keys,space2.rt,space1.keys,trials.thisRepN,trials.thisTrialN,trials.thisN,trials.thisIndex,trials.ran,space1.rt,finalSpace1.keys,finalSpace1.rt,finalSpace2.keys,finalSpace2.rt
,0,0,0,0,1,$5e5aa8d9040204000bf88917,2020-07-20_15h39.10.067,fisher_task,2020.1.3,Win32,60,,,,,,,,,,,,,,,,,,,,,,,,,,,,,,,
,,,,,,$5e5aa8d9040204000bf88917,2020-07-20_15h39.10.067,fisher_task,2020.1.3,Win32,60,0.195555556,-0.428888889,1,0,0,3.506765,scale,0,0,0,0,1,0.275930788,0.223606798,0.275930788,0.223606798,stimuli/training/20_left.png,stimuli/training/20_right.png,,,,,,,,,,,,,
,,,,,,$5e5aa8d9040204000bf88917,2020-07-20_15h39.10.067,fisher_task,2020.1.3,Win32,60,-0.204444444,-0.437777778,1,0,0,2.003685,scale,0,1,1,1,1,0.275930788,0.223606798,0.275930788,0.223606798,stimuli/training/80_left.png,stimuli/training/80_right.png,,,,,,,,,,,,,
,,,,,,$5e5aa8d9040204000bf88917,2020-07-20_15h39.10.067,fisher_task,2020.1.3,Win32,60,-0.011111111,-0.231111111,1,0,0,2.120545,scale,0,2,2,2,1,0.174513954,0.141421356,0.349027907,0.282842712,stimuli/training/50_left.png,stimuli/training/50_right.png,,,,,,,,,,,,,
,,,,,,$5e5aa8d9040204000bf88917,2020-07-20_15h39.10.067,fisher_task,2020.1.3,Win32,60,-0.093333333,-0.252222222,1,0,0,2.72169,scale,0,3,3,3,1,0.349027907,0.282842712,0.174513954,0.141421356,stimuli/training/50_left.png,stimuli/training/50_right.png,,,,,,,,,,,,,
,,,,,,$5e5aa8d9040204000bf88917,2020-07-20_15h39.10.067,fisher_task,2020.1.3,Win32,60,0.128888889,-0.296666667,1,0,0,2.187495,scale,0,4,4,4,1,0.275930788,0.223606798,0.275930788,0.223606798,stimuli/training/50_left.png,stimuli/training/50_right.png,,,,,,,,,,,,,
,,,,,,$5e5aa8d9040204000bf88917,2020-07-20_15h39.10.067,fisher_task,2020.1.3,Win32,60,0.186666667,-0.432222222,1,0,0,1.30229,scale,0,5,5,5,1,0.174513954,0.141421356,0.349027907,0.282842712,stimuli/training/20_left.png,stimuli/training/20_right.png,,,,,,,,,,,,,
,,,,,,$5e5aa8d9040204000bf88917,2020-07-20_15h39.10.067,fisher_task,2020.1.3,Win32,60,-0.186666667,-0.426666667,1,0,0,3.43984,scale,0,6,6,6,1,0.349027907,0.282842712,0.174513954,0.141421356,stimuli/training/80_left.png,stimuli/training/80_right.png,,,,,,,,,,,,,
,,,,,,$5e5aa8d9040204000bf88917,2020-07-20_15h39.10.067,fisher_task,2020.1.3,Win32,60,0.176666667,-0.427777778,1,0,0,1.20213,scale,0,7,7,7,1,0.1234,0.1,0.3702,0.3,stimuli/training/30_left.png,stimuli/training/30_right.png,,,,,,,,,,,,,
,,,,,,$5e5aa8d9040204000bf88917,2020-07-20_15h39.10.067,fisher_task,2020.1.3,Win32,60,-0.182222222,-0.423333333,1,0,0,1.15198,scale,0,8,8,8,1,0.3702,0.3,0.1234,0.1,stimuli/training/70_left.png,stimuli/training/70_right.png,,,,,,,,,,,,,
,,,,,,$5e5aa8d9040204000bf88917,2020-07-20_15h39.10.067,fisher_task,2020.1.3,Win32,60,-0.162222222,-0.424444444,1,0,0,1.30213,scale,0,9,9,9,1,0.326485712,0.264575131,0.21373507,0.173205081,stimuli/training/90_left.png,stimuli/training/90_right.png,,,,,,,,,,,,,
,,,,,,$5e5aa8d9040204000bf88917,2020-07-20_15h39.10.067,fisher_task,2020.1.3,Win32,60,0.153333333,-0.326666667,1,0,0,2.82184,scale,0,10,10,10,1,0.21373507,0.173205081,0.326485712,0.264575131,stimuli/training/10_left.png,stimuli/training/10_right.png,,,,,,,,,,,,,
,,,,,,$5e5aa8d9040204000bf88917,2020-07-20_15h39.10.067,fisher_task,2020.1.3,Win32,60,-0.061111111,-0.243333333,1,0,0,4.57527,scale,,,,,,0.2468,0.2,0.302267034,0.244948974,stimuli/lakes/407092_left.png,stimuli/lakes/407092_right.png,space,4.17877,,0,0,0,92,1,,,,,
,,,,,,$5e5aa8d9040204000bf88917,2020-07-20_15h39.10.067,fisher_task,2020.1.3,Win32,60,0.13,-0.297777778,1,0,0,2.68814,scale,,,,,,0.302267034,0.244948974,0.2468,0.2,stimuli/lakes/603037_left.png,stimuli/lakes/603037_right.png,,,,0,1,1,37,1,,,,,
,,,,,,$5e5aa8d9040204000bf88917,2020-07-20_15h39.10.067,fisher_task,2020.1.3,Win32,60,-0.181111111,-0.396666667,1,0,0,1.88685,scale,,,,,,0.3702,0.3,0.1234,0.1,stimuli/lakes/906088_left.png,stimuli/lakes/906088_right.png,,,,0,2,2,88,1,,,,,
,,,,,,$5e5aa8d9040204000bf88917,2020-07-20_15h39.10.067,fisher_task,2020.1.3,Win32,60,-0.192222222,-0.44,1,0,0,1.619545,scale,,,,,,0.326485712,0.264575131,0.21373507,0.173205081,stimuli/lakes/7090129_left.png,stimuli/lakes/7090129_right.png,,,,0,3,3,129,1,,,,,
,,,,,,$5e5aa8d9040204000bf88917,2020-07-20_15h39.10.067,fisher_task,2020.1.3,Win32,60,-0.187777778,-0.434444444,1,0,0,1.568025,scale,,,,,,0.326485712,0.264575131,0.21373507,0.173205081,stimuli/lakes/7080117_left.png,stimuli/lakes/7080117_right.png,,,,0,4,4,117,1,,,,,
,,,,,,$5e5aa8d9040204000bf88917,2020-07-20_15h39.10.067,fisher_task,2020.1.3,Win32,60,0.063333333,-0.237777778,1,0,0,3.32293,scale,,,,,,0.3702,0.3,0.1234,0.1,stimuli/lakes/901010_left.png,stimuli/lakes/901010_right.png,,,,0,5,5,10,1,,,,,
,,,,,,$5e5aa8d9040204000bf88917,2020-07-20_15h39.10.067,fisher_task,2020.1.3,Win32,60,0.175555556,-0.426666667,1,0,0,1.7362,scale,,,,,,0.21373507,0.173205081,0.326485712,0.264575131,stimuli/lakes/30101_left.png,stimuli/lakes/30101_right.png,,,,0,6,6,1,1,,,,,
,,,,,,$5e5aa8d9040204000bf88917,2020-07-20_15h39.10.067,fisher_task,2020.1.3,Win32,60,0.161111111,-0.354444444,1,0,0,1.78661,scale,,,,,,0.1234,0.1,0.3702,0.3,stimuli/lakes/104041_left.png,stimuli/lakes/104041_right.png,,,,0,7,7,41,1,,,,,
,,,,,,$5e5aa8d9040204000bf88917,2020-07-20_15h39.10.067,fisher_task,2020.1.3,Win32,60,0.157777778,-0.375555556,1,0,0,1.502625,scale,,,,,,0.21373507,0.173205081,0.326485712,0.264575131,stimuli/lakes/306082_left.png,stimuli/lakes/306082_right.png,,,,0,8,8,82,1,,,,,
,,,,,,$5e5aa8d9040204000bf88917,2020-07-20_15h39.10.067,fisher_task,2020.1.3,Win32,60,-0.101111111,-0.253333333,1,0,0,2.270725,scale,,,,,,0.326485712,0.264575131,0.21373507,0.173205081,stimuli/lakes/703029_left.png,stimuli/lakes/703029_right.png,,,,0,9,9,29,1,,,,,
,,,,,,$5e5aa8d9040204000bf88917,2020-07-20_15h39.10.067,fisher_task,2020.1.3,Win32,60,0.014444444,-0.218888889,1,0,0,4.575335,scale,,,,,,0.2468,0.2,0.302267034,0.244948974,stimuli/lakes/4080111_left.png,stimuli/lakes/4080111_right.png,,,,0,10,10,111,1,,,,,
,,,,,,$5e5aa8d9040204000bf88917,2020-07-20_15h39.10.067,fisher_task,2020.1.3,Win32,60,0.092222222,-0.267777778,1,0,0,2.938835,scale,,,,,,0.302267034,0.244948974,0.2468,0.2,stimuli/lakes/604055_left.png,stimuli/lakes/604055_right.png,,,,0,11,11,55,1,,,,,
,,,,,,$5e5aa8d9040204000bf88917,2020-07-20_15h39.10.067,fisher_task,2020.1.3,Win32,60,-0.096666667,-0.257777778,1,0,0,1.669685,scale,,,,,,0.302267034,0.244948974,0.2468,0.2,stimuli/lakes/604046_left.png,stimuli/lakes/604046_right.png,,,,0,12,12,46,1,,,,,
,,,,,,$5e5aa8d9040204000bf88917,2020-07-20_15h39.10.067,fisher_task,2020.1.3,Win32,60,0.061111111,-0.244444444,1,0,0,1.31872,scale,,,,,,0.174513954,0.141421356,0.349027907,0.282842712,stimuli/lakes/207090_left.png,stimuli/lakes/207090_right.png,,,,0,13,13,90,1,,,,,
,,,,,,$5e5aa8d9040204000bf88917,2020-07-20_15h39.10.067,fisher_task,2020.1.3,Win32,60,0.057777778,-0.252222222,1,0,0,1.26872,scale,,,,,,0.21373507,0.173205081,0.326485712,0.264575131,stimuli/lakes/306073_left.png,stimuli/lakes/306073_right.png,,,,0,14,14,73,1,,,,,
,,,,,,$5e5aa8d9040204000bf88917,2020-07-20_15h39.10.067,fisher_task,2020.1.3,Win32,60,0.09,-0.261111111,1,0,0,2.23718,scale,,,,,,0.302267034,0.244948974,0.2468,0.2,stimuli/lakes/602018_left.png,stimuli/lakes/602018_right.png,,,,0,15,15,18,1,,,,,
,,,,,,$5e5aa8d9040204000bf88917,2020-07-20_15h39.10.067,fisher_task,2020.1.3,Win32,60,-0.178888889,-0.388888889,1,0,0,4.4749,scale,,,,,,0.3702,0.3,0.1234,0.1,stimuli/lakes/905070_left.png,stimuli/lakes/905070_right.png,,,,0,16,16,70,1,,,,,
,,,,,,$5e5aa8d9040204000bf88917,2020-07-20_15h39.10.067,fisher_task,2020.1.3,Win32,60,0.154444444,-0.336666667,1,0,0,3.189265,scale,,,,,,0.349027907,0.282842712,0.174513954,0.141421356,stimuli/lakes/80109_left.png,stimuli/lakes/80109_right.png,,,,0,17,17,9,1,,,,,
,,,,,,$5e5aa8d9040204000bf88917,2020-07-20_15h39.10.067,fisher_task,2020.1.3,Win32,60,0.172222222,-0.424444444,1,0,0,1.6864,scale,,,,,,0.1234,0.1,0.3702,0.3,stimuli/lakes/105059_left.png,stimuli/lakes/105059_right.png,,,,0,18,18,59,1,,,,,
,,,,,,$5e5aa8d9040204000bf88917,2020-07-20_15h39.10.067,fisher_task,2020.1.3,Win32,60,0.148888889,-0.35,1,0,0,0.91828,scale,,,,,,0.2468,0.2,0.302267034,0.244948974,stimuli/lakes/403026_left.png,stimuli/lakes/403026_right.png,,,,0,19,19,26,1,,,,,
,,,,,,$5e5aa8d9040204000bf88917,2020-07-20_15h39.10.067,fisher_task,2020.1.3,Win32,60,0.138888889,-0.326666667,1,0,0,0.53366,scale,,,,,,0.2468,0.2,0.302267034,0.244948974,stimuli/lakes/402014_left.png,stimuli/lakes/402014_right.png,,,,0,20,20,14,1,,,,,
,,,,,,$5e5aa8d9040204000bf88917,2020-07-20_15h39.10.067,fisher_task,2020.1.3,Win32,60,-0.067777778,-0.248888889,1,0,0,1.719585,scale,,,,,,0.2468,0.2,0.302267034,0.244948974,stimuli/lakes/4090124_left.png,stimuli/lakes/4090124_right.png,,,,0,21,21,124,1,,,,,
,,,,,,$5e5aa8d9040204000bf88917,2020-07-20_15h39.10.067,fisher_task,2020.1.3,Win32,60,-0.203333333,-0.413333333,1,0,0,1.202095,scale,,,,,,0.302267034,0.244948974,0.2468,0.2,stimuli/lakes/6090127_left.png,stimuli/lakes/6090127_right.png,,,space,0,22,22,127,1,31.62654,,,,
,,,,,,$5e5aa8d9040204000bf88917,2020-07-20_15h39.10.067,fisher_task,2020.1.3,Win32,60,0.153333333,-0.353333333,1,0,0,1.23532,scale,,,,,,0.174513954,0.141421356,0.349027907,0.282842712,stimuli/lakes/206072_left.png,stimuli/lakes/206072_right.png,,,,0,23,23,72,1,,,,,
,,,,,,$5e5aa8d9040204000bf88917,2020-07-20_15h39.10.067,fisher_task,2020.1.3,Win32,60,0.171111111,-0.405555556,1,0,0,1.335535,scale,,,,,,0.21373507,0.173205081,0.326485712,0.264575131,stimuli/lakes/302013_left.png,stimuli/lakes/302013_right.png,,,,0,24,24,13,1,,,,,
,,,,,,$5e5aa8d9040204000bf88917,2020-07-20_15h39.10.067,fisher_task,2020.1.3,Win32,60,0.131111111,-0.295555556,1,0,0,2.30427,scale,,,,,,0.174513954,0.141421356,0.349027907,0.282842712,stimuli/lakes/206081_left.png,stimuli/lakes/206081_right.png,,,,0,25,25,81,1,,,,,
,,,,,,$5e5aa8d9040204000bf88917,2020-07-20_15h39.10.067,fisher_task,2020.1.3,Win32,60,0.085555556,-0.261111111,1,0,0,1.16887,scale,,,,,,0.174513954,0.141421356,0.349027907,0.282842712,stimuli/lakes/2080108_left.png,stimuli/lakes/2080108_right.png,,,,0,26,26,108,1,,,,,
,,,,,,$5e5aa8d9040204000bf88917,2020-07-20_15h39.10.067,fisher_task,2020.1.3,Win32,60,-0.098888889,-0.273333333,1,0,0,2.136935,scale,,,,,,0.349027907,0.282842712,0.174513954,0.141421356,stimuli/lakes/804048_left.png,stimuli/lakes/804048_right.png,,,,0,27,27,48,1,,,,,
,,,,,,$5e5aa8d9040204000bf88917,2020-07-20_15h39.10.067,fisher_task,2020.1.3,Win32,60,0.168888889,-0.382222222,1,0,0,1.48599,scale,,,,,,0.174513954,0.141421356,0.349027907,0.282842712,stimuli/lakes/204051_left.png,stimuli/lakes/204051_right.png,,,,0,28,28,51,1,,,,,
,,,,,,$5e5aa8d9040204000bf88917,2020-07-20_15h39.10.067,fisher_task,2020.1.3,Win32,60,-0.183333333,-0.428888889,1,0,0,1.18525,scale,,,,,,0.275930788,0.223606798,0.275930788,0.223606798,stimuli/lakes/5090125_left.png,stimuli/lakes/5090125_right.png,,,,0,29,29,125,1,,,,,
,,,,,,$5e5aa8d9040204000bf88917,2020-07-20_15h39.10.067,fisher_task,2020.1.3,Win32,60,-0.18,-0.438888889,1,0,0,1.619705,scale,,,,,,0.3702,0.3,0.1234,0.1,stimuli/lakes/906079_left.png,stimuli/lakes/906079_right.png,,,,0,30,30,79,1,,,,,
,,,,,,$5e5aa8d9040204000bf88917,2020-07-20_15h39.10.067,fisher_task,2020.1.3,Win32,60,0.167777778,-0.407777778,1,0,0,1.235555,scale,,,,,,0.2468,0.2,0.302267034,0.244948974,stimuli/lakes/402015_left.png,stimuli/lakes/402015_right.png,,,,0,31,31,15,1,,,,,
,,,,,,$5e5aa8d9040204000bf88917,2020-07-20_15h39.10.067,fisher_task,2020.1.3,Win32,60,0.141111111,-0.317777778,1,0,0,1.01817,scale,,,,,,0.21373507,0.173205081,0.326485712,0.264575131,stimuli/lakes/303025_left.png,stimuli/lakes/303025_right.png,,,,0,32,32,25,1,,,,,
,,,,,,$5e5aa8d9040204000bf88917,2020-07-20_15h39.10.067,fisher_task,2020.1.3,Win32,60,0.145555556,-0.351111111,1,0,0,0.95015,scale,,,,,,0.2468,0.2,0.302267034,0.244948974,stimuli/lakes/404053_left.png,stimuli/lakes/404053_right.png,,,,0,33,33,53,1,,,,,
,,,,,,$5e5aa8d9040204000bf88917,2020-07-20_15h39.10.067,fisher_task,2020.1.3,Win32,60,0.006666667,-0.252222222,1,0,0,1.88664,scale,,,,,,0.2468,0.2,0.302267034,0.244948974,stimuli/lakes/405064_left.png,stimuli/lakes/405064_right.png,,,,0,34,34,64,1,,,,,
,,,,,,$5e5aa8d9040204000bf88917,2020-07-20_15h39.10.067,fisher_task,2020.1.3,Win32,60,0.161111111,-0.394444444,1,0,0,1.302355,scale,,,,,,0.174513954,0.141421356,0.349027907,0.282842712,stimuli/lakes/202011_left.png,stimuli/lakes/202011_right.png,,,,0,35,35,11,1,,,,,
,,,,,,$5e5aa8d9040204000bf88917,2020-07-20_15h39.10.067,fisher_task,2020.1.3,Win32,60,0.163333333,-0.413333333,1,0,0,1.35223,scale,,,,,,0.275930788,0.223606798,0.275930788,0.223606798,stimuli/lakes/50104_left.png,stimuli/lakes/50104_right.png,,,,0,36,36,4,1,,,,,
,,,,,,$5e5aa8d9040204000bf88917,2020-07-20_15h39.10.067,fisher_task,2020.1.3,Win32,60,0.181111111,-0.43,1,0,0,4.29139,scale,,,,,,0.21373507,0.173205081,0.326485712,0.264575131,stimuli/lakes/30100_left.png,stimuli/lakes/30100_right.png,,,,0,37,37,0,1,,,,,
,,,,,,$5e5aa8d9040204000bf88917,2020-07-20_15h39.10.067,fisher_task,2020.1.3,Win32,60,-0.074444444,-0.252222222,1,0,0,2.65494,scale,,,,,,0.1234,0.1,0.3702,0.3,stimuli/lakes/1090119_left.png,stimuli/lakes/1090119_right.png,,,,0,38,38,119,1,,,,,
,,,,,,$5e5aa8d9040204000bf88917,2020-07-20_15h39.10.067,fisher_task,2020.1.3,Win32,60,0.156666667,-0.403333333,1,0,0,1.75332,scale,,,,,,0.326485712,0.264575131,0.21373507,0.173205081,stimuli/lakes/703038_left.png,stimuli/lakes/703038_right.png,,,,0,39,39,38,1,,,,,
,,,,,,$5e5aa8d9040204000bf88917,2020-07-20_15h39.10.067,fisher_task,2020.1.3,Win32,60,-0.173333333,-0.417777778,1,0,0,1.53607,scale,,,,,,0.349027907,0.282842712,0.174513954,0.141421356,stimuli/lakes/805069_left.png,stimuli/lakes/805069_right.png,,,,0,40,40,69,1,,,,,
,,,,,,$5e5aa8d9040204000bf88917,2020-07-20_15h39.10.067,fisher_task,2020.1.3,Win32,60,-0.173333333,-0.341111111,1,0,0,1.7533,scale,,,,,,0.302267034,0.244948974,0.2468,0.2,stimuli/lakes/606076_left.png,stimuli/lakes/606076_right.png,,,,0,41,41,76,1,,,,,
,,,,,,$5e5aa8d9040204000bf88917,2020-07-20_15h39.10.067,fisher_task,2020.1.3,Win32,60,0.162222222,-0.372222222,1,0,0,1.285605,scale,,,,,,0.1234,0.1,0.3702,0.3,stimuli/lakes/104050_left.png,stimuli/lakes/104050_right.png,,,,0,42,42,50,1,,,,,
,,,,,,$5e5aa8d9040204000bf88917,2020-07-20_15h39.10.067,fisher_task,2020.1.3,Win32,60,-0.181111111,-0.427777778,1,0,0,1.43573,scale,,,,,,0.349027907,0.282842712,0.174513954,0.141421356,stimuli/lakes/807096_left.png,stimuli/lakes/807096_right.png,,,,0,43,43,96,1,,,,,
,,,,,,$5e5aa8d9040204000bf88917,2020-07-20_15h39.10.067,fisher_task,2020.1.3,Win32,60,0.181111111,-0.425555556,1,0,0,1.25235,scale,,,,,,0.2468,0.2,0.302267034,0.244948974,stimuli/lakes/40102_left.png,stimuli/lakes/40102_right.png,,,space,0,44,44,2,1,12.17584,,,,
,,,,,,$5e5aa8d9040204000bf88917,2020-07-20_15h39.10.067,fisher_task,2020.1.3,Win32,60,-0.15,-0.354444444,1,0,0,1.168615,scale,,,,,,0.326485712,0.264575131,0.21373507,0.173205081,stimuli/lakes/705067_left.png,stimuli/lakes/705067_right.png,,,,0,45,45,67,1,,,,,
,,,,,,$5e5aa8d9040204000bf88917,2020-07-20_15h39.10.067,fisher_task,2020.1.3,Win32,60,0.141111111,-0.284444444,1,0,0,2.75526,scale,,,,,,0.2468,0.2,0.302267034,0.244948974,stimuli/lakes/406083_left.png,stimuli/lakes/406083_right.png,,,,0,46,46,83,1,,,,,
,,,,,,$5e5aa8d9040204000bf88917,2020-07-20_15h39.10.067,fisher_task,2020.1.3,Win32,60,-0.193333333,-0.435555556,1,0,0,2.736555,scale,,,,,,0.326485712,0.264575131,0.21373507,0.173205081,stimuli/lakes/7080116_left.png,stimuli/lakes/7080116_right.png,,,,0,47,47,116,1,,,,,
,,,,,,$5e5aa8d9040204000bf88917,2020-07-20_15h39.10.067,fisher_task,2020.1.3,Win32,60,0.067777778,-0.245555556,1,0,0,1.953565,scale,,,,,,0.3702,0.3,0.1234,0.1,stimuli/lakes/902022_left.png,stimuli/lakes/902022_right.png,,,,0,48,48,22,1,,,,,
,,,,,,$5e5aa8d9040204000bf88917,2020-07-20_15h39.10.067,fisher_task,2020.1.3,Win32,60,-0.127777778,-0.296666667,1,0,0,1.50249,scale,,,,,,0.174513954,0.141421356,0.349027907,0.282842712,stimuli/lakes/207099_left.png,stimuli/lakes/207099_right.png,,,,0,49,49,99,1,,,,,
,,,,,,$5e5aa8d9040204000bf88917,2020-07-20_15h39.10.067,fisher_task,2020.1.3,Win32,60,0.078888889,-0.26,1,0,0,2.0871,scale,,,,,,0.2468,0.2,0.302267034,0.244948974,stimuli/lakes/406074_left.png,stimuli/lakes/406074_right.png,,,,0,50,50,74,1,,,,,
,,,,,,$5e5aa8d9040204000bf88917,2020-07-20_15h39.10.067,fisher_task,2020.1.3,Win32,60,0.148888889,-0.314444444,1,0,0,1.25218,scale,,,,,,0.21373507,0.173205081,0.326485712,0.264575131,stimuli/lakes/304043_left.png,stimuli/lakes/304043_right.png,,,,0,51,51,43,1,,,,,
,,,,,,$5e5aa8d9040204000bf88917,2020-07-20_15h39.10.067,fisher_task,2020.1.3,Win32,60,0.176666667,-0.416666667,1,0,0,1.2521,scale,,,,,,0.21373507,0.173205081,0.326485712,0.264575131,stimuli/lakes/302012_left.png,stimuli/lakes/302012_right.png,,,,0,52,52,12,1,,,,,
,,,,,,$5e5aa8d9040204000bf88917,2020-07-20_15h39.10.067,fisher_task,2020.1.3,Win32,60,0.162222222,-0.356666667,1,0,0,2.404515,scale,,,,,,0.275930788,0.223606798,0.275930788,0.223606798,stimuli/lakes/504045_left.png,stimuli/lakes/504045_right.png,,,,0,53,53,45,1,,,,,
,,,,,,$5e5aa8d9040204000bf88917,2020-07-20_15h39.10.067,fisher_task,2020.1.3,Win32,60,-0.163333333,-0.354444444,1,0,0,2.0872,scale,,,,,,0.2468,0.2,0.302267034,0.244948974,stimuli/lakes/4080112_left.png,stimuli/lakes/4080112_right.png,,,,0,54,54,112,1,,,,,
,,,,,,$5e5aa8d9040204000bf88917,2020-07-20_15h39.10.067,fisher_task,2020.1.3,Win32,60,0.008888889,-0.241111111,1,0,0,1.95365,scale,,,,,,0.349027907,0.282842712,0.174513954,0.141421356,stimuli/lakes/804057_left.png,stimuli/lakes/804057_right.png,,,,0,55,55,57,1,,,,,
,,,,,,$5e5aa8d9040204000bf88917,2020-07-20_15h39.10.067,fisher_task,2020.1.3,Win32,60,-0.156666667,-0.347777778,1,0,0,2.88869,scale,,,,,,0.326485712,0.264575131,0.21373507,0.173205081,stimuli/lakes/705068_left.png,stimuli/lakes/705068_right.png,,,,0,56,56,68,1,,,,,
,,,,,,$5e5aa8d9040204000bf88917,2020-07-20_15h39.10.067,fisher_task,2020.1.3,Win32,60,-0.001111111,-0.235555556,1,0,0,2.4546,scale,,,,,,0.21373507,0.173205081,0.326485712,0.264575131,stimuli/lakes/305062_left.png,stimuli/lakes/305062_right.png,,,,0,57,57,62,1,,,,,
,,,,,,$5e5aa8d9040204000bf88917,2020-07-20_15h39.10.067,fisher_task,2020.1.3,Win32,60,-0.136666667,-0.311111111,1,0,0,0.83429,scale,,,,,,0.349027907,0.282842712,0.174513954,0.141421356,stimuli/lakes/806078_left.png,stimuli/lakes/806078_right.png,,,,0,58,58,78,1,,,,,
,,,,,,$5e5aa8d9040204000bf88917,2020-07-20_15h39.10.067,fisher_task,2020.1.3,Win32,60,-0.178888889,-0.358888889,1,0,0,1.168775,scale,,,,,,0.275930788,0.223606798,0.275930788,0.223606798,stimuli/lakes/506075_left.png,stimuli/lakes/506075_right.png,,,,0,59,59,75,1,,,,,
,,,,,,$5e5aa8d9040204000bf88917,2020-07-20_15h39.10.067,fisher_task,2020.1.3,Win32,60,-0.093333333,-0.254444444,1,0,0,1.469,scale,,,,,,0.21373507,0.173205081,0.326485712,0.264575131,stimuli/lakes/3090121_left.png,stimuli/lakes/3090121_right.png,,,,0,60,60,121,1,,,,,
,,,,,,$5e5aa8d9040204000bf88917,2020-07-20_15h39.10.067,fisher_task,2020.1.3,Win32,60,0.171111111,-0.38,1,0,0,1.018195,scale,,,,,,0.275930788,0.223606798,0.275930788,0.223606798,stimuli/lakes/503027_left.png,stimuli/lakes/503027_right.png,,,,0,61,61,27,1,,,,,
,,,,,,$5e5aa8d9040204000bf88917,2020-07-20_15h39.10.067,fisher_task,2020.1.3,Win32,60,-0.157777778,-0.362222222,1,0,0,1.686555,scale,,,,,,0.302267034,0.244948974,0.2468,0.2,stimuli/lakes/606085_left.png,stimuli/lakes/606085_right.png,,,,0,62,62,85,1,,,,,
,,,,,,$5e5aa8d9040204000bf88917,2020-07-20_15h39.10.067,fisher_task,2020.1.3,Win32,60,0.102222222,-0.262222222,1,0,0,3.57344,scale,,,,,,0.275930788,0.223606798,0.275930788,0.223606798,stimuli/lakes/504054_left.png,stimuli/lakes/504054_right.png,,,,0,63,63,54,1,,,,,
,,,,,,$5e5aa8d9040204000bf88917,2020-07-20_15h39.10.067,fisher_task,2020.1.3,Win32,60,-0.11,-0.263333333,1,0,0,2.104205,scale,,,,,,0.302267034,0.244948974,0.2468,0.2,stimuli/lakes/607094_left.png,stimuli/lakes/607094_right.png,,,,0,64,64,94,1,,,,,
,,,,,,$5e5aa8d9040204000bf88917,2020-07-20_15h39.10.067,fisher_task,2020.1.3,Win32,60,0.151111111,-0.361111111,1,0,0,2.087185,scale,,,,,,0.21373507,0.173205081,0.326485712,0.264575131,stimuli/lakes/305061_left.png,stimuli/lakes/305061_right.png,,,,0,65,65,61,1,,,,,
,,,,,,$5e5aa8d9040204000bf88917,2020-07-20_15h39.10.067,fisher_task,2020.1.3,Win32,60,0.02,-0.25,1,0,0,4.25811,scale,,,,,,0.2468,0.2,0.302267034,0.244948974,stimuli/lakes/405063_left.png,stimuli/lakes/405063_right.png,,,space,0,66,66,63,1,3.260835,,,,
,,,,,,$5e5aa8d9040204000bf88917,2020-07-20_15h39.10.067,fisher_task,2020.1.3,Win32,60,-0.174444444,-0.424444444,1,0,0,1.502725,scale,,,,,,0.302267034,0.244948974,0.2468,0.2,stimuli/lakes/6090126_left.png,stimuli/lakes/6090126_right.png,,,,0,67,67,126,1,,,,,
,,,,,,$5e5aa8d9040204000bf88917,2020-07-20_15h39.10.067,fisher_task,2020.1.3,Win32,60,-0.095555556,-0.26,1,0,0,2.08714,scale,,,,,,0.349027907,0.282842712,0.174513954,0.141421356,stimuli/lakes/803039_left.png,stimuli/lakes/803039_right.png,,,,0,68,68,39,1,,,,,
,,,,,,$5e5aa8d9040204000bf88917,2020-07-20_15h39.10.067,fisher_task,2020.1.3,Win32,60,0.084444444,-0.27,1,0,0,1.168865,scale,,,,,,0.1234,0.1,0.3702,0.3,stimuli/lakes/1080107_left.png,stimuli/lakes/1080107_right.png,,,,0,69,69,107,1,,,,,
,,,,,,$5e5aa8d9040204000bf88917,2020-07-20_15h39.10.067,fisher_task,2020.1.3,Win32,60,0.086666667,-0.278888889,1,0,0,1.03523,scale,,,,,,0.174513954,0.141421356,0.349027907,0.282842712,stimuli/lakes/205060_left.png,stimuli/lakes/205060_right.png,,,,0,70,70,60,1,,,,,
,,,,,,$5e5aa8d9040204000bf88917,2020-07-20_15h39.10.067,fisher_task,2020.1.3,Win32,60,-0.107777778,-0.268888889,1,0,0,1.08502,scale,,,,,,0.3702,0.3,0.1234,0.1,stimuli/lakes/903040_left.png,stimuli/lakes/903040_right.png,,,,0,71,71,40,1,,,,,
,,,,,,$5e5aa8d9040204000bf88917,2020-07-20_15h39.10.067,fisher_task,2020.1.3,Win32,60,-0.141111111,-0.33,1,0,0,1.35206,scale,,,,,,0.275930788,0.223606798,0.275930788,0.223606798,stimuli/lakes/507093_left.png,stimuli/lakes/507093_right.png,,,,0,72,72,93,1,,,,,
,,,,,,$5e5aa8d9040204000bf88917,2020-07-20_15h39.10.067,fisher_task,2020.1.3,Win32,60,0.074444444,-0.248888889,1,0,0,1.43619,scale,,,,,,0.1234,0.1,0.3702,0.3,stimuli/lakes/107098_left.png,stimuli/lakes/107098_right.png,,,,0,73,73,98,1,,,,,
,,,,,,$5e5aa8d9040204000bf88917,2020-07-20_15h39.10.067,fisher_task,2020.1.3,Win32,60,0.175555556,-0.426666667,1,0,0,1.652725,scale,,,,,,0.1234,0.1,0.3702,0.3,stimuli/lakes/103032_left.png,stimuli/lakes/103032_right.png,,,,0,74,74,32,1,,,,,
,,,,,,$5e5aa8d9040204000bf88917,2020-07-20_15h39.10.067,fisher_task,2020.1.3,Win32,60,-0.167777778,-0.398888889,1,0,0,1.35239,scale,,,,,,0.326485712,0.264575131,0.21373507,0.173205081,stimuli/lakes/7090128_left.png,stimuli/lakes/7090128_right.png,,,,0,75,75,128,1,,,,,
,,,,,,$5e5aa8d9040204000bf88917,2020-07-20_15h39.10.067,fisher_task,2020.1.3,Win32,60,-0.156666667,-0.394444444,1,0,0,1.085245,scale,,,,,,0.275930788,0.223606798,0.275930788,0.223606798,stimuli/lakes/5080113_left.png,stimuli/lakes/5080113_right.png,,,,0,76,76,113,1,,,,,
,,,,,,$5e5aa8d9040204000bf88917,2020-07-20_15h39.10.067,fisher_task,2020.1.3,Win32,60,-0.128888889,-0.285555556,1,0,0,1.652755,scale,,,,,,0.326485712,0.264575131,0.21373507,0.173205081,stimuli/lakes/704056_left.png,stimuli/lakes/704056_right.png,,,,0,77,77,56,1,,,,,
,,,,,,$5e5aa8d9040204000bf88917,2020-07-20_15h39.10.067,fisher_task,2020.1.3,Win32,60,0.102222222,-0.285555556,1,0,0,2.704875,scale,,,,,,0.326485712,0.264575131,0.21373507,0.173205081,stimuli/lakes/702019_left.png,stimuli/lakes/702019_right.png,,,,0,78,78,19,1,,,,,
,,,,,,$5e5aa8d9040204000bf88917,2020-07-20_15h39.10.067,fisher_task,2020.1.3,Win32,60,0.157777778,-0.4,1,0,0,1.15248,scale,,,,,,0.275930788,0.223606798,0.275930788,0.223606798,stimuli/lakes/502016_left.png,stimuli/lakes/502016_right.png,,,,0,79,79,16,1,,,,,
,,,,,,$5e5aa8d9040204000bf88917,2020-07-20_15h39.10.067,fisher_task,2020.1.3,Win32,60,-0.137777778,-0.292222222,1,0,0,1.71989,scale,,,,,,0.3702,0.3,0.1234,0.1,stimuli/lakes/9070106_left.png,stimuli/lakes/9070106_right.png,,,,0,80,80,106,1,,,,,
,,,,,,$5e5aa8d9040204000bf88917,2020-07-20_15h39.10.067,fisher_task,2020.1.3,Win32,60,0.12,-0.284444444,1,0,0,1.018505,scale,,,,,,0.2468,0.2,0.302267034,0.244948974,stimuli/lakes/403035_left.png,stimuli/lakes/403035_right.png,,,,0,81,81,35,1,,,,,
,,,,,,$5e5aa8d9040204000bf88917,2020-07-20_15h39.10.067,fisher_task,2020.1.3,Win32,60,0.14,-0.382222222,1,0,0,1.26932,scale,,,,,,0.174513954,0.141421356,0.349027907,0.282842712,stimuli/lakes/203024_left.png,stimuli/lakes/203024_right.png,,,,0,82,82,24,1,,,,,
,,,,,,$5e5aa8d9040204000bf88917,2020-07-20_15h39.10.067,fisher_task,2020.1.3,Win32,60,-0.116666667,-0.3,1,0,0,2.08717,scale,,,,,,0.2468,0.2,0.302267034,0.244948974,stimuli/lakes/4070101_left.png,stimuli/lakes/4070101_right.png,,,,0,83,83,101,1,,,,,
,,,,,,$5e5aa8d9040204000bf88917,2020-07-20_15h39.10.067,fisher_task,2020.1.3,Win32,60,0.094444444,-0.271111111,1,0,0,0.834835,scale,,,,,,0.326485712,0.264575131,0.21373507,0.173205081,stimuli/lakes/70107_left.png,stimuli/lakes/70107_right.png,,,,0,84,84,7,1,,,,,
,,,,,,$5e5aa8d9040204000bf88917,2020-07-20_15h39.10.067,fisher_task,2020.1.3,Win32,60,-0.122222222,-0.291111111,1,0,0,1.185595,scale,,,,,,0.3702,0.3,0.1234,0.1,stimuli/lakes/904058_left.png,stimuli/lakes/904058_right.png,,,,0,85,85,58,1,,,,,
,,,,,,$5e5aa8d9040204000bf88917,2020-07-20_15h39.10.067,fisher_task,2020.1.3,Win32,60,0.06,-0.247777778,1,0,0,1.385655,scale,,,,,,0.21373507,0.173205081,0.326485712,0.264575131,stimuli/lakes/3080109_left.png,stimuli/lakes/3080109_right.png,,,,0,86,86,109,1,,,,,
,,,,,,$5e5aa8d9040204000bf88917,2020-07-20_15h39.10.067,fisher_task,2020.1.3,Win32,60,-0.11,-0.286666667,1,0,0,1.185455,scale,,,,,,0.3702,0.3,0.1234,0.1,stimuli/lakes/907097_left.png,stimuli/lakes/907097_right.png,,,,0,87,87,97,1,,,,,
,,,,,,$5e5aa8d9040204000bf88917,2020-07-20_15h39.10.067,fisher_task,2020.1.3,Win32,60,0.138888889,-0.295555556,1,0,0,1.619745,scale,,,,,,0.1234,0.1,0.3702,0.3,stimuli/lakes/106080_left.png,stimuli/lakes/106080_right.png,,,space,0,88,88,80,1,9.355665,,,,
,,,,,,$5e5aa8d9040204000bf88917,2020-07-20_15h39.10.067,fisher_task,2020.1.3,Win32,60,-0.106666667,-0.277777778,1,0,0,1.63637,scale,,,,,,0.349027907,0.282842712,0.174513954,0.141421356,stimuli/lakes/806087_left.png,stimuli/lakes/806087_right.png,,,,0,89,89,87,1,,,,,
,,,,,,$5e5aa8d9040204000bf88917,2020-07-20_15h39.10.067,fisher_task,2020.1.3,Win32,60,-0.07,-0.248888889,1,0,0,1.435845,scale,,,,,,0.326485712,0.264575131,0.21373507,0.173205081,stimuli/lakes/702020_left.png,stimuli/lakes/702020_right.png,,,,0,90,90,20,1,,,,,
,,,,,,$5e5aa8d9040204000bf88917,2020-07-20_15h39.10.067,fisher_task,2020.1.3,Win32,60,-0.165555556,-0.392222222,1,0,0,1.15193,scale,,,,,,0.302267034,0.244948974,0.2468,0.2,stimuli/lakes/6080114_left.png,stimuli/lakes/6080114_right.png,,,,0,91,91,114,1,,,,,
,,,,,,$5e5aa8d9040204000bf88917,2020-07-20_15h39.10.067,fisher_task,2020.1.3,Win32,60,-0.142222222,-0.316666667,1,0,0,2.13738,scale,,,,,,0.326485712,0.264575131,0.21373507,0.173205081,stimuli/lakes/704047_left.png,stimuli/lakes/704047_right.png,,,,0,92,92,47,1,,,,,
,,,,,,$5e5aa8d9040204000bf88917,2020-07-20_15h39.10.067,fisher_task,2020.1.3,Win32,60,-0.11,-0.332222222,1,0,0,1.319175,scale,,,,,,0.2468,0.2,0.302267034,0.244948974,stimuli/lakes/4090123_left.png,stimuli/lakes/4090123_right.png,,,,0,93,93,123,1,,,,,
,,,,,,$5e5aa8d9040204000bf88917,2020-07-20_15h39.10.067,fisher_task,2020.1.3,Win32,60,0.164444444,-0.416666667,1,0,0,1.135255,scale,,,,,,0.174513954,0.141421356,0.349027907,0.282842712,stimuli/lakes/203033_left.png,stimuli/lakes/203033_right.png,,,,0,94,94,33,1,,,,,
,,,,,,$5e5aa8d9040204000bf88917,2020-07-20_15h39.10.067,fisher_task,2020.1.3,Win32,60,-0.08,-0.255555556,1,0,0,1.50269,scale,,,,,,0.349027907,0.282842712,0.174513954,0.141421356,stimuli/lakes/803030_left.png,stimuli/lakes/803030_right.png,,,,0,95,95,30,1,,,,,
,,,,,,$5e5aa8d9040204000bf88917,2020-07-20_15h39.10.067,fisher_task,2020.1.3,Win32,60,-0.075555556,-0.261111111,1,0,0,1.75325,scale,,,,,,0.3702,0.3,0.1234,0.1,stimuli/lakes/904049_left.png,stimuli/lakes/904049_right.png,,,,0,96,96,49,1,,,,,
,,,,,,$5e5aa8d9040204000bf88917,2020-07-20_15h39.10.067,fisher_task,2020.1.3,Win32,60,-0.175555556,-0.411111111,1,0,0,1.61961,scale,,,,,,0.326485712,0.264575131,0.21373507,0.173205081,stimuli/lakes/707095_left.png,stimuli/lakes/707095_right.png,,,,0,97,97,95,1,,,,,
,,,,,,$5e5aa8d9040204000bf88917,2020-07-20_15h39.10.067,fisher_task,2020.1.3,Win32,60,-0.12,-0.29,1,0,0,1.26894,scale,,,,,,0.21373507,0.173205081,0.326485712,0.264575131,stimuli/lakes/3070100_left.png,stimuli/lakes/3070100_right.png,,,,0,98,98,100,1,,,,,
,,,,,,$5e5aa8d9040204000bf88917,2020-07-20_15h39.10.067,fisher_task,2020.1.3,Win32,60,-0.142222222,-0.295555556,1,0,0,1.318875,scale,,,,,,0.275930788,0.223606798,0.275930788,0.223606798,stimuli/lakes/5070102_left.png,stimuli/lakes/5070102_right.png,,,,0,99,99,102,1,,,,,
,,,,,,$5e5aa8d9040204000bf88917,2020-07-20_15h39.10.067,fisher_task,2020.1.3,Win32,60,0.12,-0.277777778,1,0,0,1.4359,scale,,,,,,0.302267034,0.244948974,0.2468,0.2,stimuli/lakes/60105_left.png,stimuli/lakes/60105_right.png,,,,0,100,100,5,1,,,,,
,,,,,,$5e5aa8d9040204000bf88917,2020-07-20_15h39.10.067,fisher_task,2020.1.3,Win32,60,0.171111111,-0.402222222,1,0,0,0.98485,scale,,,,,,0.2468,0.2,0.302267034,0.244948974,stimuli/lakes/404044_left.png,stimuli/lakes/404044_right.png,,,,0,101,101,44,1,,,,,
,,,,,,$5e5aa8d9040204000bf88917,2020-07-20_15h39.10.067,fisher_task,2020.1.3,Win32,60,-0.107777778,-0.276666667,1,0,0,1.152105,scale,,,,,,0.21373507,0.173205081,0.326485712,0.264575131,stimuli/lakes/3080110_left.png,stimuli/lakes/3080110_right.png,,,,0,102,102,110,1,,,,,
,,,,,,$5e5aa8d9040204000bf88917,2020-07-20_15h39.10.067,fisher_task,2020.1.3,Win32,60,0.068888889,-0.25,1,0,0,2.97214,scale,,,,,,0.302267034,0.244948974,0.2468,0.2,stimuli/lakes/602017_left.png,stimuli/lakes/602017_right.png,,,,0,103,103,17,1,,,,,
,,,,,,$5e5aa8d9040204000bf88917,2020-07-20_15h39.10.067,fisher_task,2020.1.3,Win32,60,0.095555556,-0.254444444,1,0,0,3.30624,scale,,,,,,0.302267034,0.244948974,0.2468,0.2,stimuli/lakes/603028_left.png,stimuli/lakes/603028_right.png,,,,0,104,104,28,1,,,,,
,,,,,,$5e5aa8d9040204000bf88917,2020-07-20_15h39.10.067,fisher_task,2020.1.3,Win32,60,-0.108888889,-0.265555556,1,0,0,0.80128,scale,,,,,,0.326485712,0.264575131,0.21373507,0.173205081,stimuli/lakes/706077_left.png,stimuli/lakes/706077_right.png,,,,0,105,105,77,1,,,,,
,,,,,,$5e5aa8d9040204000bf88917,2020-07-20_15h39.10.067,fisher_task,2020.1.3,Win32,60,0.094444444,-0.264444444,1,0,0,1.78652,scale,,,,,,0.1234,0.1,0.3702,0.3,stimuli/lakes/106071_left.png,stimuli/lakes/106071_right.png,,,,0,106,106,71,1,,,,,
,,,,,,$5e5aa8d9040204000bf88917,2020-07-20_15h39.10.067,fisher_task,2020.1.3,Win32,60,-0.1,-0.267777778,1,0,0,0.91814,scale,,,,,,0.349027907,0.282842712,0.174513954,0.141421356,stimuli/lakes/8080118_left.png,stimuli/lakes/8080118_right.png,,,,0,107,107,118,1,,,,,
,,,,,,$5e5aa8d9040204000bf88917,2020-07-20_15h39.10.067,fisher_task,2020.1.3,Win32,60,0.086666667,-0.268888889,1,0,0,1.36875,scale,,,,,,0.21373507,0.173205081,0.326485712,0.264575131,stimuli/lakes/307091_left.png,stimuli/lakes/307091_right.png,,,,0,108,108,91,1,,,,,
,,,,,,$5e5aa8d9040204000bf88917,2020-07-20_15h39.10.067,fisher_task,2020.1.3,Win32,60,0.121111111,-0.284444444,1,0,0,1.08532,scale,,,,,,0.275930788,0.223606798,0.275930788,0.223606798,stimuli/lakes/503036_left.png,stimuli/lakes/503036_right.png,,,,0,109,109,36,1,,,,,
,,,,,,$5e5aa8d9040204000bf88917,2020-07-20_15h39.10.067,fisher_task,2020.1.3,Win32,60,0.14,-0.342222222,1,0,0,1.90353,scale,,,,,,0.2468,0.2,0.302267034,0.244948974,stimuli/lakes/40103_left.png,stimuli/lakes/40103_right.png,,,space,0,110,110,3,1,5.592485,,,,
,,,,,,$5e5aa8d9040204000bf88917,2020-07-20_15h39.10.067,fisher_task,2020.1.3,Win32,60,0.171111111,-0.337777778,1,0,0,0.83484,scale,,,,,,0.21373507,0.173205081,0.326485712,0.264575131,stimuli/lakes/303034_left.png,stimuli/lakes/303034_right.png,,,,0,111,111,34,1,,,,,
,,,,,,$5e5aa8d9040204000bf88917,2020-07-20_15h39.10.067,fisher_task,2020.1.3,Win32,60,0.168888889,-0.39,1,0,0,0.76794,scale,,,,,,0.1234,0.1,0.3702,0.3,stimuli/lakes/103023_left.png,stimuli/lakes/103023_right.png,,,,0,112,112,23,1,,,,,
,,,,,,$5e5aa8d9040204000bf88917,2020-07-20_15h39.10.067,fisher_task,2020.1.3,Win32,60,0.076666667,-0.247777778,1,0,0,1.185055,scale,,,,,,0.3702,0.3,0.1234,0.1,stimuli/lakes/903031_left.png,stimuli/lakes/903031_right.png,,,,0,113,113,31,1,,,,,
,,,,,,$5e5aa8d9040204000bf88917,2020-07-20_15h39.10.067,fisher_task,2020.1.3,Win32,60,-0.094444444,-0.268888889,1,0,0,1.535865,scale,,,,,,0.1234,0.1,0.3702,0.3,stimuli/lakes/107089_left.png,stimuli/lakes/107089_right.png,,,,0,114,114,89,1,,,,,
,,,,,,$5e5aa8d9040204000bf88917,2020-07-20_15h39.10.067,fisher_task,2020.1.3,Win32,60,-0.15,-0.335555556,1,0,0,1.535915,scale,,,,,,0.302267034,0.244948974,0.2468,0.2,stimuli/lakes/605065_left.png,stimuli/lakes/605065_right.png,,,,0,115,115,65,1,,,,,
,,,,,,$5e5aa8d9040204000bf88917,2020-07-20_15h39.10.067,fisher_task,2020.1.3,Win32,60,0.127777778,-0.317777778,1,0,0,1.001935,scale,,,,,,0.174513954,0.141421356,0.349027907,0.282842712,stimuli/lakes/204042_left.png,stimuli/lakes/204042_right.png,,,,0,116,116,42,1,,,,,
,,,,,,$5e5aa8d9040204000bf88917,2020-07-20_15h39.10.067,fisher_task,2020.1.3,Win32,60,-0.155555556,-0.38,1,0,0,2.521525,scale,,,,,,0.326485712,0.264575131,0.21373507,0.173205081,stimuli/lakes/706086_left.png,stimuli/lakes/706086_right.png,,,,0,117,117,86,1,,,,,
,,,,,,$5e5aa8d9040204000bf88917,2020-07-20_15h39.10.067,fisher_task,2020.1.3,Win32,60,-0.161111111,-0.374444444,1,0,0,0.801225,scale,,,,,,0.349027907,0.282842712,0.174513954,0.141421356,stimuli/lakes/8070105_left.png,stimuli/lakes/8070105_right.png,,,,0,118,118,105,1,,,,,
,,,,,,$5e5aa8d9040204000bf88917,2020-07-20_15h39.10.067,fisher_task,2020.1.3,Win32,60,-0.145555556,-0.368888889,1,0,0,0.734505,scale,,,,,,0.326485712,0.264575131,0.21373507,0.173205081,stimuli/lakes/7070104_left.png,stimuli/lakes/7070104_right.png,,,,0,119,119,104,1,,,,,
,,,,,,$5e5aa8d9040204000bf88917,2020-07-20_15h39.10.067,fisher_task,2020.1.3,Win32,60,-0.072222222,-0.241111111,1,0,0,1.168505,scale,,,,,,0.174513954,0.141421356,0.349027907,0.282842712,stimuli/lakes/2090120_left.png,stimuli/lakes/2090120_right.png,,,,0,120,120,120,1,,,,,
,,,,,,$5e5aa8d9040204000bf88917,2020-07-20_15h39.10.067,fisher_task,2020.1.3,Win32,60,0.095555556,-0.263333333,1,0,0,1.97018,scale,,,,,,0.349027907,0.282842712,0.174513954,0.141421356,stimuli/lakes/802021_left.png,stimuli/lakes/802021_right.png,,,,0,121,121,21,1,,,,,
,,,,,,$5e5aa8d9040204000bf88917,2020-07-20_15h39.10.067,fisher_task,2020.1.3,Win32,60,0.111111111,-0.282222222,1,0,0,3.03869,scale,,,,,,0.326485712,0.264575131,0.21373507,0.173205081,stimuli/lakes/70108_left.png,stimuli/lakes/70108_right.png,,,,0,122,122,8,1,,,,,
,,,,,,$5e5aa8d9040204000bf88917,2020-07-20_15h39.10.067,fisher_task,2020.1.3,Win32,60,-0.102222222,-0.292222222,1,0,0,3.08909,scale,,,,,,0.275930788,0.223606798,0.275930788,0.223606798,stimuli/lakes/506084_left.png,stimuli/lakes/506084_right.png,,,,0,123,123,84,1,,,,,
,,,,,,$5e5aa8d9040204000bf88917,2020-07-20_15h39.10.067,fisher_task,2020.1.3,Win32,60,-0.136666667,-0.283333333,1,0,0,1.235315,scale,,,,,,0.21373507,0.173205081,0.326485712,0.264575131,stimuli/lakes/3090122_left.png,stimuli/lakes/3090122_right.png,,,,0,124,124,122,1,,,,,
,,,,,,$5e5aa8d9040204000bf88917,2020-07-20_15h39.10.067,fisher_task,2020.1.3,Win32,60,0.112222222,-0.277777778,1,0,0,1.185365,scale,,,,,,0.21373507,0.173205081,0.326485712,0.264575131,stimuli/lakes/304052_left.png,stimuli/lakes/304052_right.png,,,,0,125,125,52,1,,,,,
,,,,,,$5e5aa8d9040204000bf88917,2020-07-20_15h39.10.067,fisher_task,2020.1.3,Win32,60,0.137777778,-0.304444444,1,0,0,1.06865,scale,,,,,,0.302267034,0.244948974,0.2468,0.2,stimuli/lakes/605066_left.png,stimuli/lakes/605066_right.png,,,,0,126,126,66,1,,,,,
,,,,,,$5e5aa8d9040204000bf88917,2020-07-20_15h39.10.067,fisher_task,2020.1.3,Win32,60,0.15,-0.341111111,1,0,0,1.01834,scale,,,,,,0.302267034,0.244948974,0.2468,0.2,stimuli/lakes/60106_left.png,stimuli/lakes/60106_right.png,,,,0,127,127,6,1,,,,,
,,,,,,$5e5aa8d9040204000bf88917,2020-07-20_15h39.10.067,fisher_task,2020.1.3,Win32,60,-0.125555556,-0.333333333,1,0,0,0.78458,scale,,,,,,0.302267034,0.244948974,0.2468,0.2,stimuli/lakes/6070103_left.png,stimuli/lakes/6070103_right.png,,,,0,128,128,103,1,,,,,
,,,,,,$5e5aa8d9040204000bf88917,2020-07-20_15h39.10.067,fisher_task,2020.1.3,Win32,60,-0.148888889,-0.337777778,1,0,0,0.584405,scale,,,,,,0.302267034,0.244948974,0.2468,0.2,stimuli/lakes/6080115_left.png,stimuli/lakes/6080115_right.png,,,,0,129,129,115,1,,,,,
,,,,,,$5e5aa8d9040204000bf88917,2020-07-20_15h39.10.067,fisher_task,2020.1.3,Win32,60,,,,,,,,,,,,,,,,,,,,,,,,,,,,space,9.389525,space,28.75607
