keySpace.keys,instructions.thisRepN,instructions.thisTrialN,instructions.thisN,instructions.thisIndex,instructions.ran,participant,date,expName,psychopyVersion,OS,frameRate,mouse.x,mouse.y,mouse.leftButton,mouse.midButton,mouse.rightButton,mouse.time,mouse.clicked_name,training.thisRepN,training.thisTrialN,training.thisN,training.thisIndex,training.ran,widthBasketLeft,heightBasketLeft,widthBasketRight,heightBasketRight,leftLake,rightLake,space2.keys,space2.rt,space1.keys,trials.thisRepN,trials.thisTrialN,trials.thisN,trials.thisIndex,trials.ran,space1.rt,finalSpace1.keys,finalSpace1.rt,finalSpace2.keys,finalSpace2.rt
,0,0,0,0,1,$5e2df2855e01ef3e5d01ab58,2020-07-13_18h36.28.222,fisher_task,2020.1.3,Win32,60,,,,,,,,,,,,,,,,,,,,,,,,,,,,,,,
,,,,,,$5e2df2855e01ef3e5d01ab58,2020-07-13_18h36.28.222,fisher_task,2020.1.3,Win32,60,0.158333333,-0.376851852,1,0,0,3.64972,scale,0,0,0,0,1,0.275930788,0.223606798,0.275930788,0.223606798,stimuli/training/20_left.png,stimuli/training/20_right.png,,,,,,,,,,,,,
,,,,,,$5e2df2855e01ef3e5d01ab58,2020-07-13_18h36.28.222,fisher_task,2020.1.3,Win32,60,-0.15462963,-0.398148148,1,0,0,9.283445,scale,0,1,1,1,1,0.275930788,0.223606798,0.275930788,0.223606798,stimuli/training/80_left.png,stimuli/training/80_right.png,,,,,,,,,,,,,
,,,,,,$5e2df2855e01ef3e5d01ab58,2020-07-13_18h36.28.222,fisher_task,2020.1.3,Win32,60,0.161111111,-0.368518519,1,0,0,3.716905,scale,0,2,2,2,1,0.174513954,0.141421356,0.349027907,0.282842712,stimuli/training/50_left.png,stimuli/training/50_right.png,,,,,,,,,,,,,
,,,,,,$5e2df2855e01ef3e5d01ab58,2020-07-13_18h36.28.222,fisher_task,2020.1.3,Win32,60,-0.15,-0.360185185,1,0,0,5.19971,scale,0,3,3,3,1,0.349027907,0.282842712,0.174513954,0.141421356,stimuli/training/50_left.png,stimuli/training/50_right.png,,,,,,,,,,,,,
,,,,,,$5e2df2855e01ef3e5d01ab58,2020-07-13_18h36.28.222,fisher_task,2020.1.3,Win32,60,0.105555556,-0.298148148,1,0,0,6.749905,scale,0,4,4,4,1,0.275930788,0.223606798,0.275930788,0.223606798,stimuli/training/50_left.png,stimuli/training/50_right.png,,,,,,,,,,,,,
,,,,,,$5e2df2855e01ef3e5d01ab58,2020-07-13_18h36.28.222,fisher_task,2020.1.3,Win32,60,0.172222222,-0.42962963,1,0,0,5.41585,scale,0,5,5,5,1,0.174513954,0.141421356,0.349027907,0.282842712,stimuli/training/20_left.png,stimuli/training/20_right.png,,,,,,,,,,,,,
,,,,,,$5e2df2855e01ef3e5d01ab58,2020-07-13_18h36.28.222,fisher_task,2020.1.3,Win32,60,-0.159259259,-0.424074074,1,0,0,3.13299,scale,0,6,6,6,1,0.349027907,0.282842712,0.174513954,0.141421356,stimuli/training/80_left.png,stimuli/training/80_right.png,,,,,,,,,,,,,
,,,,,,$5e2df2855e01ef3e5d01ab58,2020-07-13_18h36.28.222,fisher_task,2020.1.3,Win32,60,0.164814815,-0.425,1,0,0,1.88277,scale,0,7,7,7,1,0.1234,0.1,0.3702,0.3,stimuli/training/30_left.png,stimuli/training/30_right.png,,,,,,,,,,,,,
,,,,,,$5e2df2855e01ef3e5d01ab58,2020-07-13_18h36.28.222,fisher_task,2020.1.3,Win32,60,-0.157407407,-0.427777778,1,0,0,1.78308,scale,0,8,8,8,1,0.3702,0.3,0.1234,0.1,stimuli/training/70_left.png,stimuli/training/70_right.png,,,,,,,,,,,,,
,,,,,,$5e2df2855e01ef3e5d01ab58,2020-07-13_18h36.28.222,fisher_task,2020.1.3,Win32,60,-0.173148148,-0.42962963,1,0,0,1.583225,scale,0,9,9,9,1,0.326485712,0.264575131,0.21373507,0.173205081,stimuli/training/90_left.png,stimuli/training/90_right.png,,,,,,,,,,,,,
,,,,,,$5e2df2855e01ef3e5d01ab58,2020-07-13_18h36.28.222,fisher_task,2020.1.3,Win32,60,0.171296296,-0.431481481,1,0,0,1.416235,scale,0,10,10,10,1,0.21373507,0.173205081,0.326485712,0.264575131,stimuli/training/10_left.png,stimuli/training/10_right.png,,,,,,,,,,,,,
,,,,,,$5e2df2855e01ef3e5d01ab58,2020-07-13_18h36.28.222,fisher_task,2020.1.3,Win32,60,-0.157407407,-0.435185185,1,0,0,2.89978,scale,,,,,,0.302267034,0.244948974,0.2468,0.2,stimuli/lakes/6080114_left.png,stimuli/lakes/6080114_right.png,space,8.105055,,0,0,0,114,1,,,,,
,,,,,,$5e2df2855e01ef3e5d01ab58,2020-07-13_18h36.28.222,fisher_task,2020.1.3,Win32,60,0.15462963,-0.39537037,1,0,0,4.6993,scale,,,,,,0.275930788,0.223606798,0.275930788,0.223606798,stimuli/lakes/50104_left.png,stimuli/lakes/50104_right.png,,,,0,1,1,4,1,,,,,
,,,,,,$5e2df2855e01ef3e5d01ab58,2020-07-13_18h36.28.222,fisher_task,2020.1.3,Win32,60,0.157407407,-0.394444444,1,0,0,6.96621,scale,,,,,,0.3702,0.3,0.1234,0.1,stimuli/lakes/903040_left.png,stimuli/lakes/903040_right.png,,,,0,2,2,40,1,,,,,
,,,,,,$5e2df2855e01ef3e5d01ab58,2020-07-13_18h36.28.222,fisher_task,2020.1.3,Win32,60,0.112962963,-0.305555556,1,0,0,3.18303,scale,,,,,,0.2468,0.2,0.302267034,0.244948974,stimuli/lakes/405064_left.png,stimuli/lakes/405064_right.png,,,,0,3,3,64,1,,,,,
,,,,,,$5e2df2855e01ef3e5d01ab58,2020-07-13_18h36.28.222,fisher_task,2020.1.3,Win32,60,0.107407407,-0.29537037,1,0,0,7.699625,scale,,,,,,0.3702,0.3,0.1234,0.1,stimuli/lakes/901010_left.png,stimuli/lakes/901010_right.png,,,,0,4,4,10,1,,,,,
,,,,,,$5e2df2855e01ef3e5d01ab58,2020-07-13_18h36.28.222,fisher_task,2020.1.3,Win32,60,0.074074074,-0.280555556,1,0,0,10.449655,scale,,,,,,0.1234,0.1,0.3702,0.3,stimuli/lakes/106080_left.png,stimuli/lakes/106080_right.png,,,,0,5,5,80,1,,,,,
,,,,,,$5e2df2855e01ef3e5d01ab58,2020-07-13_18h36.28.222,fisher_task,2020.1.3,Win32,60,0.12962963,-0.337962963,1,0,0,3.04954,scale,,,,,,0.1234,0.1,0.3702,0.3,stimuli/lakes/104041_left.png,stimuli/lakes/104041_right.png,,,,0,6,6,41,1,,,,,
,,,,,,$5e2df2855e01ef3e5d01ab58,2020-07-13_18h36.28.222,fisher_task,2020.1.3,Win32,60,-0.152777778,-0.365740741,1,0,0,2.99917,scale,,,,,,0.1234,0.1,0.3702,0.3,stimuli/lakes/1090119_left.png,stimuli/lakes/1090119_right.png,,,,0,7,7,119,1,,,,,
,,,,,,$5e2df2855e01ef3e5d01ab58,2020-07-13_18h36.28.222,fisher_task,2020.1.3,Win32,60,0.14537037,-0.350925926,1,0,0,2.49936,scale,,,,,,0.2468,0.2,0.302267034,0.244948974,stimuli/lakes/405063_left.png,stimuli/lakes/405063_right.png,,,,0,8,8,63,1,,,,,
,,,,,,$5e2df2855e01ef3e5d01ab58,2020-07-13_18h36.28.222,fisher_task,2020.1.3,Win32,60,-0.065740741,-0.264814815,1,0,0,6.283365,scale,,,,,,0.326485712,0.264575131,0.21373507,0.173205081,stimuli/lakes/703038_left.png,stimuli/lakes/703038_right.png,,,,0,9,9,38,1,,,,,
,,,,,,$5e2df2855e01ef3e5d01ab58,2020-07-13_18h36.28.222,fisher_task,2020.1.3,Win32,60,-0.111111111,-0.3,1,0,0,5.566165,scale,,,,,,0.349027907,0.282842712,0.174513954,0.141421356,stimuli/lakes/804057_left.png,stimuli/lakes/804057_right.png,,,,0,10,10,57,1,,,,,
,,,,,,$5e2df2855e01ef3e5d01ab58,2020-07-13_18h36.28.222,fisher_task,2020.1.3,Win32,60,-0.144444444,-0.343518519,1,0,0,2.0996,scale,,,,,,0.326485712,0.264575131,0.21373507,0.173205081,stimuli/lakes/705067_left.png,stimuli/lakes/705067_right.png,,,,0,11,11,67,1,,,,,
,,,,,,$5e2df2855e01ef3e5d01ab58,2020-07-13_18h36.28.222,fisher_task,2020.1.3,Win32,60,-0.156481481,-0.389814815,1,0,0,1.5328,scale,,,,,,0.326485712,0.264575131,0.21373507,0.173205081,stimuli/lakes/7070104_left.png,stimuli/lakes/7070104_right.png,,,,0,12,12,104,1,,,,,
,,,,,,$5e2df2855e01ef3e5d01ab58,2020-07-13_18h36.28.222,fisher_task,2020.1.3,Win32,60,-0.155555556,-0.408333333,1,0,0,1.33319,scale,,,,,,0.302267034,0.244948974,0.2468,0.2,stimuli/lakes/6080115_left.png,stimuli/lakes/6080115_right.png,,,,0,13,13,115,1,,,,,
,,,,,,$5e2df2855e01ef3e5d01ab58,2020-07-13_18h36.28.222,fisher_task,2020.1.3,Win32,60,0.07037037,-0.264814815,1,0,0,5.33308,scale,,,,,,0.3702,0.3,0.1234,0.1,stimuli/lakes/902022_left.png,stimuli/lakes/902022_right.png,,,,0,14,14,22,1,,,,,
,,,,,,$5e2df2855e01ef3e5d01ab58,2020-07-13_18h36.28.222,fisher_task,2020.1.3,Win32,60,0.058333333,-0.274074074,1,0,0,3.516215,scale,,,,,,0.302267034,0.244948974,0.2468,0.2,stimuli/lakes/604055_left.png,stimuli/lakes/604055_right.png,,,,0,15,15,55,1,,,,,
,,,,,,$5e2df2855e01ef3e5d01ab58,2020-07-13_18h36.28.222,fisher_task,2020.1.3,Win32,60,-0.146296296,-0.350925926,1,0,0,4.13269,scale,,,,,,0.174513954,0.141421356,0.349027907,0.282842712,stimuli/lakes/2080108_left.png,stimuli/lakes/2080108_right.png,,,,0,16,16,108,1,,,,,
,,,,,,$5e2df2855e01ef3e5d01ab58,2020-07-13_18h36.28.222,fisher_task,2020.1.3,Win32,60,0.135185185,-0.349074074,1,0,0,2.382365,scale,,,,,,0.174513954,0.141421356,0.349027907,0.282842712,stimuli/lakes/205060_left.png,stimuli/lakes/205060_right.png,,,,0,17,17,60,1,,,,,
,,,,,,$5e2df2855e01ef3e5d01ab58,2020-07-13_18h36.28.222,fisher_task,2020.1.3,Win32,60,0.097222222,-0.281481481,1,0,0,2.06583,scale,,,,,,0.326485712,0.264575131,0.21373507,0.173205081,stimuli/lakes/703029_left.png,stimuli/lakes/703029_right.png,,,,0,18,18,29,1,,,,,
,,,,,,$5e2df2855e01ef3e5d01ab58,2020-07-13_18h36.28.222,fisher_task,2020.1.3,Win32,60,-0.158333333,-0.426851852,1,0,0,1.83293,scale,,,,,,0.3702,0.3,0.1234,0.1,stimuli/lakes/907097_left.png,stimuli/lakes/907097_right.png,,,,0,19,19,97,1,,,,,
,,,,,,$5e2df2855e01ef3e5d01ab58,2020-07-13_18h36.28.222,fisher_task,2020.1.3,Win32,60,0.156481481,-0.419444444,1,0,0,1.566745,scale,,,,,,0.21373507,0.173205081,0.326485712,0.264575131,stimuli/lakes/302013_left.png,stimuli/lakes/302013_right.png,,,,0,20,20,13,1,,,,,
,,,,,,$5e2df2855e01ef3e5d01ab58,2020-07-13_18h36.28.222,fisher_task,2020.1.3,Win32,60,0.149074074,-0.380555556,1,0,0,1.883115,scale,,,,,,0.2468,0.2,0.302267034,0.244948974,stimuli/lakes/403035_left.png,stimuli/lakes/403035_right.png,,,,0,21,21,35,1,,,,,
,,,,,,$5e2df2855e01ef3e5d01ab58,2020-07-13_18h36.28.222,fisher_task,2020.1.3,Win32,60,-0.147222222,-0.409259259,1,0,0,2.0168,scale,,,,,,0.349027907,0.282842712,0.174513954,0.141421356,stimuli/lakes/807096_left.png,stimuli/lakes/807096_right.png,,,space,0,22,22,96,1,4.6584,,,,
,,,,,,$5e2df2855e01ef3e5d01ab58,2020-07-13_18h36.28.222,fisher_task,2020.1.3,Win32,60,-0.137962963,-0.342592593,1,0,0,1.066495,scale,,,,,,0.302267034,0.244948974,0.2468,0.2,stimuli/lakes/6070103_left.png,stimuli/lakes/6070103_right.png,,,,0,23,23,103,1,,,,,
,,,,,,$5e2df2855e01ef3e5d01ab58,2020-07-13_18h36.28.222,fisher_task,2020.1.3,Win32,60,0.148148148,-0.424074074,1,0,0,1.18278,scale,,,,,,0.21373507,0.173205081,0.326485712,0.264575131,stimuli/lakes/30101_left.png,stimuli/lakes/30101_right.png,,,,0,24,24,1,1,,,,,
,,,,,,$5e2df2855e01ef3e5d01ab58,2020-07-13_18h36.28.222,fisher_task,2020.1.3,Win32,60,0.109259259,-0.296296296,1,0,0,2.94865,scale,,,,,,0.349027907,0.282842712,0.174513954,0.141421356,stimuli/lakes/80109_left.png,stimuli/lakes/80109_right.png,,,,0,25,25,9,1,,,,,
,,,,,,$5e2df2855e01ef3e5d01ab58,2020-07-13_18h36.28.222,fisher_task,2020.1.3,Win32,60,0.142592593,-0.362962963,1,0,0,3.432885,scale,,,,,,0.174513954,0.141421356,0.349027907,0.282842712,stimuli/lakes/204042_left.png,stimuli/lakes/204042_right.png,,,,0,26,26,42,1,,,,,
,,,,,,$5e2df2855e01ef3e5d01ab58,2020-07-13_18h36.28.222,fisher_task,2020.1.3,Win32,60,0.121296296,-0.327777778,1,0,0,2.616295,scale,,,,,,0.275930788,0.223606798,0.275930788,0.223606798,stimuli/lakes/504054_left.png,stimuli/lakes/504054_right.png,,,,0,27,27,54,1,,,,,
,,,,,,$5e2df2855e01ef3e5d01ab58,2020-07-13_18h36.28.222,fisher_task,2020.1.3,Win32,60,0.143518519,-0.425925926,1,0,0,1.666045,scale,,,,,,0.2468,0.2,0.302267034,0.244948974,stimuli/lakes/402014_left.png,stimuli/lakes/402014_right.png,,,,0,28,28,14,1,,,,,
,,,,,,$5e2df2855e01ef3e5d01ab58,2020-07-13_18h36.28.222,fisher_task,2020.1.3,Win32,60,0.15462963,-0.424074074,1,0,0,1.333,scale,,,,,,0.21373507,0.173205081,0.326485712,0.264575131,stimuli/lakes/303034_left.png,stimuli/lakes/303034_right.png,,,,0,29,29,34,1,,,,,
,,,,,,$5e2df2855e01ef3e5d01ab58,2020-07-13_18h36.28.222,fisher_task,2020.1.3,Win32,60,-0.126851852,-0.333333333,1,0,0,1.582845,scale,,,,,,0.21373507,0.173205081,0.326485712,0.264575131,stimuli/lakes/3080110_left.png,stimuli/lakes/3080110_right.png,,,,0,30,30,110,1,,,,,
,,,,,,$5e2df2855e01ef3e5d01ab58,2020-07-13_18h36.28.222,fisher_task,2020.1.3,Win32,60,-0.046296296,-0.258333333,1,0,0,2.049315,scale,,,,,,0.349027907,0.282842712,0.174513954,0.141421356,stimuli/lakes/803039_left.png,stimuli/lakes/803039_right.png,,,,0,31,31,39,1,,,,,
,,,,,,$5e2df2855e01ef3e5d01ab58,2020-07-13_18h36.28.222,fisher_task,2020.1.3,Win32,60,-0.12962963,-0.327777778,1,0,0,1.449735,scale,,,,,,0.349027907,0.282842712,0.174513954,0.141421356,stimuli/lakes/806078_left.png,stimuli/lakes/806078_right.png,,,,0,32,32,78,1,,,,,
,,,,,,$5e2df2855e01ef3e5d01ab58,2020-07-13_18h36.28.222,fisher_task,2020.1.3,Win32,60,-0.15462963,-0.373148148,1,0,0,1.066325,scale,,,,,,0.302267034,0.244948974,0.2468,0.2,stimuli/lakes/6090127_left.png,stimuli/lakes/6090127_right.png,,,,0,33,33,127,1,,,,,
,,,,,,$5e2df2855e01ef3e5d01ab58,2020-07-13_18h36.28.222,fisher_task,2020.1.3,Win32,60,-0.107407407,-0.289814815,1,0,0,1.582595,scale,,,,,,0.2468,0.2,0.302267034,0.244948974,stimuli/lakes/4080111_left.png,stimuli/lakes/4080111_right.png,,,,0,34,34,111,1,,,,,
,,,,,,$5e2df2855e01ef3e5d01ab58,2020-07-13_18h36.28.222,fisher_task,2020.1.3,Win32,60,0.112037037,-0.327777778,1,0,0,2.04909,scale,,,,,,0.302267034,0.244948974,0.2468,0.2,stimuli/lakes/602017_left.png,stimuli/lakes/602017_right.png,,,,0,35,35,17,1,,,,,
,,,,,,$5e2df2855e01ef3e5d01ab58,2020-07-13_18h36.28.222,fisher_task,2020.1.3,Win32,60,-0.135185185,-0.357407407,1,0,0,14.45021,scale,,,,,,0.275930788,0.223606798,0.275930788,0.223606798,stimuli/lakes/5080113_left.png,stimuli/lakes/5080113_right.png,,,,0,36,36,113,1,,,,,
,,,,,,$5e2df2855e01ef3e5d01ab58,2020-07-13_18h36.28.222,fisher_task,2020.1.3,Win32,60,-0.073148148,-0.272222222,1,0,0,1.766285,scale,,,,,,0.302267034,0.244948974,0.2468,0.2,stimuli/lakes/604046_left.png,stimuli/lakes/604046_right.png,,,,0,37,37,46,1,,,,,
,,,,,,$5e2df2855e01ef3e5d01ab58,2020-07-13_18h36.28.222,fisher_task,2020.1.3,Win32,60,0.12962963,-0.334259259,1,0,0,1.332825,scale,,,,,,0.174513954,0.141421356,0.349027907,0.282842712,stimuli/lakes/204051_left.png,stimuli/lakes/204051_right.png,,,,0,38,38,51,1,,,,,
,,,,,,$5e2df2855e01ef3e5d01ab58,2020-07-13_18h36.28.222,fisher_task,2020.1.3,Win32,60,-0.144444444,-0.37037037,1,0,0,1.183415,scale,,,,,,0.275930788,0.223606798,0.275930788,0.223606798,stimuli/lakes/507093_left.png,stimuli/lakes/507093_right.png,,,,0,39,39,93,1,,,,,
,,,,,,$5e2df2855e01ef3e5d01ab58,2020-07-13_18h36.28.222,fisher_task,2020.1.3,Win32,60,0.113888889,-0.3,1,0,0,1.649295,scale,,,,,,0.349027907,0.282842712,0.174513954,0.141421356,stimuli/lakes/802021_left.png,stimuli/lakes/802021_right.png,,,,0,40,40,21,1,,,,,
,,,,,,$5e2df2855e01ef3e5d01ab58,2020-07-13_18h36.28.222,fisher_task,2020.1.3,Win32,60,0.143518519,-0.341666667,1,0,0,0.98295,scale,,,,,,0.2468,0.2,0.302267034,0.244948974,stimuli/lakes/404044_left.png,stimuli/lakes/404044_right.png,,,,0,41,41,44,1,,,,,
,,,,,,$5e2df2855e01ef3e5d01ab58,2020-07-13_18h36.28.222,fisher_task,2020.1.3,Win32,60,-0.142592593,-0.40462963,1,0,0,1.43346,scale,,,,,,0.349027907,0.282842712,0.174513954,0.141421356,stimuli/lakes/806087_left.png,stimuli/lakes/806087_right.png,,,,0,42,42,87,1,,,,,
,,,,,,$5e2df2855e01ef3e5d01ab58,2020-07-13_18h36.28.222,fisher_task,2020.1.3,Win32,60,0.161111111,-0.367592593,1,0,0,1.266315,scale,,,,,,0.302267034,0.244948974,0.2468,0.2,stimuli/lakes/603037_left.png,stimuli/lakes/603037_right.png,,,,0,43,43,37,1,,,,,
,,,,,,$5e2df2855e01ef3e5d01ab58,2020-07-13_18h36.28.222,fisher_task,2020.1.3,Win32,60,-0.142592593,-0.347222222,1,0,0,1.799545,scale,,,,,,0.349027907,0.282842712,0.174513954,0.141421356,stimuli/lakes/805069_left.png,stimuli/lakes/805069_right.png,,,space,0,44,44,69,1,2.572805,,,,
,,,,,,$5e2df2855e01ef3e5d01ab58,2020-07-13_18h36.28.222,fisher_task,2020.1.3,Win32,60,-0.150925926,-0.385185185,1,0,0,1.58317,scale,,,,,,0.349027907,0.282842712,0.174513954,0.141421356,stimuli/lakes/8070105_left.png,stimuli/lakes/8070105_right.png,,,,0,45,45,105,1,,,,,
,,,,,,$5e2df2855e01ef3e5d01ab58,2020-07-13_18h36.28.222,fisher_task,2020.1.3,Win32,60,-0.158333333,-0.403703704,1,0,0,1.350155,scale,,,,,,0.326485712,0.264575131,0.21373507,0.173205081,stimuli/lakes/706077_left.png,stimuli/lakes/706077_right.png,,,,0,46,46,77,1,,,,,
,,,,,,$5e2df2855e01ef3e5d01ab58,2020-07-13_18h36.28.222,fisher_task,2020.1.3,Win32,60,0.135185185,-0.369444444,1,0,0,1.249715,scale,,,,,,0.1234,0.1,0.3702,0.3,stimuli/lakes/104050_left.png,stimuli/lakes/104050_right.png,,,,0,47,47,50,1,,,,,
,,,,,,$5e2df2855e01ef3e5d01ab58,2020-07-13_18h36.28.222,fisher_task,2020.1.3,Win32,60,0.144444444,-0.4,1,0,0,1.33318,scale,,,,,,0.1234,0.1,0.3702,0.3,stimuli/lakes/105059_left.png,stimuli/lakes/105059_right.png,,,,0,48,48,59,1,,,,,
,,,,,,$5e2df2855e01ef3e5d01ab58,2020-07-13_18h36.28.222,fisher_task,2020.1.3,Win32,60,-0.142592593,-0.341666667,1,0,0,1.7836,scale,,,,,,0.2468,0.2,0.302267034,0.244948974,stimuli/lakes/406074_left.png,stimuli/lakes/406074_right.png,,,,0,49,49,74,1,,,,,
,,,,,,$5e2df2855e01ef3e5d01ab58,2020-07-13_18h36.28.222,fisher_task,2020.1.3,Win32,60,0.112037037,-0.3,1,0,0,1.61665,scale,,,,,,0.1234,0.1,0.3702,0.3,stimuli/lakes/106071_left.png,stimuli/lakes/106071_right.png,,,,0,50,50,71,1,,,,,
,,,,,,$5e2df2855e01ef3e5d01ab58,2020-07-13_18h36.28.222,fisher_task,2020.1.3,Win32,60,-0.106481481,-0.301851852,1,0,0,1.283185,scale,,,,,,0.174513954,0.141421356,0.349027907,0.282842712,stimuli/lakes/2090120_left.png,stimuli/lakes/2090120_right.png,,,,0,51,51,120,1,,,,,
,,,,,,$5e2df2855e01ef3e5d01ab58,2020-07-13_18h36.28.222,fisher_task,2020.1.3,Win32,60,-0.125,-0.338888889,1,0,0,1.099005,scale,,,,,,0.3702,0.3,0.1234,0.1,stimuli/lakes/906088_left.png,stimuli/lakes/906088_right.png,,,,0,52,52,88,1,,,,,
,,,,,,$5e2df2855e01ef3e5d01ab58,2020-07-13_18h36.28.222,fisher_task,2020.1.3,Win32,60,-0.098148148,-0.284259259,1,0,0,1.649545,scale,,,,,,0.275930788,0.223606798,0.275930788,0.223606798,stimuli/lakes/506084_left.png,stimuli/lakes/506084_right.png,,,,0,53,53,84,1,,,,,
,,,,,,$5e2df2855e01ef3e5d01ab58,2020-07-13_18h36.28.222,fisher_task,2020.1.3,Win32,60,-0.151851852,-0.400925926,1,0,0,0.99954,scale,,,,,,0.3702,0.3,0.1234,0.1,stimuli/lakes/9070106_left.png,stimuli/lakes/9070106_right.png,,,,0,54,54,106,1,,,,,
,,,,,,$5e2df2855e01ef3e5d01ab58,2020-07-13_18h36.28.222,fisher_task,2020.1.3,Win32,60,0.125,-0.337037037,1,0,0,1.16651,scale,,,,,,0.21373507,0.173205081,0.326485712,0.264575131,stimuli/lakes/305062_left.png,stimuli/lakes/305062_right.png,,,,0,55,55,62,1,,,,,
,,,,,,$5e2df2855e01ef3e5d01ab58,2020-07-13_18h36.28.222,fisher_task,2020.1.3,Win32,60,0.087037037,-0.286111111,1,0,0,1.36667,scale,,,,,,0.302267034,0.244948974,0.2468,0.2,stimuli/lakes/603028_left.png,stimuli/lakes/603028_right.png,,,,0,56,56,28,1,,,,,
,,,,,,$5e2df2855e01ef3e5d01ab58,2020-07-13_18h36.28.222,fisher_task,2020.1.3,Win32,60,-0.134259259,-0.374074074,1,0,0,0.933345,scale,,,,,,0.326485712,0.264575131,0.21373507,0.173205081,stimuli/lakes/7080117_left.png,stimuli/lakes/7080117_right.png,,,,0,57,57,117,1,,,,,
,,,,,,$5e2df2855e01ef3e5d01ab58,2020-07-13_18h36.28.222,fisher_task,2020.1.3,Win32,60,0.101851852,-0.267592593,1,0,0,1.216345,scale,,,,,,0.326485712,0.264575131,0.21373507,0.173205081,stimuli/lakes/702020_left.png,stimuli/lakes/702020_right.png,,,,0,58,58,20,1,,,,,
,,,,,,$5e2df2855e01ef3e5d01ab58,2020-07-13_18h36.28.222,fisher_task,2020.1.3,Win32,60,0.089814815,-0.276851852,1,0,0,1.28252,scale,,,,,,0.349027907,0.282842712,0.174513954,0.141421356,stimuli/lakes/803030_left.png,stimuli/lakes/803030_right.png,,,,0,59,59,30,1,,,,,
,,,,,,$5e2df2855e01ef3e5d01ab58,2020-07-13_18h36.28.222,fisher_task,2020.1.3,Win32,60,-0.052777778,-0.275,1,0,0,1.300045,scale,,,,,,0.2468,0.2,0.302267034,0.244948974,stimuli/lakes/407092_left.png,stimuli/lakes/407092_right.png,,,,0,60,60,92,1,,,,,
,,,,,,$5e2df2855e01ef3e5d01ab58,2020-07-13_18h36.28.222,fisher_task,2020.1.3,Win32,60,-0.140740741,-0.368518519,1,0,0,1.06643,scale,,,,,,0.302267034,0.244948974,0.2468,0.2,stimuli/lakes/6090126_left.png,stimuli/lakes/6090126_right.png,,,,0,61,61,126,1,,,,,
,,,,,,$5e2df2855e01ef3e5d01ab58,2020-07-13_18h36.28.222,fisher_task,2020.1.3,Win32,60,0.136111111,-0.346296296,1,0,0,1.26656,scale,,,,,,0.21373507,0.173205081,0.326485712,0.264575131,stimuli/lakes/305061_left.png,stimuli/lakes/305061_right.png,,,,0,62,62,61,1,,,,,
,,,,,,$5e2df2855e01ef3e5d01ab58,2020-07-13_18h36.28.222,fisher_task,2020.1.3,Win32,60,0.137962963,-0.374074074,1,0,0,1.066645,scale,,,,,,0.2468,0.2,0.302267034,0.244948974,stimuli/lakes/402015_left.png,stimuli/lakes/402015_right.png,,,,0,63,63,15,1,,,,,
,,,,,,$5e2df2855e01ef3e5d01ab58,2020-07-13_18h36.28.222,fisher_task,2020.1.3,Win32,60,-0.100925926,-0.283333333,1,0,0,1.382925,scale,,,,,,0.2468,0.2,0.302267034,0.244948974,stimuli/lakes/4090123_left.png,stimuli/lakes/4090123_right.png,,,,0,64,64,123,1,,,,,
,,,,,,$5e2df2855e01ef3e5d01ab58,2020-07-13_18h36.28.222,fisher_task,2020.1.3,Win32,60,-0.126851852,-0.352777778,1,0,0,1.18568,scale,,,,,,0.302267034,0.244948974,0.2468,0.2,stimuli/lakes/605065_left.png,stimuli/lakes/605065_right.png,,,,0,65,65,65,1,,,,,
,,,,,,$5e2df2855e01ef3e5d01ab58,2020-07-13_18h36.28.222,fisher_task,2020.1.3,Win32,60,-0.10462963,-0.094444444,1,0,0,0.050065,scale,,,,,,0.349027907,0.282842712,0.174513954,0.141421356,stimuli/lakes/8080118_left.png,stimuli/lakes/8080118_right.png,,,space,0,66,66,118,1,2.81313,,,,
,,,,,,$5e2df2855e01ef3e5d01ab58,2020-07-13_18h36.28.222,fisher_task,2020.1.3,Win32,60,-0.149074074,-0.333333333,1,0,0,1.1162,scale,,,,,,0.21373507,0.173205081,0.326485712,0.264575131,stimuli/lakes/3090122_left.png,stimuli/lakes/3090122_right.png,,,,0,67,67,122,1,,,,,
,,,,,,$5e2df2855e01ef3e5d01ab58,2020-07-13_18h36.28.222,fisher_task,2020.1.3,Win32,60,-0.131481481,-0.326851852,1,0,0,1.249545,scale,,,,,,0.302267034,0.244948974,0.2468,0.2,stimuli/lakes/605066_left.png,stimuli/lakes/605066_right.png,,,,0,68,68,66,1,,,,,
,,,,,,$5e2df2855e01ef3e5d01ab58,2020-07-13_18h36.28.222,fisher_task,2020.1.3,Win32,60,0.139814815,-0.331481481,1,0,0,1.10002,scale,,,,,,0.21373507,0.173205081,0.326485712,0.264575131,stimuli/lakes/304052_left.png,stimuli/lakes/304052_right.png,,,,0,69,69,52,1,,,,,
,,,,,,$5e2df2855e01ef3e5d01ab58,2020-07-13_18h36.28.222,fisher_task,2020.1.3,Win32,60,0.085185185,-0.290740741,1,0,0,0.83263,scale,,,,,,0.2468,0.2,0.302267034,0.244948974,stimuli/lakes/404053_left.png,stimuli/lakes/404053_right.png,,,,0,70,70,53,1,,,,,
,,,,,,$5e2df2855e01ef3e5d01ab58,2020-07-13_18h36.28.222,fisher_task,2020.1.3,Win32,60,-0.121296296,-0.298148148,1,0,0,1.13268,scale,,,,,,0.326485712,0.264575131,0.21373507,0.173205081,stimuli/lakes/704047_left.png,stimuli/lakes/704047_right.png,,,,0,71,71,47,1,,,,,
,,,,,,$5e2df2855e01ef3e5d01ab58,2020-07-13_18h36.28.222,fisher_task,2020.1.3,Win32,60,0.137037037,-0.37037037,1,0,0,0.91667,scale,,,,,,0.1234,0.1,0.3702,0.3,stimuli/lakes/103023_left.png,stimuli/lakes/103023_right.png,,,,0,72,72,23,1,,,,,
,,,,,,$5e2df2855e01ef3e5d01ab58,2020-07-13_18h36.28.222,fisher_task,2020.1.3,Win32,60,-0.078703704,-0.27037037,1,0,0,1.549425,scale,,,,,,0.1234,0.1,0.3702,0.3,stimuli/lakes/107098_left.png,stimuli/lakes/107098_right.png,,,,0,73,73,98,1,,,,,
,,,,,,$5e2df2855e01ef3e5d01ab58,2020-07-13_18h36.28.222,fisher_task,2020.1.3,Win32,60,-0.142592593,-0.396296296,1,0,0,1.53286,scale,,,,,,0.326485712,0.264575131,0.21373507,0.173205081,stimuli/lakes/7080116_left.png,stimuli/lakes/7080116_right.png,,,,0,74,74,116,1,,,,,
,,,,,,$5e2df2855e01ef3e5d01ab58,2020-07-13_18h36.28.222,fisher_task,2020.1.3,Win32,60,0.146296296,-0.387037037,1,0,0,1.09971,scale,,,,,,0.275930788,0.223606798,0.275930788,0.223606798,stimuli/lakes/503036_left.png,stimuli/lakes/503036_right.png,,,,0,75,75,36,1,,,,,
,,,,,,$5e2df2855e01ef3e5d01ab58,2020-07-13_18h36.28.222,fisher_task,2020.1.3,Win32,60,-0.071296296,-0.263888889,1,0,0,2.99997,scale,,,,,,0.1234,0.1,0.3702,0.3,stimuli/lakes/107089_left.png,stimuli/lakes/107089_right.png,,,,0,76,76,89,1,,,,,
,,,,,,$5e2df2855e01ef3e5d01ab58,2020-07-13_18h36.28.222,fisher_task,2020.1.3,Win32,60,0.090740741,-0.298148148,1,0,0,1.08338,scale,,,,,,0.21373507,0.173205081,0.326485712,0.264575131,stimuli/lakes/306073_left.png,stimuli/lakes/306073_right.png,,,,0,77,77,73,1,,,,,
,,,,,,$5e2df2855e01ef3e5d01ab58,2020-07-13_18h36.28.222,fisher_task,2020.1.3,Win32,60,-0.101851852,-0.277777778,1,0,0,1.083205,scale,,,,,,0.21373507,0.173205081,0.326485712,0.264575131,stimuli/lakes/3080109_left.png,stimuli/lakes/3080109_right.png,,,,0,78,78,109,1,,,,,
,,,,,,$5e2df2855e01ef3e5d01ab58,2020-07-13_18h36.28.222,fisher_task,2020.1.3,Win32,60,-0.149074074,-0.350925926,1,0,0,0.916465,scale,,,,,,0.21373507,0.173205081,0.326485712,0.264575131,stimuli/lakes/3070100_left.png,stimuli/lakes/3070100_right.png,,,,0,79,79,100,1,,,,,
,,,,,,$5e2df2855e01ef3e5d01ab58,2020-07-13_18h36.28.222,fisher_task,2020.1.3,Win32,60,-0.099074074,-0.27037037,1,0,0,1.01659,scale,,,,,,0.174513954,0.141421356,0.349027907,0.282842712,stimuli/lakes/207090_left.png,stimuli/lakes/207090_right.png,,,,0,80,80,90,1,,,,,
,,,,,,$5e2df2855e01ef3e5d01ab58,2020-07-13_18h36.28.222,fisher_task,2020.1.3,Win32,60,-0.140740741,-0.360185185,1,0,0,0.933585,scale,,,,,,0.3702,0.3,0.1234,0.1,stimuli/lakes/906079_left.png,stimuli/lakes/906079_right.png,,,,0,81,81,79,1,,,,,
,,,,,,$5e2df2855e01ef3e5d01ab58,2020-07-13_18h36.28.222,fisher_task,2020.1.3,Win32,60,0.122222222,-0.306481481,1,0,0,0.99955,scale,,,,,,0.326485712,0.264575131,0.21373507,0.173205081,stimuli/lakes/702019_left.png,stimuli/lakes/702019_right.png,,,,0,82,82,19,1,,,,,
,,,,,,$5e2df2855e01ef3e5d01ab58,2020-07-13_18h36.28.222,fisher_task,2020.1.3,Win32,60,0.12962963,-0.367592593,1,0,0,0.91604,scale,,,,,,0.1234,0.1,0.3702,0.3,stimuli/lakes/103032_left.png,stimuli/lakes/103032_right.png,,,,0,83,83,32,1,,,,,
,,,,,,$5e2df2855e01ef3e5d01ab58,2020-07-13_18h36.28.222,fisher_task,2020.1.3,Win32,60,-0.159259259,-0.34537037,1,0,0,0.715995,scale,,,,,,0.302267034,0.244948974,0.2468,0.2,stimuli/lakes/606085_left.png,stimuli/lakes/606085_right.png,,,,0,84,84,85,1,,,,,
,,,,,,$5e2df2855e01ef3e5d01ab58,2020-07-13_18h36.28.222,fisher_task,2020.1.3,Win32,60,0.094444444,-0.284259259,1,0,0,1.09918,scale,,,,,,0.174513954,0.141421356,0.349027907,0.282842712,stimuli/lakes/203024_left.png,stimuli/lakes/203024_right.png,,,,0,85,85,24,1,,,,,
,,,,,,$5e2df2855e01ef3e5d01ab58,2020-07-13_18h36.28.222,fisher_task,2020.1.3,Win32,60,0.144444444,-0.392592593,1,0,0,1.63251,scale,,,,,,0.302267034,0.244948974,0.2468,0.2,stimuli/lakes/60106_left.png,stimuli/lakes/60106_right.png,,,,0,86,86,6,1,,,,,
,,,,,,$5e2df2855e01ef3e5d01ab58,2020-07-13_18h36.28.222,fisher_task,2020.1.3,Win32,60,-0.141666667,-0.365740741,1,0,0,1.733105,scale,,,,,,0.302267034,0.244948974,0.2468,0.2,stimuli/lakes/607094_left.png,stimuli/lakes/607094_right.png,,,,0,87,87,94,1,,,,,
,,,,,,$5e2df2855e01ef3e5d01ab58,2020-07-13_18h36.28.222,fisher_task,2020.1.3,Win32,60,0.116666667,-0.308333333,1,0,0,1.04956,scale,,,,,,0.2468,0.2,0.302267034,0.244948974,stimuli/lakes/403026_left.png,stimuli/lakes/403026_right.png,,,space,0,88,88,26,1,1.99695,,,,
,,,,,,$5e2df2855e01ef3e5d01ab58,2020-07-13_18h36.28.222,fisher_task,2020.1.3,Win32,60,0.162037037,-0.384259259,1,0,0,0.866315,scale,,,,,,0.21373507,0.173205081,0.326485712,0.264575131,stimuli/lakes/302012_left.png,stimuli/lakes/302012_right.png,,,,0,89,89,12,1,,,,,
,,,,,,$5e2df2855e01ef3e5d01ab58,2020-07-13_18h36.28.222,fisher_task,2020.1.3,Win32,60,-0.144444444,-0.390740741,1,0,0,0.965605,scale,,,,,,0.326485712,0.264575131,0.21373507,0.173205081,stimuli/lakes/705068_left.png,stimuli/lakes/705068_right.png,,,,0,90,90,68,1,,,,,
,,,,,,$5e2df2855e01ef3e5d01ab58,2020-07-13_18h36.28.222,fisher_task,2020.1.3,Win32,60,0.175925926,-0.383333333,1,0,0,0.966285,scale,,,,,,0.21373507,0.173205081,0.326485712,0.264575131,stimuli/lakes/303025_left.png,stimuli/lakes/303025_right.png,,,,0,91,91,25,1,,,,,
,,,,,,$5e2df2855e01ef3e5d01ab58,2020-07-13_18h36.28.222,fisher_task,2020.1.3,Win32,60,0.12962963,-0.412037037,1,0,0,1.032785,scale,,,,,,0.326485712,0.264575131,0.21373507,0.173205081,stimuli/lakes/70108_left.png,stimuli/lakes/70108_right.png,,,,0,92,92,8,1,,,,,
,,,,,,$5e2df2855e01ef3e5d01ab58,2020-07-13_18h36.28.222,fisher_task,2020.1.3,Win32,60,-0.131481481,-0.402777778,1,0,0,0.882995,scale,,,,,,0.275930788,0.223606798,0.275930788,0.223606798,stimuli/lakes/5070102_left.png,stimuli/lakes/5070102_right.png,,,,0,93,93,102,1,,,,,
,,,,,,$5e2df2855e01ef3e5d01ab58,2020-07-13_18h36.28.222,fisher_task,2020.1.3,Win32,60,-0.126851852,-0.290740741,1,0,0,1.282735,scale,,,,,,0.3702,0.3,0.1234,0.1,stimuli/lakes/904058_left.png,stimuli/lakes/904058_right.png,,,,0,94,94,58,1,,,,,
,,,,,,$5e2df2855e01ef3e5d01ab58,2020-07-13_18h36.28.222,fisher_task,2020.1.3,Win32,60,0.006481481,-0.258333333,1,0,0,1.83318,scale,,,,,,0.2468,0.2,0.302267034,0.244948974,stimuli/lakes/4070101_left.png,stimuli/lakes/4070101_right.png,,,,0,95,95,101,1,,,,,
,,,,,,$5e2df2855e01ef3e5d01ab58,2020-07-13_18h36.28.222,fisher_task,2020.1.3,Win32,60,-0.125,-0.300925926,1,0,0,1.649665,scale,,,,,,0.174513954,0.141421356,0.349027907,0.282842712,stimuli/lakes/206072_left.png,stimuli/lakes/206072_right.png,,,,0,96,96,72,1,,,,,
,,,,,,$5e2df2855e01ef3e5d01ab58,2020-07-13_18h36.28.222,fisher_task,2020.1.3,Win32,60,0.081481481,-0.286111111,1,0,0,4.066215,scale,,,,,,0.275930788,0.223606798,0.275930788,0.223606798,stimuli/lakes/504045_left.png,stimuli/lakes/504045_right.png,,,,0,97,97,45,1,,,,,
,,,,,,$5e2df2855e01ef3e5d01ab58,2020-07-13_18h36.28.222,fisher_task,2020.1.3,Win32,60,0.078703704,-0.283333333,1,0,0,1.433255,scale,,,,,,0.326485712,0.264575131,0.21373507,0.173205081,stimuli/lakes/704056_left.png,stimuli/lakes/704056_right.png,,,,0,98,98,56,1,,,,,
,,,,,,$5e2df2855e01ef3e5d01ab58,2020-07-13_18h36.28.222,fisher_task,2020.1.3,Win32,60,0.106481481,-0.293518519,1,0,0,8.71646,scale,,,,,,0.275930788,0.223606798,0.275930788,0.223606798,stimuli/lakes/503027_left.png,stimuli/lakes/503027_right.png,,,,0,99,99,27,1,,,,,
,,,,,,$5e2df2855e01ef3e5d01ab58,2020-07-13_18h36.28.222,fisher_task,2020.1.3,Win32,60,0.134259259,-0.393518519,1,0,0,1.316685,scale,,,,,,0.174513954,0.141421356,0.349027907,0.282842712,stimuli/lakes/202011_left.png,stimuli/lakes/202011_right.png,,,,0,100,100,11,1,,,,,
,,,,,,$5e2df2855e01ef3e5d01ab58,2020-07-13_18h36.28.222,fisher_task,2020.1.3,Win32,60,-0.142592593,-0.411111111,1,0,0,1.066895,scale,,,,,,0.21373507,0.173205081,0.326485712,0.264575131,stimuli/lakes/3090121_left.png,stimuli/lakes/3090121_right.png,,,,0,101,101,121,1,,,,,
,,,,,,$5e2df2855e01ef3e5d01ab58,2020-07-13_18h36.28.222,fisher_task,2020.1.3,Win32,60,-0.112037037,-0.302777778,1,0,0,1.08362,scale,,,,,,0.1234,0.1,0.3702,0.3,stimuli/lakes/1080107_left.png,stimuli/lakes/1080107_right.png,,,,0,102,102,107,1,,,,,
,,,,,,$5e2df2855e01ef3e5d01ab58,2020-07-13_18h36.28.222,fisher_task,2020.1.3,Win32,60,-0.144444444,-0.365740741,1,0,0,0.9664,scale,,,,,,0.174513954,0.141421356,0.349027907,0.282842712,stimuli/lakes/206081_left.png,stimuli/lakes/206081_right.png,,,,0,103,103,81,1,,,,,
,,,,,,$5e2df2855e01ef3e5d01ab58,2020-07-13_18h36.28.222,fisher_task,2020.1.3,Win32,60,0.109259259,-0.290740741,1,0,0,1.91598,scale,,,,,,0.21373507,0.173205081,0.326485712,0.264575131,stimuli/lakes/306082_left.png,stimuli/lakes/306082_right.png,,,,0,104,104,82,1,,,,,
,,,,,,$5e2df2855e01ef3e5d01ab58,2020-07-13_18h36.28.222,fisher_task,2020.1.3,Win32,60,0.139814815,-0.414814815,1,0,0,1.099445,scale,,,,,,0.21373507,0.173205081,0.326485712,0.264575131,stimuli/lakes/30100_left.png,stimuli/lakes/30100_right.png,,,,0,105,105,0,1,,,,,
,,,,,,$5e2df2855e01ef3e5d01ab58,2020-07-13_18h36.28.222,fisher_task,2020.1.3,Win32,60,0.160185185,-0.413888889,1,0,0,1.166325,scale,,,,,,0.275930788,0.223606798,0.275930788,0.223606798,stimuli/lakes/502016_left.png,stimuli/lakes/502016_right.png,,,,0,106,106,16,1,,,,,
,,,,,,$5e2df2855e01ef3e5d01ab58,2020-07-13_18h36.28.222,fisher_task,2020.1.3,Win32,60,-0.153703704,-0.342592593,1,0,0,1.016385,scale,,,,,,0.2468,0.2,0.302267034,0.244948974,stimuli/lakes/4080112_left.png,stimuli/lakes/4080112_right.png,,,,0,107,107,112,1,,,,,
,,,,,,$5e2df2855e01ef3e5d01ab58,2020-07-13_18h36.28.222,fisher_task,2020.1.3,Win32,60,0.134259259,-0.325,1,0,0,0.93348,scale,,,,,,0.21373507,0.173205081,0.326485712,0.264575131,stimuli/lakes/304043_left.png,stimuli/lakes/304043_right.png,,,,0,108,108,43,1,,,,,
,,,,,,$5e2df2855e01ef3e5d01ab58,2020-07-13_18h36.28.222,fisher_task,2020.1.3,Win32,60,-0.162962963,-0.324074074,1,0,0,1.03257,scale,,,,,,0.2468,0.2,0.302267034,0.244948974,stimuli/lakes/406083_left.png,stimuli/lakes/406083_right.png,,,,0,109,109,83,1,,,,,
,,,,,,$5e2df2855e01ef3e5d01ab58,2020-07-13_18h36.28.222,fisher_task,2020.1.3,Win32,60,-0.144444444,-0.391666667,1,0,0,1.165805,scale,,,,,,0.275930788,0.223606798,0.275930788,0.223606798,stimuli/lakes/5090125_left.png,stimuli/lakes/5090125_right.png,,,space,0,110,110,125,1,2.122585,,,,
,,,,,,$5e2df2855e01ef3e5d01ab58,2020-07-13_18h36.28.222,fisher_task,2020.1.3,Win32,60,-0.156481481,-0.425925926,1,0,0,1.366215,scale,,,,,,0.349027907,0.282842712,0.174513954,0.141421356,stimuli/lakes/804048_left.png,stimuli/lakes/804048_right.png,,,,0,111,111,48,1,,,,,
,,,,,,$5e2df2855e01ef3e5d01ab58,2020-07-13_18h36.28.222,fisher_task,2020.1.3,Win32,60,-0.139814815,-0.385185185,1,0,0,1.14938,scale,,,,,,0.326485712,0.264575131,0.21373507,0.173205081,stimuli/lakes/707095_left.png,stimuli/lakes/707095_right.png,,,,0,112,112,95,1,,,,,
,,,,,,$5e2df2855e01ef3e5d01ab58,2020-07-13_18h36.28.222,fisher_task,2020.1.3,Win32,60,0.110185185,-0.286111111,1,0,0,1.23302,scale,,,,,,0.302267034,0.244948974,0.2468,0.2,stimuli/lakes/602018_left.png,stimuli/lakes/602018_right.png,,,,0,113,113,18,1,,,,,
,,,,,,$5e2df2855e01ef3e5d01ab58,2020-07-13_18h36.28.222,fisher_task,2020.1.3,Win32,60,0.084259259,-0.281481481,1,0,0,1.699925,scale,,,,,,0.174513954,0.141421356,0.349027907,0.282842712,stimuli/lakes/207099_left.png,stimuli/lakes/207099_right.png,,,,0,114,114,99,1,,,,,
,,,,,,$5e2df2855e01ef3e5d01ab58,2020-07-13_18h36.28.222,fisher_task,2020.1.3,Win32,60,-0.106481481,-0.287962963,1,0,0,1.4994,scale,,,,,,0.3702,0.3,0.1234,0.1,stimuli/lakes/904049_left.png,stimuli/lakes/904049_right.png,,,,0,115,115,49,1,,,,,
,,,,,,$5e2df2855e01ef3e5d01ab58,2020-07-13_18h36.28.222,fisher_task,2020.1.3,Win32,60,-0.131481481,-0.338888889,1,0,0,1.515915,scale,,,,,,0.3702,0.3,0.1234,0.1,stimuli/lakes/905070_left.png,stimuli/lakes/905070_right.png,,,,0,116,116,70,1,,,,,
,,,,,,$5e2df2855e01ef3e5d01ab58,2020-07-13_18h36.28.222,fisher_task,2020.1.3,Win32,60,-0.077777778,-0.275925926,1,0,0,3.56668,scale,,,,,,0.275930788,0.223606798,0.275930788,0.223606798,stimuli/lakes/506075_left.png,stimuli/lakes/506075_right.png,,,,0,117,117,75,1,,,,,
,,,,,,$5e2df2855e01ef3e5d01ab58,2020-07-13_18h36.28.222,fisher_task,2020.1.3,Win32,60,-0.073148148,-0.262962963,1,0,0,1.49993,scale,,,,,,0.21373507,0.173205081,0.326485712,0.264575131,stimuli/lakes/307091_left.png,stimuli/lakes/307091_right.png,,,,0,118,118,91,1,,,,,
,,,,,,$5e2df2855e01ef3e5d01ab58,2020-07-13_18h36.28.222,fisher_task,2020.1.3,Win32,60,-0.143518519,-0.384259259,1,0,0,1.26622,scale,,,,,,0.2468,0.2,0.302267034,0.244948974,stimuli/lakes/4090124_left.png,stimuli/lakes/4090124_right.png,,,,0,119,119,124,1,,,,,
,,,,,,$5e2df2855e01ef3e5d01ab58,2020-07-13_18h36.28.222,fisher_task,2020.1.3,Win32,60,0.144444444,-0.411111111,1,0,0,1.999645,scale,,,,,,0.2468,0.2,0.302267034,0.244948974,stimuli/lakes/40102_left.png,stimuli/lakes/40102_right.png,,,,0,120,120,2,1,,,,,
,,,,,,$5e2df2855e01ef3e5d01ab58,2020-07-13_18h36.28.222,fisher_task,2020.1.3,Win32,60,0.136111111,-0.412962963,1,0,0,1.21652,scale,,,,,,0.2468,0.2,0.302267034,0.244948974,stimuli/lakes/40103_left.png,stimuli/lakes/40103_right.png,,,,0,121,121,3,1,,,,,
,,,,,,$5e2df2855e01ef3e5d01ab58,2020-07-13_18h36.28.222,fisher_task,2020.1.3,Win32,60,-0.12962963,-0.332407407,1,0,0,0.89929,scale,,,,,,0.326485712,0.264575131,0.21373507,0.173205081,stimuli/lakes/706086_left.png,stimuli/lakes/706086_right.png,,,,0,122,122,86,1,,,,,
,,,,,,$5e2df2855e01ef3e5d01ab58,2020-07-13_18h36.28.222,fisher_task,2020.1.3,Win32,60,0.137962963,-0.35,1,0,0,1.04955,scale,,,,,,0.174513954,0.141421356,0.349027907,0.282842712,stimuli/lakes/203033_left.png,stimuli/lakes/203033_right.png,,,,0,123,123,33,1,,,,,
,,,,,,$5e2df2855e01ef3e5d01ab58,2020-07-13_18h36.28.222,fisher_task,2020.1.3,Win32,60,-0.15462963,-0.369444444,1,0,0,0.96666,scale,,,,,,0.326485712,0.264575131,0.21373507,0.173205081,stimuli/lakes/7090129_left.png,stimuli/lakes/7090129_right.png,,,,0,124,124,129,1,,,,,
,,,,,,$5e2df2855e01ef3e5d01ab58,2020-07-13_18h36.28.222,fisher_task,2020.1.3,Win32,60,0.069444444,-0.275,1,0,0,1.265815,scale,,,,,,0.326485712,0.264575131,0.21373507,0.173205081,stimuli/lakes/70107_left.png,stimuli/lakes/70107_right.png,,,,0,125,125,7,1,,,,,
,,,,,,$5e2df2855e01ef3e5d01ab58,2020-07-13_18h36.28.222,fisher_task,2020.1.3,Win32,60,-0.15462963,-0.369444444,1,0,0,1.31575,scale,,,,,,0.326485712,0.264575131,0.21373507,0.173205081,stimuli/lakes/7090128_left.png,stimuli/lakes/7090128_right.png,,,,0,126,126,128,1,,,,,
,,,,,,$5e2df2855e01ef3e5d01ab58,2020-07-13_18h36.28.222,fisher_task,2020.1.3,Win32,60,0.157407407,-0.357407407,1,0,0,1.18277,scale,,,,,,0.302267034,0.244948974,0.2468,0.2,stimuli/lakes/60105_left.png,stimuli/lakes/60105_right.png,,,,0,127,127,5,1,,,,,
,,,,,,$5e2df2855e01ef3e5d01ab58,2020-07-13_18h36.28.222,fisher_task,2020.1.3,Win32,60,-0.163888889,-0.37037037,1,0,0,1.01639,scale,,,,,,0.302267034,0.244948974,0.2468,0.2,stimuli/lakes/606076_left.png,stimuli/lakes/606076_right.png,,,,0,128,128,76,1,,,,,
,,,,,,$5e2df2855e01ef3e5d01ab58,2020-07-13_18h36.28.222,fisher_task,2020.1.3,Win32,60,0.075925926,-0.283333333,1,0,0,1.06628,scale,,,,,,0.3702,0.3,0.1234,0.1,stimuli/lakes/903031_left.png,stimuli/lakes/903031_right.png,,,,0,129,129,31,1,,,,,
,,,,,,$5e2df2855e01ef3e5d01ab58,2020-07-13_18h36.28.222,fisher_task,2020.1.3,Win32,60,,,,,,,,,,,,,,,,,,,,,,,,,,,,space,7.72998,space,21.139005
