keySpace.keys,instructions.thisRepN,instructions.thisTrialN,instructions.thisN,instructions.thisIndex,instructions.ran,participant,date,expName,psychopyVersion,OS,frameRate,mouse.x,mouse.y,mouse.leftButton,mouse.midButton,mouse.rightButton,mouse.time,mouse.clicked_name,training.thisRepN,training.thisTrialN,training.thisN,training.thisIndex,training.ran,widthBasketLeft,heightBasketLeft,widthBasketRight,heightBasketRight,leftLake,rightLake,space2.keys,space2.rt,space1.keys,trials.thisRepN,trials.thisTrialN,trials.thisN,trials.thisIndex,trials.ran,space1.rt,finalSpace1.keys,finalSpace1.rt,finalSpace2.keys,finalSpace2.rt
,0,0,0,0,1,$5eeb40c601b1dc2907bbff74,2020-07-20_15h42.24.277,fisher_task,2020.1.3,Win32,60,,,,,,,,,,,,,,,,,,,,,,,,,,,,,,,
,,,,,,$5eeb40c601b1dc2907bbff74,2020-07-20_15h42.24.277,fisher_task,2020.1.3,Win32,60,0.177083333,-0.389322917,1,0,0,2.48232,scale,0,0,0,0,1,0.275930788,0.223606798,0.275930788,0.223606798,stimuli/training/20_left.png,stimuli/training/20_right.png,,,,,,,,,,,,,
,,,,,,$5eeb40c601b1dc2907bbff74,2020-07-20_15h42.24.277,fisher_task,2020.1.3,Win32,60,-0.17578125,-0.380208333,1,0,0,1.81621,scale,0,1,1,1,1,0.275930788,0.223606798,0.275930788,0.223606798,stimuli/training/80_left.png,stimuli/training/80_right.png,,,,,,,,,,,,,
,,,,,,$5eeb40c601b1dc2907bbff74,2020-07-20_15h42.24.277,fisher_task,2020.1.3,Win32,60,0.161458333,-0.384114583,1,0,0,2.215915,scale,0,2,2,2,1,0.174513954,0.141421356,0.349027907,0.282842712,stimuli/training/50_left.png,stimuli/training/50_right.png,,,,,,,,,,,,,
,,,,,,$5eeb40c601b1dc2907bbff74,2020-07-20_15h42.24.277,fisher_task,2020.1.3,Win32,60,-0.104166667,-0.2890625,1,0,0,1.83263,scale,0,3,3,3,1,0.349027907,0.282842712,0.174513954,0.141421356,stimuli/training/50_left.png,stimuli/training/50_right.png,,,,,,,,,,,,,
,,,,,,$5eeb40c601b1dc2907bbff74,2020-07-20_15h42.24.277,fisher_task,2020.1.3,Win32,60,0,-0.260416667,1,0,0,1.76595,scale,0,4,4,4,1,0.275930788,0.223606798,0.275930788,0.223606798,stimuli/training/50_left.png,stimuli/training/50_right.png,,,,,,,,,,,,,
,,,,,,$5eeb40c601b1dc2907bbff74,2020-07-20_15h42.24.277,fisher_task,2020.1.3,Win32,60,0.177083333,-0.430989583,1,0,0,1.43272,scale,0,5,5,5,1,0.174513954,0.141421356,0.349027907,0.282842712,stimuli/training/20_left.png,stimuli/training/20_right.png,,,,,,,,,,,,,
,,,,,,$5eeb40c601b1dc2907bbff74,2020-07-20_15h42.24.277,fisher_task,2020.1.3,Win32,60,-0.174479167,-0.416666667,1,0,0,1.849225,scale,0,6,6,6,1,0.349027907,0.282842712,0.174513954,0.141421356,stimuli/training/80_left.png,stimuli/training/80_right.png,,,,,,,,,,,,,
,,,,,,$5eeb40c601b1dc2907bbff74,2020-07-20_15h42.24.277,fisher_task,2020.1.3,Win32,60,0.157552083,-0.37109375,1,0,0,1.30029,scale,0,7,7,7,1,0.1234,0.1,0.3702,0.3,stimuli/training/30_left.png,stimuli/training/30_right.png,,,,,,,,,,,,,
,,,,,,$5eeb40c601b1dc2907bbff74,2020-07-20_15h42.24.277,fisher_task,2020.1.3,Win32,60,-0.151041667,-0.361979167,1,0,0,1.09922,scale,0,8,8,8,1,0.3702,0.3,0.1234,0.1,stimuli/training/70_left.png,stimuli/training/70_right.png,,,,,,,,,,,,,
,,,,,,$5eeb40c601b1dc2907bbff74,2020-07-20_15h42.24.277,fisher_task,2020.1.3,Win32,60,-0.166666667,-0.438802083,1,0,0,1.165995,scale,0,9,9,9,1,0.326485712,0.264575131,0.21373507,0.173205081,stimuli/training/90_left.png,stimuli/training/90_right.png,,,,,,,,,,,,,
,,,,,,$5eeb40c601b1dc2907bbff74,2020-07-20_15h42.24.277,fisher_task,2020.1.3,Win32,60,0.180989583,-0.440104167,1,0,0,1.099835,scale,0,10,10,10,1,0.21373507,0.173205081,0.326485712,0.264575131,stimuli/training/10_left.png,stimuli/training/10_right.png,,,,,,,,,,,,,
,,,,,,$5eeb40c601b1dc2907bbff74,2020-07-20_15h42.24.277,fisher_task,2020.1.3,Win32,60,0.169270833,-0.385416667,1,0,0,2.632435,scale,,,,,,0.2468,0.2,0.302267034,0.244948974,stimuli/lakes/404044_left.png,stimuli/lakes/404044_right.png,space,5.123525,,0,0,0,44,1,,,,,
,,,,,,$5eeb40c601b1dc2907bbff74,2020-07-20_15h42.24.277,fisher_task,2020.1.3,Win32,60,-0.100260417,-0.282552083,1,0,0,3.7817,scale,,,,,,0.3702,0.3,0.1234,0.1,stimuli/lakes/904049_left.png,stimuli/lakes/904049_right.png,,,,0,1,1,49,1,,,,,
,,,,,,$5eeb40c601b1dc2907bbff74,2020-07-20_15h42.24.277,fisher_task,2020.1.3,Win32,60,-0.165364583,-0.40625,1,0,0,1.382705,scale,,,,,,0.349027907,0.282842712,0.174513954,0.141421356,stimuli/lakes/807096_left.png,stimuli/lakes/807096_right.png,,,,0,2,2,96,1,,,,,
,,,,,,$5eeb40c601b1dc2907bbff74,2020-07-20_15h42.24.277,fisher_task,2020.1.3,Win32,60,0.118489583,-0.33984375,1,0,0,2.14879,scale,,,,,,0.21373507,0.173205081,0.326485712,0.264575131,stimuli/lakes/306073_left.png,stimuli/lakes/306073_right.png,,,,0,3,3,73,1,,,,,
,,,,,,$5eeb40c601b1dc2907bbff74,2020-07-20_15h42.24.277,fisher_task,2020.1.3,Win32,60,0.166666667,-0.373697917,1,0,0,1.516055,scale,,,,,,0.21373507,0.173205081,0.326485712,0.264575131,stimuli/lakes/304052_left.png,stimuli/lakes/304052_right.png,,,,0,4,4,52,1,,,,,
,,,,,,$5eeb40c601b1dc2907bbff74,2020-07-20_15h42.24.277,fisher_task,2020.1.3,Win32,60,-0.194010417,-0.44921875,1,0,0,1.64882,scale,,,,,,0.326485712,0.264575131,0.21373507,0.173205081,stimuli/lakes/7090128_left.png,stimuli/lakes/7090128_right.png,,,,0,5,5,128,1,,,,,
,,,,,,$5eeb40c601b1dc2907bbff74,2020-07-20_15h42.24.277,fisher_task,2020.1.3,Win32,60,-0.135416667,-0.319010417,1,0,0,1.616,scale,,,,,,0.2468,0.2,0.302267034,0.244948974,stimuli/lakes/4070101_left.png,stimuli/lakes/4070101_right.png,,,,0,6,6,101,1,,,,,
,,,,,,$5eeb40c601b1dc2907bbff74,2020-07-20_15h42.24.277,fisher_task,2020.1.3,Win32,60,0.138020833,-0.33203125,1,0,0,1.3827,scale,,,,,,0.1234,0.1,0.3702,0.3,stimuli/lakes/104041_left.png,stimuli/lakes/104041_right.png,,,,0,7,7,41,1,,,,,
,,,,,,$5eeb40c601b1dc2907bbff74,2020-07-20_15h42.24.277,fisher_task,2020.1.3,Win32,60,-0.1171875,-0.302083333,1,0,0,3.065665,scale,,,,,,0.1234,0.1,0.3702,0.3,stimuli/lakes/107098_left.png,stimuli/lakes/107098_right.png,,,,0,8,8,98,1,,,,,
,,,,,,$5eeb40c601b1dc2907bbff74,2020-07-20_15h42.24.277,fisher_task,2020.1.3,Win32,60,0.122395833,-0.302083333,1,0,0,1.24941,scale,,,,,,0.326485712,0.264575131,0.21373507,0.173205081,stimuli/lakes/703029_left.png,stimuli/lakes/703029_right.png,,,,0,9,9,29,1,,,,,
,,,,,,$5eeb40c601b1dc2907bbff74,2020-07-20_15h42.24.277,fisher_task,2020.1.3,Win32,60,0.17578125,-0.427083333,1,0,0,1.366025,scale,,,,,,0.21373507,0.173205081,0.326485712,0.264575131,stimuli/lakes/302013_left.png,stimuli/lakes/302013_right.png,,,,0,10,10,13,1,,,,,
,,,,,,$5eeb40c601b1dc2907bbff74,2020-07-20_15h42.24.277,fisher_task,2020.1.3,Win32,60,-0.138020833,-0.350260417,1,0,0,1.59934,scale,,,,,,0.326485712,0.264575131,0.21373507,0.173205081,stimuli/lakes/704056_left.png,stimuli/lakes/704056_right.png,,,,0,11,11,56,1,,,,,
,,,,,,$5eeb40c601b1dc2907bbff74,2020-07-20_15h42.24.277,fisher_task,2020.1.3,Win32,60,-0.158854167,-0.399739583,1,0,0,1.53265,scale,,,,,,0.326485712,0.264575131,0.21373507,0.173205081,stimuli/lakes/705067_left.png,stimuli/lakes/705067_right.png,,,,0,12,12,67,1,,,,,
,,,,,,$5eeb40c601b1dc2907bbff74,2020-07-20_15h42.24.277,fisher_task,2020.1.3,Win32,60,-0.100260417,-0.302083333,1,0,0,2.215795,scale,,,,,,0.21373507,0.173205081,0.326485712,0.264575131,stimuli/lakes/3080110_left.png,stimuli/lakes/3080110_right.png,,,,0,13,13,110,1,,,,,
,,,,,,$5eeb40c601b1dc2907bbff74,2020-07-20_15h42.24.277,fisher_task,2020.1.3,Win32,60,-0.14453125,-0.342447917,1,0,0,2.66504,scale,,,,,,0.174513954,0.141421356,0.349027907,0.282842712,stimuli/lakes/207090_left.png,stimuli/lakes/207090_right.png,,,,0,14,14,90,1,,,,,
,,,,,,$5eeb40c601b1dc2907bbff74,2020-07-20_15h42.24.277,fisher_task,2020.1.3,Win32,60,0.09765625,-0.286458333,1,0,0,4.38167,scale,,,,,,0.21373507,0.173205081,0.326485712,0.264575131,stimuli/lakes/306082_left.png,stimuli/lakes/306082_right.png,,,,0,15,15,82,1,,,,,
,,,,,,$5eeb40c601b1dc2907bbff74,2020-07-20_15h42.24.277,fisher_task,2020.1.3,Win32,60,-0.158854167,-0.368489583,1,0,0,1.532695,scale,,,,,,0.302267034,0.244948974,0.2468,0.2,stimuli/lakes/605065_left.png,stimuli/lakes/605065_right.png,,,,0,16,16,65,1,,,,,
,,,,,,$5eeb40c601b1dc2907bbff74,2020-07-20_15h42.24.277,fisher_task,2020.1.3,Win32,60,-0.171875,-0.412760417,1,0,0,1.232755,scale,,,,,,0.349027907,0.282842712,0.174513954,0.141421356,stimuli/lakes/806078_left.png,stimuli/lakes/806078_right.png,,,,0,17,17,78,1,,,,,
,,,,,,$5eeb40c601b1dc2907bbff74,2020-07-20_15h42.24.277,fisher_task,2020.1.3,Win32,60,-0.157552083,-0.3515625,1,0,0,1.81583,scale,,,,,,0.326485712,0.264575131,0.21373507,0.173205081,stimuli/lakes/706086_left.png,stimuli/lakes/706086_right.png,,,,0,18,18,86,1,,,,,
,,,,,,$5eeb40c601b1dc2907bbff74,2020-07-20_15h42.24.277,fisher_task,2020.1.3,Win32,60,-0.18359375,-0.3828125,1,0,0,1.21605,scale,,,,,,0.3702,0.3,0.1234,0.1,stimuli/lakes/906079_left.png,stimuli/lakes/906079_right.png,,,,0,19,19,79,1,,,,,
,,,,,,$5eeb40c601b1dc2907bbff74,2020-07-20_15h42.24.277,fisher_task,2020.1.3,Win32,60,0.147135417,-0.4296875,1,0,0,1.14981,scale,,,,,,0.2468,0.2,0.302267034,0.244948974,stimuli/lakes/402015_left.png,stimuli/lakes/402015_right.png,,,,0,20,20,15,1,,,,,
,,,,,,$5eeb40c601b1dc2907bbff74,2020-07-20_15h42.24.277,fisher_task,2020.1.3,Win32,60,-0.134114583,-0.354166667,1,0,0,1.38216,scale,,,,,,0.302267034,0.244948974,0.2468,0.2,stimuli/lakes/606076_left.png,stimuli/lakes/606076_right.png,,,,0,21,21,76,1,,,,,
,,,,,,$5eeb40c601b1dc2907bbff74,2020-07-20_15h42.24.277,fisher_task,2020.1.3,Win32,60,0.13671875,-0.309895833,1,0,0,2.631905,scale,,,,,,0.349027907,0.282842712,0.174513954,0.141421356,stimuli/lakes/802021_left.png,stimuli/lakes/802021_right.png,,,space,0,22,22,21,1,6.310485,,,,
,,,,,,$5eeb40c601b1dc2907bbff74,2020-07-20_15h42.24.277,fisher_task,2020.1.3,Win32,60,0.17578125,-0.41015625,1,0,0,0.931885,scale,,,,,,0.2468,0.2,0.302267034,0.244948974,stimuli/lakes/402014_left.png,stimuli/lakes/402014_right.png,,,,0,23,23,14,1,,,,,
,,,,,,$5eeb40c601b1dc2907bbff74,2020-07-20_15h42.24.277,fisher_task,2020.1.3,Win32,60,-0.143229167,-0.333333333,1,0,0,2.1992,scale,,,,,,0.2468,0.2,0.302267034,0.244948974,stimuli/lakes/4080112_left.png,stimuli/lakes/4080112_right.png,,,,0,24,24,112,1,,,,,
,,,,,,$5eeb40c601b1dc2907bbff74,2020-07-20_15h42.24.277,fisher_task,2020.1.3,Win32,60,0.123697917,-0.31640625,1,0,0,1.815915,scale,,,,,,0.174513954,0.141421356,0.349027907,0.282842712,stimuli/lakes/206081_left.png,stimuli/lakes/206081_right.png,,,,0,25,25,81,1,,,,,
,,,,,,$5eeb40c601b1dc2907bbff74,2020-07-20_15h42.24.277,fisher_task,2020.1.3,Win32,60,-0.08984375,-0.294270833,1,0,0,2.015575,scale,,,,,,0.326485712,0.264575131,0.21373507,0.173205081,stimuli/lakes/703038_left.png,stimuli/lakes/703038_right.png,,,,0,26,26,38,1,,,,,
,,,,,,$5eeb40c601b1dc2907bbff74,2020-07-20_15h42.24.277,fisher_task,2020.1.3,Win32,60,-0.15625,-0.352864583,1,0,0,1.13274,scale,,,,,,0.302267034,0.244948974,0.2468,0.2,stimuli/lakes/605066_left.png,stimuli/lakes/605066_right.png,,,,0,27,27,66,1,,,,,
,,,,,,$5eeb40c601b1dc2907bbff74,2020-07-20_15h42.24.277,fisher_task,2020.1.3,Win32,60,0.098958333,-0.283854167,1,0,0,5.19856,scale,,,,,,0.3702,0.3,0.1234,0.1,stimuli/lakes/904058_left.png,stimuli/lakes/904058_right.png,,,,0,28,28,58,1,,,,,
,,,,,,$5eeb40c601b1dc2907bbff74,2020-07-20_15h42.24.277,fisher_task,2020.1.3,Win32,60,0.165364583,-0.404947917,1,0,0,1.03284,scale,,,,,,0.174513954,0.141421356,0.349027907,0.282842712,stimuli/lakes/203033_left.png,stimuli/lakes/203033_right.png,,,,0,29,29,33,1,,,,,
,,,,,,$5eeb40c601b1dc2907bbff74,2020-07-20_15h42.24.277,fisher_task,2020.1.3,Win32,60,0.186197917,-0.44140625,1,0,0,0.865815,scale,,,,,,0.21373507,0.173205081,0.326485712,0.264575131,stimuli/lakes/30101_left.png,stimuli/lakes/30101_right.png,,,,0,30,30,1,1,,,,,
,,,,,,$5eeb40c601b1dc2907bbff74,2020-07-20_15h42.24.277,fisher_task,2020.1.3,Win32,60,0.17578125,-0.390625,1,0,0,0.815795,scale,,,,,,0.302267034,0.244948974,0.2468,0.2,stimuli/lakes/603037_left.png,stimuli/lakes/603037_right.png,,,,0,31,31,37,1,,,,,
,,,,,,$5eeb40c601b1dc2907bbff74,2020-07-20_15h42.24.277,fisher_task,2020.1.3,Win32,60,-0.182291667,-0.42578125,1,0,0,0.99939,scale,,,,,,0.326485712,0.264575131,0.21373507,0.173205081,stimuli/lakes/7080116_left.png,stimuli/lakes/7080116_right.png,,,,0,32,32,116,1,,,,,
,,,,,,$5eeb40c601b1dc2907bbff74,2020-07-20_15h42.24.277,fisher_task,2020.1.3,Win32,60,0.171875,-0.427083333,1,0,0,0.81616,scale,,,,,,0.21373507,0.173205081,0.326485712,0.264575131,stimuli/lakes/30100_left.png,stimuli/lakes/30100_right.png,,,,0,33,33,0,1,,,,,
,,,,,,$5eeb40c601b1dc2907bbff74,2020-07-20_15h42.24.277,fisher_task,2020.1.3,Win32,60,0.154947917,-0.345052083,1,0,0,1.115765,scale,,,,,,0.275930788,0.223606798,0.275930788,0.223606798,stimuli/lakes/504045_left.png,stimuli/lakes/504045_right.png,,,,0,34,34,45,1,,,,,
,,,,,,$5eeb40c601b1dc2907bbff74,2020-07-20_15h42.24.277,fisher_task,2020.1.3,Win32,60,0.158854167,-0.360677083,1,0,0,1.2494,scale,,,,,,0.21373507,0.173205081,0.326485712,0.264575131,stimuli/lakes/305061_left.png,stimuli/lakes/305061_right.png,,,,0,35,35,61,1,,,,,
,,,,,,$5eeb40c601b1dc2907bbff74,2020-07-20_15h42.24.277,fisher_task,2020.1.3,Win32,60,0.171875,-0.424479167,1,0,0,1.21574,scale,,,,,,0.21373507,0.173205081,0.326485712,0.264575131,stimuli/lakes/303034_left.png,stimuli/lakes/303034_right.png,,,,0,36,36,34,1,,,,,
,,,,,,$5eeb40c601b1dc2907bbff74,2020-07-20_15h42.24.277,fisher_task,2020.1.3,Win32,60,0.1953125,-0.4453125,1,0,0,1.14924,scale,,,,,,0.174513954,0.141421356,0.349027907,0.282842712,stimuli/lakes/202011_left.png,stimuli/lakes/202011_right.png,,,,0,37,37,11,1,,,,,
,,,,,,$5eeb40c601b1dc2907bbff74,2020-07-20_15h42.24.277,fisher_task,2020.1.3,Win32,60,-0.115885417,-0.3125,1,0,0,2.232815,scale,,,,,,0.302267034,0.244948974,0.2468,0.2,stimuli/lakes/604046_left.png,stimuli/lakes/604046_right.png,,,,0,38,38,46,1,,,,,
,,,,,,$5eeb40c601b1dc2907bbff74,2020-07-20_15h42.24.277,fisher_task,2020.1.3,Win32,60,0.1796875,-0.384114583,1,0,0,1.18224,scale,,,,,,0.1234,0.1,0.3702,0.3,stimuli/lakes/105059_left.png,stimuli/lakes/105059_right.png,,,,0,39,39,59,1,,,,,
,,,,,,$5eeb40c601b1dc2907bbff74,2020-07-20_15h42.24.277,fisher_task,2020.1.3,Win32,60,0.147135417,-0.309895833,1,0,0,1.566105,scale,,,,,,0.349027907,0.282842712,0.174513954,0.141421356,stimuli/lakes/80109_left.png,stimuli/lakes/80109_right.png,,,,0,40,40,9,1,,,,,
,,,,,,$5eeb40c601b1dc2907bbff74,2020-07-20_15h42.24.277,fisher_task,2020.1.3,Win32,60,-0.138020833,-0.3125,1,0,0,1.882195,scale,,,,,,0.326485712,0.264575131,0.21373507,0.173205081,stimuli/lakes/704047_left.png,stimuli/lakes/704047_right.png,,,,0,41,41,47,1,,,,,
,,,,,,$5eeb40c601b1dc2907bbff74,2020-07-20_15h42.24.277,fisher_task,2020.1.3,Win32,60,-0.162760417,-0.395833333,1,0,0,1.066075,scale,,,,,,0.302267034,0.244948974,0.2468,0.2,stimuli/lakes/6080115_left.png,stimuli/lakes/6080115_right.png,,,,0,42,42,115,1,,,,,
,,,,,,$5eeb40c601b1dc2907bbff74,2020-07-20_15h42.24.277,fisher_task,2020.1.3,Win32,60,0.177083333,-0.416666667,1,0,0,1.5327,scale,,,,,,0.275930788,0.223606798,0.275930788,0.223606798,stimuli/lakes/502016_left.png,stimuli/lakes/502016_right.png,,,,0,43,43,16,1,,,,,
,,,,,,$5eeb40c601b1dc2907bbff74,2020-07-20_15h42.24.277,fisher_task,2020.1.3,Win32,60,-0.19140625,-0.427083333,1,0,0,2.11578,scale,,,,,,0.2468,0.2,0.302267034,0.244948974,stimuli/lakes/4090123_left.png,stimuli/lakes/4090123_right.png,,,space,0,44,44,123,1,4.522665,,,,
,,,,,,$5eeb40c601b1dc2907bbff74,2020-07-20_15h42.24.277,fisher_task,2020.1.3,Win32,60,-0.102864583,-0.302083333,1,0,0,1.433105,scale,,,,,,0.349027907,0.282842712,0.174513954,0.141421356,stimuli/lakes/804057_left.png,stimuli/lakes/804057_right.png,,,,0,45,45,57,1,,,,,
,,,,,,$5eeb40c601b1dc2907bbff74,2020-07-20_15h42.24.277,fisher_task,2020.1.3,Win32,60,-0.130208333,-0.30859375,1,0,0,1.69936,scale,,,,,,0.1234,0.1,0.3702,0.3,stimuli/lakes/107089_left.png,stimuli/lakes/107089_right.png,,,,0,46,46,89,1,,,,,
,,,,,,$5eeb40c601b1dc2907bbff74,2020-07-20_15h42.24.277,fisher_task,2020.1.3,Win32,60,-0.1640625,-0.41796875,1,0,0,0.999365,scale,,,,,,0.275930788,0.223606798,0.275930788,0.223606798,stimuli/lakes/5080113_left.png,stimuli/lakes/5080113_right.png,,,,0,47,47,113,1,,,,,
,,,,,,$5eeb40c601b1dc2907bbff74,2020-07-20_15h42.24.277,fisher_task,2020.1.3,Win32,60,0.1484375,-0.345052083,1,0,0,1.09888,scale,,,,,,0.174513954,0.141421356,0.349027907,0.282842712,stimuli/lakes/205060_left.png,stimuli/lakes/205060_right.png,,,,0,48,48,60,1,,,,,
,,,,,,$5eeb40c601b1dc2907bbff74,2020-07-20_15h42.24.277,fisher_task,2020.1.3,Win32,60,-0.1171875,-0.325520833,1,0,0,1.981925,scale,,,,,,0.2468,0.2,0.302267034,0.244948974,stimuli/lakes/4080111_left.png,stimuli/lakes/4080111_right.png,,,,0,49,49,111,1,,,,,
,,,,,,$5eeb40c601b1dc2907bbff74,2020-07-20_15h42.24.277,fisher_task,2020.1.3,Win32,60,0.154947917,-0.333333333,1,0,0,1.432565,scale,,,,,,0.302267034,0.244948974,0.2468,0.2,stimuli/lakes/603028_left.png,stimuli/lakes/603028_right.png,,,,0,50,50,28,1,,,,,
,,,,,,$5eeb40c601b1dc2907bbff74,2020-07-20_15h42.24.277,fisher_task,2020.1.3,Win32,60,-0.169270833,-0.41015625,1,0,0,1.382235,scale,,,,,,0.326485712,0.264575131,0.21373507,0.173205081,stimuli/lakes/7070104_left.png,stimuli/lakes/7070104_right.png,,,,0,51,51,104,1,,,,,
,,,,,,$5eeb40c601b1dc2907bbff74,2020-07-20_15h42.24.277,fisher_task,2020.1.3,Win32,60,0.123697917,-0.315104167,1,0,0,1.8492,scale,,,,,,0.2468,0.2,0.302267034,0.244948974,stimuli/lakes/406074_left.png,stimuli/lakes/406074_right.png,,,,0,52,52,74,1,,,,,
,,,,,,$5eeb40c601b1dc2907bbff74,2020-07-20_15h42.24.277,fisher_task,2020.1.3,Win32,60,0.166666667,-0.424479167,1,0,0,1.999195,scale,,,,,,0.302267034,0.244948974,0.2468,0.2,stimuli/lakes/60105_left.png,stimuli/lakes/60105_right.png,,,,0,53,53,5,1,,,,,
,,,,,,$5eeb40c601b1dc2907bbff74,2020-07-20_15h42.24.277,fisher_task,2020.1.3,Win32,60,-0.139322917,-0.32421875,1,0,0,1.71589,scale,,,,,,0.1234,0.1,0.3702,0.3,stimuli/lakes/1080107_left.png,stimuli/lakes/1080107_right.png,,,,0,54,54,107,1,,,,,
,,,,,,$5eeb40c601b1dc2907bbff74,2020-07-20_15h42.24.277,fisher_task,2020.1.3,Win32,60,-0.14453125,-0.350260417,1,0,0,1.682515,scale,,,,,,0.174513954,0.141421356,0.349027907,0.282842712,stimuli/lakes/2090120_left.png,stimuli/lakes/2090120_right.png,,,,0,55,55,120,1,,,,,
,,,,,,$5eeb40c601b1dc2907bbff74,2020-07-20_15h42.24.277,fisher_task,2020.1.3,Win32,60,0.153645833,-0.33984375,1,0,0,1.31597,scale,,,,,,0.1234,0.1,0.3702,0.3,stimuli/lakes/103023_left.png,stimuli/lakes/103023_right.png,,,,0,56,56,23,1,,,,,
,,,,,,$5eeb40c601b1dc2907bbff74,2020-07-20_15h42.24.277,fisher_task,2020.1.3,Win32,60,-0.126302083,-0.317708333,1,0,0,2.33259,scale,,,,,,0.349027907,0.282842712,0.174513954,0.141421356,stimuli/lakes/805069_left.png,stimuli/lakes/805069_right.png,,,,0,57,57,69,1,,,,,
,,,,,,$5eeb40c601b1dc2907bbff74,2020-07-20_15h42.24.277,fisher_task,2020.1.3,Win32,60,-0.153645833,-0.390625,1,0,0,1.26604,scale,,,,,,0.174513954,0.141421356,0.349027907,0.282842712,stimuli/lakes/207099_left.png,stimuli/lakes/207099_right.png,,,,0,58,58,99,1,,,,,
,,,,,,$5eeb40c601b1dc2907bbff74,2020-07-20_15h42.24.277,fisher_task,2020.1.3,Win32,60,-0.134114583,-0.352864583,1,0,0,1.29864,scale,,,,,,0.302267034,0.244948974,0.2468,0.2,stimuli/lakes/6070103_left.png,stimuli/lakes/6070103_right.png,,,,0,59,59,103,1,,,,,
,,,,,,$5eeb40c601b1dc2907bbff74,2020-07-20_15h42.24.277,fisher_task,2020.1.3,Win32,60,0.154947917,-0.341145833,1,0,0,1.598625,scale,,,,,,0.302267034,0.244948974,0.2468,0.2,stimuli/lakes/604055_left.png,stimuli/lakes/604055_right.png,,,,0,60,60,55,1,,,,,
,,,,,,$5eeb40c601b1dc2907bbff74,2020-07-20_15h42.24.277,fisher_task,2020.1.3,Win32,60,0.165364583,-0.38671875,1,0,0,0.916135,scale,,,,,,0.275930788,0.223606798,0.275930788,0.223606798,stimuli/lakes/503036_left.png,stimuli/lakes/503036_right.png,,,,0,61,61,36,1,,,,,
,,,,,,$5eeb40c601b1dc2907bbff74,2020-07-20_15h42.24.277,fisher_task,2020.1.3,Win32,60,0.153645833,-0.434895833,1,0,0,1.21601,scale,,,,,,0.2468,0.2,0.302267034,0.244948974,stimuli/lakes/40103_left.png,stimuli/lakes/40103_right.png,,,,0,62,62,3,1,,,,,
,,,,,,$5eeb40c601b1dc2907bbff74,2020-07-20_15h42.24.277,fisher_task,2020.1.3,Win32,60,-0.145833333,-0.342447917,1,0,0,1.33269,scale,,,,,,0.21373507,0.173205081,0.326485712,0.264575131,stimuli/lakes/3070100_left.png,stimuli/lakes/3070100_right.png,,,,0,63,63,100,1,,,,,
,,,,,,$5eeb40c601b1dc2907bbff74,2020-07-20_15h42.24.277,fisher_task,2020.1.3,Win32,60,0.1796875,-0.41796875,1,0,0,1.31609,scale,,,,,,0.2468,0.2,0.302267034,0.244948974,stimuli/lakes/40102_left.png,stimuli/lakes/40102_right.png,,,,0,64,64,2,1,,,,,
,,,,,,$5eeb40c601b1dc2907bbff74,2020-07-20_15h42.24.277,fisher_task,2020.1.3,Win32,60,-0.14453125,-0.328125,1,0,0,1.34883,scale,,,,,,0.174513954,0.141421356,0.349027907,0.282842712,stimuli/lakes/2080108_left.png,stimuli/lakes/2080108_right.png,,,,0,65,65,108,1,,,,,
,,,,,,$5eeb40c601b1dc2907bbff74,2020-07-20_15h42.24.277,fisher_task,2020.1.3,Win32,60,0.174479167,-0.356770833,1,0,0,2.56531,scale,,,,,,0.275930788,0.223606798,0.275930788,0.223606798,stimuli/lakes/50104_left.png,stimuli/lakes/50104_right.png,,,space,0,66,66,4,1,8.98369,,,,
,,,,,,$5eeb40c601b1dc2907bbff74,2020-07-20_15h42.24.277,fisher_task,2020.1.3,Win32,60,-0.1328125,-0.315104167,1,0,0,1.38228,scale,,,,,,0.2468,0.2,0.302267034,0.244948974,stimuli/lakes/406083_left.png,stimuli/lakes/406083_right.png,,,,0,67,67,83,1,,,,,
,,,,,,$5eeb40c601b1dc2907bbff74,2020-07-20_15h42.24.277,fisher_task,2020.1.3,Win32,60,-0.17578125,-0.377604167,1,0,0,1.682115,scale,,,,,,0.326485712,0.264575131,0.21373507,0.173205081,stimuli/lakes/705068_left.png,stimuli/lakes/705068_right.png,,,,0,68,68,68,1,,,,,
,,,,,,$5eeb40c601b1dc2907bbff74,2020-07-20_15h42.24.277,fisher_task,2020.1.3,Win32,60,0.153645833,-0.32421875,1,0,0,1.7825,scale,,,,,,0.302267034,0.244948974,0.2468,0.2,stimuli/lakes/602017_left.png,stimuli/lakes/602017_right.png,,,,0,69,69,17,1,,,,,
,,,,,,$5eeb40c601b1dc2907bbff74,2020-07-20_15h42.24.277,fisher_task,2020.1.3,Win32,60,0.115885417,-0.309895833,1,0,0,1.982955,scale,,,,,,0.174513954,0.141421356,0.349027907,0.282842712,stimuli/lakes/206072_left.png,stimuli/lakes/206072_right.png,,,,0,70,70,72,1,,,,,
,,,,,,$5eeb40c601b1dc2907bbff74,2020-07-20_15h42.24.277,fisher_task,2020.1.3,Win32,60,0.157552083,-0.352864583,1,0,0,1.032655,scale,,,,,,0.2468,0.2,0.302267034,0.244948974,stimuli/lakes/404053_left.png,stimuli/lakes/404053_right.png,,,,0,71,71,53,1,,,,,
,,,,,,$5eeb40c601b1dc2907bbff74,2020-07-20_15h42.24.277,fisher_task,2020.1.3,Win32,60,-0.15234375,-0.373697917,1,0,0,1.032745,scale,,,,,,0.349027907,0.282842712,0.174513954,0.141421356,stimuli/lakes/806087_left.png,stimuli/lakes/806087_right.png,,,,0,72,72,87,1,,,,,
,,,,,,$5eeb40c601b1dc2907bbff74,2020-07-20_15h42.24.277,fisher_task,2020.1.3,Win32,60,-0.153645833,-0.397135417,1,0,0,0.89858,scale,,,,,,0.302267034,0.244948974,0.2468,0.2,stimuli/lakes/607094_left.png,stimuli/lakes/607094_right.png,,,,0,73,73,94,1,,,,,
,,,,,,$5eeb40c601b1dc2907bbff74,2020-07-20_15h42.24.277,fisher_task,2020.1.3,Win32,60,-0.14453125,-0.3203125,1,0,0,1.5321,scale,,,,,,0.3702,0.3,0.1234,0.1,stimuli/lakes/905070_left.png,stimuli/lakes/905070_right.png,,,,0,74,74,70,1,,,,,
,,,,,,$5eeb40c601b1dc2907bbff74,2020-07-20_15h42.24.277,fisher_task,2020.1.3,Win32,60,0.143229167,-0.328125,1,0,0,1.949115,scale,,,,,,0.349027907,0.282842712,0.174513954,0.141421356,stimuli/lakes/803030_left.png,stimuli/lakes/803030_right.png,,,,0,75,75,30,1,,,,,
,,,,,,$5eeb40c601b1dc2907bbff74,2020-07-20_15h42.24.277,fisher_task,2020.1.3,Win32,60,-0.1953125,-0.317708333,1,0,0,1.282715,scale,,,,,,0.21373507,0.173205081,0.326485712,0.264575131,stimuli/lakes/3080109_left.png,stimuli/lakes/3080109_right.png,,,,0,76,76,109,1,,,,,
,,,,,,$5eeb40c601b1dc2907bbff74,2020-07-20_15h42.24.277,fisher_task,2020.1.3,Win32,60,-0.157552083,-0.34375,1,0,0,1.21596,scale,,,,,,0.2468,0.2,0.302267034,0.244948974,stimuli/lakes/407092_left.png,stimuli/lakes/407092_right.png,,,,0,77,77,92,1,,,,,
,,,,,,$5eeb40c601b1dc2907bbff74,2020-07-20_15h42.24.277,fisher_task,2020.1.3,Win32,60,0.182291667,-0.361979167,1,0,0,1.03273,scale,,,,,,0.326485712,0.264575131,0.21373507,0.173205081,stimuli/lakes/70108_left.png,stimuli/lakes/70108_right.png,,,,0,78,78,8,1,,,,,
,,,,,,$5eeb40c601b1dc2907bbff74,2020-07-20_15h42.24.277,fisher_task,2020.1.3,Win32,60,-0.106770833,-0.276041667,1,0,0,3.08264,scale,,,,,,0.349027907,0.282842712,0.174513954,0.141421356,stimuli/lakes/804048_left.png,stimuli/lakes/804048_right.png,,,,0,79,79,48,1,,,,,
,,,,,,$5eeb40c601b1dc2907bbff74,2020-07-20_15h42.24.277,fisher_task,2020.1.3,Win32,60,0.131510417,-0.295572917,1,0,0,1.232625,scale,,,,,,0.326485712,0.264575131,0.21373507,0.173205081,stimuli/lakes/702019_left.png,stimuli/lakes/702019_right.png,,,,0,80,80,19,1,,,,,
,,,,,,$5eeb40c601b1dc2907bbff74,2020-07-20_15h42.24.277,fisher_task,2020.1.3,Win32,60,0.151041667,-0.342447917,1,0,0,1.33261,scale,,,,,,0.21373507,0.173205081,0.326485712,0.264575131,stimuli/lakes/303025_left.png,stimuli/lakes/303025_right.png,,,,0,81,81,25,1,,,,,
,,,,,,$5eeb40c601b1dc2907bbff74,2020-07-20_15h42.24.277,fisher_task,2020.1.3,Win32,60,0.119791667,-0.291666667,1,0,0,1.79877,scale,,,,,,0.174513954,0.141421356,0.349027907,0.282842712,stimuli/lakes/204042_left.png,stimuli/lakes/204042_right.png,,,,0,82,82,42,1,,,,,
,,,,,,$5eeb40c601b1dc2907bbff74,2020-07-20_15h42.24.277,fisher_task,2020.1.3,Win32,60,-0.173177083,-0.428385417,1,0,0,2.86557,scale,,,,,,0.275930788,0.223606798,0.275930788,0.223606798,stimuli/lakes/5090125_left.png,stimuli/lakes/5090125_right.png,,,,0,83,83,125,1,,,,,
,,,,,,$5eeb40c601b1dc2907bbff74,2020-07-20_15h42.24.277,fisher_task,2020.1.3,Win32,60,0.153645833,-0.359375,1,0,0,0.965965,scale,,,,,,0.2468,0.2,0.302267034,0.244948974,stimuli/lakes/403026_left.png,stimuli/lakes/403026_right.png,,,,0,84,84,26,1,,,,,
,,,,,,$5eeb40c601b1dc2907bbff74,2020-07-20_15h42.24.277,fisher_task,2020.1.3,Win32,60,-0.173177083,-0.39453125,1,0,0,1.365965,scale,,,,,,0.21373507,0.173205081,0.326485712,0.264575131,stimuli/lakes/3090121_left.png,stimuli/lakes/3090121_right.png,,,,0,85,85,121,1,,,,,
,,,,,,$5eeb40c601b1dc2907bbff74,2020-07-20_15h42.24.277,fisher_task,2020.1.3,Win32,60,-0.15234375,-0.419270833,1,0,0,0.88282,scale,,,,,,0.302267034,0.244948974,0.2468,0.2,stimuli/lakes/6090127_left.png,stimuli/lakes/6090127_right.png,,,,0,86,86,127,1,,,,,
,,,,,,$5eeb40c601b1dc2907bbff74,2020-07-20_15h42.24.277,fisher_task,2020.1.3,Win32,60,0.165364583,-0.368489583,1,0,0,1.216015,scale,,,,,,0.2468,0.2,0.302267034,0.244948974,stimuli/lakes/405063_left.png,stimuli/lakes/405063_right.png,,,,0,87,87,63,1,,,,,
,,,,,,$5eeb40c601b1dc2907bbff74,2020-07-20_15h42.24.277,fisher_task,2020.1.3,Win32,60,-0.1953125,-0.419270833,1,0,0,1.249375,scale,,,,,,0.326485712,0.264575131,0.21373507,0.173205081,stimuli/lakes/7090129_left.png,stimuli/lakes/7090129_right.png,,,space,0,88,88,129,1,13.339685,,,,
,,,,,,$5eeb40c601b1dc2907bbff74,2020-07-20_15h42.24.277,fisher_task,2020.1.3,Win32,60,0.157552083,-0.356770833,1,0,0,1.16555,scale,,,,,,0.2468,0.2,0.302267034,0.244948974,stimuli/lakes/405064_left.png,stimuli/lakes/405064_right.png,,,,0,89,89,64,1,,,,,
,,,,,,$5eeb40c601b1dc2907bbff74,2020-07-20_15h42.24.277,fisher_task,2020.1.3,Win32,60,-0.196614583,-0.388020833,1,0,0,1.28256,scale,,,,,,0.302267034,0.244948974,0.2468,0.2,stimuli/lakes/6080114_left.png,stimuli/lakes/6080114_right.png,,,,0,90,90,114,1,,,,,
,,,,,,$5eeb40c601b1dc2907bbff74,2020-07-20_15h42.24.277,fisher_task,2020.1.3,Win32,60,-0.18359375,-0.423177083,1,0,0,1.049095,scale,,,,,,0.3702,0.3,0.1234,0.1,stimuli/lakes/9070106_left.png,stimuli/lakes/9070106_right.png,,,,0,91,91,106,1,,,,,
,,,,,,$5eeb40c601b1dc2907bbff74,2020-07-20_15h42.24.277,fisher_task,2020.1.3,Win32,60,-0.131510417,-0.326822917,1,0,0,2.032005,scale,,,,,,0.1234,0.1,0.3702,0.3,stimuli/lakes/106071_left.png,stimuli/lakes/106071_right.png,,,,0,92,92,71,1,,,,,
,,,,,,$5eeb40c601b1dc2907bbff74,2020-07-20_15h42.24.277,fisher_task,2020.1.3,Win32,60,0.158854167,-0.40234375,1,0,0,1.23216,scale,,,,,,0.2468,0.2,0.302267034,0.244948974,stimuli/lakes/403035_left.png,stimuli/lakes/403035_right.png,,,,0,93,93,35,1,,,,,
,,,,,,$5eeb40c601b1dc2907bbff74,2020-07-20_15h42.24.277,fisher_task,2020.1.3,Win32,60,-0.17578125,-0.393229167,1,0,0,1.865835,scale,,,,,,0.302267034,0.244948974,0.2468,0.2,stimuli/lakes/606085_left.png,stimuli/lakes/606085_right.png,,,,0,94,94,85,1,,,,,
,,,,,,$5eeb40c601b1dc2907bbff74,2020-07-20_15h42.24.277,fisher_task,2020.1.3,Win32,60,-0.15625,-0.412760417,1,0,0,1.182635,scale,,,,,,0.349027907,0.282842712,0.174513954,0.141421356,stimuli/lakes/8070105_left.png,stimuli/lakes/8070105_right.png,,,,0,95,95,105,1,,,,,
,,,,,,$5eeb40c601b1dc2907bbff74,2020-07-20_15h42.24.277,fisher_task,2020.1.3,Win32,60,-0.154947917,-0.342447917,1,0,0,1.515945,scale,,,,,,0.275930788,0.223606798,0.275930788,0.223606798,stimuli/lakes/506084_left.png,stimuli/lakes/506084_right.png,,,,0,96,96,84,1,,,,,
,,,,,,$5eeb40c601b1dc2907bbff74,2020-07-20_15h42.24.277,fisher_task,2020.1.3,Win32,60,-0.157552083,-0.4296875,1,0,0,1.266105,scale,,,,,,0.2468,0.2,0.302267034,0.244948974,stimuli/lakes/4090124_left.png,stimuli/lakes/4090124_right.png,,,,0,97,97,124,1,,,,,
,,,,,,$5eeb40c601b1dc2907bbff74,2020-07-20_15h42.24.277,fisher_task,2020.1.3,Win32,60,0.161458333,-0.352864583,1,0,0,1.032155,scale,,,,,,0.174513954,0.141421356,0.349027907,0.282842712,stimuli/lakes/204051_left.png,stimuli/lakes/204051_right.png,,,,0,98,98,51,1,,,,,
,,,,,,$5eeb40c601b1dc2907bbff74,2020-07-20_15h42.24.277,fisher_task,2020.1.3,Win32,60,-0.174479167,-0.375,1,0,0,1.066155,scale,,,,,,0.275930788,0.223606798,0.275930788,0.223606798,stimuli/lakes/507093_left.png,stimuli/lakes/507093_right.png,,,,0,99,99,93,1,,,,,
,,,,,,$5eeb40c601b1dc2907bbff74,2020-07-20_15h42.24.277,fisher_task,2020.1.3,Win32,60,0.16015625,-0.354166667,1,0,0,1.09888,scale,,,,,,0.326485712,0.264575131,0.21373507,0.173205081,stimuli/lakes/702020_left.png,stimuli/lakes/702020_right.png,,,,0,100,100,20,1,,,,,
,,,,,,$5eeb40c601b1dc2907bbff74,2020-07-20_15h42.24.277,fisher_task,2020.1.3,Win32,60,0.131510417,-0.295572917,1,0,0,2.04906,scale,,,,,,0.1234,0.1,0.3702,0.3,stimuli/lakes/106080_left.png,stimuli/lakes/106080_right.png,,,,0,101,101,80,1,,,,,
,,,,,,$5eeb40c601b1dc2907bbff74,2020-07-20_15h42.24.277,fisher_task,2020.1.3,Win32,60,-0.16015625,-0.4296875,1,0,0,1.21598,scale,,,,,,0.349027907,0.282842712,0.174513954,0.141421356,stimuli/lakes/8080118_left.png,stimuli/lakes/8080118_right.png,,,,0,102,102,118,1,,,,,
,,,,,,$5eeb40c601b1dc2907bbff74,2020-07-20_15h42.24.277,fisher_task,2020.1.3,Win32,60,0.1640625,-0.365885417,1,0,0,3.13224,scale,,,,,,0.349027907,0.282842712,0.174513954,0.141421356,stimuli/lakes/803039_left.png,stimuli/lakes/803039_right.png,,,,0,103,103,39,1,,,,,
,,,,,,$5eeb40c601b1dc2907bbff74,2020-07-20_15h42.24.277,fisher_task,2020.1.3,Win32,60,-0.162760417,-0.372395833,1,0,0,1.199305,scale,,,,,,0.3702,0.3,0.1234,0.1,stimuli/lakes/907097_left.png,stimuli/lakes/907097_right.png,,,,0,104,104,97,1,,,,,
,,,,,,$5eeb40c601b1dc2907bbff74,2020-07-20_15h42.24.277,fisher_task,2020.1.3,Win32,60,-0.09765625,-0.296875,1,0,0,1.49931,scale,,,,,,0.275930788,0.223606798,0.275930788,0.223606798,stimuli/lakes/506075_left.png,stimuli/lakes/506075_right.png,,,,0,105,105,75,1,,,,,
,,,,,,$5eeb40c601b1dc2907bbff74,2020-07-20_15h42.24.277,fisher_task,2020.1.3,Win32,60,0.1640625,-0.377604167,1,0,0,1.732565,scale,,,,,,0.1234,0.1,0.3702,0.3,stimuli/lakes/104050_left.png,stimuli/lakes/104050_right.png,,,,0,106,106,50,1,,,,,
,,,,,,$5eeb40c601b1dc2907bbff74,2020-07-20_15h42.24.277,fisher_task,2020.1.3,Win32,60,0.177083333,-0.408854167,1,0,0,1.41587,scale,,,,,,0.1234,0.1,0.3702,0.3,stimuli/lakes/103032_left.png,stimuli/lakes/103032_right.png,,,,0,107,107,32,1,,,,,
,,,,,,$5eeb40c601b1dc2907bbff74,2020-07-20_15h42.24.277,fisher_task,2020.1.3,Win32,60,0.169270833,-0.415364583,1,0,0,1.18221,scale,,,,,,0.21373507,0.173205081,0.326485712,0.264575131,stimuli/lakes/302012_left.png,stimuli/lakes/302012_right.png,,,,0,108,108,12,1,,,,,
,,,,,,$5eeb40c601b1dc2907bbff74,2020-07-20_15h42.24.277,fisher_task,2020.1.3,Win32,60,-0.157552083,-0.41015625,1,0,0,1.6159,scale,,,,,,0.1234,0.1,0.3702,0.3,stimuli/lakes/1090119_left.png,stimuli/lakes/1090119_right.png,,,,0,109,109,119,1,,,,,
,,,,,,$5eeb40c601b1dc2907bbff74,2020-07-20_15h42.24.277,fisher_task,2020.1.3,Win32,60,0.165364583,-0.388020833,1,0,0,1.482395,scale,,,,,,0.21373507,0.173205081,0.326485712,0.264575131,stimuli/lakes/304043_left.png,stimuli/lakes/304043_right.png,,,space,0,110,110,43,1,2.255935,,,,
,,,,,,$5eeb40c601b1dc2907bbff74,2020-07-20_15h42.24.277,fisher_task,2020.1.3,Win32,60,0.16796875,-0.338541667,1,0,0,2.066045,scale,,,,,,0.302267034,0.244948974,0.2468,0.2,stimuli/lakes/60106_left.png,stimuli/lakes/60106_right.png,,,,0,111,111,6,1,,,,,
,,,,,,$5eeb40c601b1dc2907bbff74,2020-07-20_15h42.24.277,fisher_task,2020.1.3,Win32,60,-0.1640625,-0.375,1,0,0,1.299635,scale,,,,,,0.326485712,0.264575131,0.21373507,0.173205081,stimuli/lakes/706077_left.png,stimuli/lakes/706077_right.png,,,,0,112,112,77,1,,,,,
,,,,,,$5eeb40c601b1dc2907bbff74,2020-07-20_15h42.24.277,fisher_task,2020.1.3,Win32,60,-0.178385417,-0.407552083,1,0,0,0.96614,scale,,,,,,0.275930788,0.223606798,0.275930788,0.223606798,stimuli/lakes/5070102_left.png,stimuli/lakes/5070102_right.png,,,,0,113,113,102,1,,,,,
,,,,,,$5eeb40c601b1dc2907bbff74,2020-07-20_15h42.24.277,fisher_task,2020.1.3,Win32,60,0.18359375,-0.35546875,1,0,0,1.56597,scale,,,,,,0.3702,0.3,0.1234,0.1,stimuli/lakes/901010_left.png,stimuli/lakes/901010_right.png,,,,0,114,114,10,1,,,,,
,,,,,,$5eeb40c601b1dc2907bbff74,2020-07-20_15h42.24.277,fisher_task,2020.1.3,Win32,60,0.173177083,-0.376302083,1,0,0,1.183105,scale,,,,,,0.174513954,0.141421356,0.349027907,0.282842712,stimuli/lakes/203024_left.png,stimuli/lakes/203024_right.png,,,,0,115,115,24,1,,,,,
,,,,,,$5eeb40c601b1dc2907bbff74,2020-07-20_15h42.24.277,fisher_task,2020.1.3,Win32,60,0.149739583,-0.397135417,1,0,0,1.149345,scale,,,,,,0.302267034,0.244948974,0.2468,0.2,stimuli/lakes/602018_left.png,stimuli/lakes/602018_right.png,,,,0,116,116,18,1,,,,,
,,,,,,$5eeb40c601b1dc2907bbff74,2020-07-20_15h42.24.277,fisher_task,2020.1.3,Win32,60,-0.1796875,-0.3984375,1,0,0,1.0814,scale,,,,,,0.326485712,0.264575131,0.21373507,0.173205081,stimuli/lakes/7080117_left.png,stimuli/lakes/7080117_right.png,,,,0,117,117,117,1,,,,,
,,,,,,$5eeb40c601b1dc2907bbff74,2020-07-20_15h42.24.277,fisher_task,2020.1.3,Win32,60,-0.157552083,-0.356770833,1,0,0,1.715595,scale,,,,,,0.3702,0.3,0.1234,0.1,stimuli/lakes/906088_left.png,stimuli/lakes/906088_right.png,,,,0,118,118,88,1,,,,,
,,,,,,$5eeb40c601b1dc2907bbff74,2020-07-20_15h42.24.277,fisher_task,2020.1.3,Win32,60,0.1640625,-0.352864583,1,0,0,1.13235,scale,,,,,,0.326485712,0.264575131,0.21373507,0.173205081,stimuli/lakes/70107_left.png,stimuli/lakes/70107_right.png,,,,0,119,119,7,1,,,,,
,,,,,,$5eeb40c601b1dc2907bbff74,2020-07-20_15h42.24.277,fisher_task,2020.1.3,Win32,60,-0.158854167,-0.376302083,1,0,0,1.13228,scale,,,,,,0.21373507,0.173205081,0.326485712,0.264575131,stimuli/lakes/3090122_left.png,stimuli/lakes/3090122_right.png,,,,0,120,120,122,1,,,,,
,,,,,,$5eeb40c601b1dc2907bbff74,2020-07-20_15h42.24.277,fisher_task,2020.1.3,Win32,60,-0.139322917,-0.360677083,1,0,0,0.86615,scale,,,,,,0.21373507,0.173205081,0.326485712,0.264575131,stimuli/lakes/307091_left.png,stimuli/lakes/307091_right.png,,,,0,121,121,91,1,,,,,
,,,,,,$5eeb40c601b1dc2907bbff74,2020-07-20_15h42.24.277,fisher_task,2020.1.3,Win32,60,0.162760417,-0.346354167,1,0,0,1.132835,scale,,,,,,0.3702,0.3,0.1234,0.1,stimuli/lakes/903031_left.png,stimuli/lakes/903031_right.png,,,,0,122,122,31,1,,,,,
,,,,,,$5eeb40c601b1dc2907bbff74,2020-07-20_15h42.24.277,fisher_task,2020.1.3,Win32,60,0.174479167,-0.393229167,1,0,0,1.232785,scale,,,,,,0.275930788,0.223606798,0.275930788,0.223606798,stimuli/lakes/503027_left.png,stimuli/lakes/503027_right.png,,,,0,123,123,27,1,,,,,
,,,,,,$5eeb40c601b1dc2907bbff74,2020-07-20_15h42.24.277,fisher_task,2020.1.3,Win32,60,-0.173177083,-0.375,1,0,0,1.249575,scale,,,,,,0.302267034,0.244948974,0.2468,0.2,stimuli/lakes/6090126_left.png,stimuli/lakes/6090126_right.png,,,,0,124,124,126,1,,,,,
,,,,,,$5eeb40c601b1dc2907bbff74,2020-07-20_15h42.24.277,fisher_task,2020.1.3,Win32,60,0.169270833,-0.364583333,1,0,0,1.132975,scale,,,,,,0.3702,0.3,0.1234,0.1,stimuli/lakes/903040_left.png,stimuli/lakes/903040_right.png,,,,0,125,125,40,1,,,,,
,,,,,,$5eeb40c601b1dc2907bbff74,2020-07-20_15h42.24.277,fisher_task,2020.1.3,Win32,60,-0.16796875,-0.365885417,1,0,0,0.89953,scale,,,,,,0.326485712,0.264575131,0.21373507,0.173205081,stimuli/lakes/707095_left.png,stimuli/lakes/707095_right.png,,,,0,126,126,95,1,,,,,
,,,,,,$5eeb40c601b1dc2907bbff74,2020-07-20_15h42.24.277,fisher_task,2020.1.3,Win32,60,0.149739583,-0.3125,1,0,0,1.666055,scale,,,,,,0.3702,0.3,0.1234,0.1,stimuli/lakes/902022_left.png,stimuli/lakes/902022_right.png,,,,0,127,127,22,1,,,,,
,,,,,,$5eeb40c601b1dc2907bbff74,2020-07-20_15h42.24.277,fisher_task,2020.1.3,Win32,60,0.16015625,-0.37109375,1,0,0,1.38279,scale,,,,,,0.275930788,0.223606798,0.275930788,0.223606798,stimuli/lakes/504054_left.png,stimuli/lakes/504054_right.png,,,,0,128,128,54,1,,,,,
,,,,,,$5eeb40c601b1dc2907bbff74,2020-07-20_15h42.24.277,fisher_task,2020.1.3,Win32,60,0.161458333,-0.37109375,1,0,0,0.74954,scale,,,,,,0.21373507,0.173205081,0.326485712,0.264575131,stimuli/lakes/305062_left.png,stimuli/lakes/305062_right.png,,,,0,129,129,62,1,,,,,
,,,,,,$5eeb40c601b1dc2907bbff74,2020-07-20_15h42.24.277,fisher_task,2020.1.3,Win32,60,,,,,,,,,,,,,,,,,,,,,,,,,,,,space,11.426075,space,91.484565
