keySpace.keys,instructions.thisRepN,instructions.thisTrialN,instructions.thisN,instructions.thisIndex,instructions.ran,participant,date,expName,psychopyVersion,OS,frameRate,mouse.x,mouse.y,mouse.leftButton,mouse.midButton,mouse.rightButton,mouse.time,mouse.clicked_name,training.thisRepN,training.thisTrialN,training.thisN,training.thisIndex,training.ran,widthBasketLeft,heightBasketLeft,widthBasketRight,heightBasketRight,leftLake,rightLake,space2.keys,space2.rt,space1.keys,trials.thisRepN,trials.thisTrialN,trials.thisN,trials.thisIndex,trials.ran,space1.rt,finalSpace1.keys,finalSpace1.rt,finalSpace2.keys,finalSpace2.rt
,0,0,0,0,1,$5dd5d8bd35cf745890c7814a,2020-07-20_14h40.25.321,fisher_task,2020.1.3,Win32,60,,,,,,,,,,,,,,,,,,,,,,,,,,,,,,,
,,,,,,$5dd5d8bd35cf745890c7814a,2020-07-20_14h40.25.321,fisher_task,2020.1.3,Win32,60,0.176111127,-0.432222236,1,0,0,4.133745,scale,0,0,0,0,1,0.275930788,0.223606798,0.275930788,0.223606798,stimuli/training/20_left.png,stimuli/training/20_right.png,,,,,,,,,,,,,
,,,,,,$5dd5d8bd35cf745890c7814a,2020-07-20_14h40.25.321,fisher_task,2020.1.3,Win32,60,-0.167222144,-0.421111125,1,0,0,2.464265,scale,0,1,1,1,1,0.275930788,0.223606798,0.275930788,0.223606798,stimuli/training/80_left.png,stimuli/training/80_right.png,,,,,,,,,,,,,
,,,,,,$5dd5d8bd35cf745890c7814a,2020-07-20_14h40.25.321,fisher_task,2020.1.3,Win32,60,0.156666682,-0.410555637,1,0,0,2.500375,scale,0,2,2,2,1,0.174513954,0.141421356,0.349027907,0.282842712,stimuli/training/50_left.png,stimuli/training/50_right.png,,,,,,,,,,,,,
,,,,,,$5dd5d8bd35cf745890c7814a,2020-07-20_14h40.25.321,fisher_task,2020.1.3,Win32,60,-0.071666654,-0.261666678,1,0,0,4.584055,scale,0,3,3,3,1,0.349027907,0.282842712,0.174513954,0.141421356,stimuli/training/50_left.png,stimuli/training/50_right.png,,,,,,,,,,,,,
,,,,,,$5dd5d8bd35cf745890c7814a,2020-07-20_14h40.25.321,fisher_task,2020.1.3,Win32,60,0.193333349,-0.402777791,1,0,0,2.31704,scale,0,4,4,4,1,0.275930788,0.223606798,0.275930788,0.223606798,stimuli/training/50_left.png,stimuli/training/50_right.png,,,,,,,,,,,,,
,,,,,,$5dd5d8bd35cf745890c7814a,2020-07-20_14h40.25.321,fisher_task,2020.1.3,Win32,60,0.183888905,-0.431111125,1,0,0,2.750585,scale,0,5,5,5,1,0.174513954,0.141421356,0.349027907,0.282842712,stimuli/training/20_left.png,stimuli/training/20_right.png,,,,,,,,,,,,,
,,,,,,$5dd5d8bd35cf745890c7814a,2020-07-20_14h40.25.321,fisher_task,2020.1.3,Win32,60,0.183888905,-0.431111125,1,0,0,0.148965,scale,0,6,6,6,1,0.349027907,0.282842712,0.174513954,0.141421356,stimuli/training/80_left.png,stimuli/training/80_right.png,,,,,,,,,,,,,
,,,,,,$5dd5d8bd35cf745890c7814a,2020-07-20_14h40.25.321,fisher_task,2020.1.3,Win32,60,0.183888905,-0.431111125,1,0,0,1.43411,scale,0,7,7,7,1,0.1234,0.1,0.3702,0.3,stimuli/training/30_left.png,stimuli/training/30_right.png,,,,,,,,,,,,,
,,,,,,$5dd5d8bd35cf745890c7814a,2020-07-20_14h40.25.321,fisher_task,2020.1.3,Win32,60,-0.150555477,-0.41666668,1,0,0,1.70112,scale,0,8,8,8,1,0.3702,0.3,0.1234,0.1,stimuli/training/70_left.png,stimuli/training/70_right.png,,,,,,,,,,,,,
,,,,,,$5dd5d8bd35cf745890c7814a,2020-07-20_14h40.25.321,fisher_task,2020.1.3,Win32,60,-0.154999989,-0.437777792,1,0,0,1.88347,scale,0,9,9,9,1,0.326485712,0.264575131,0.21373507,0.173205081,stimuli/training/90_left.png,stimuli/training/90_right.png,,,,,,,,,,,,,
,,,,,,$5dd5d8bd35cf745890c7814a,2020-07-20_14h40.25.321,fisher_task,2020.1.3,Win32,60,0.185555639,-0.437222236,1,0,0,2.000415,scale,0,10,10,10,1,0.21373507,0.173205081,0.326485712,0.264575131,stimuli/training/10_left.png,stimuli/training/10_right.png,,,,,,,,,,,,,
,,,,,,$5dd5d8bd35cf745890c7814a,2020-07-20_14h40.25.321,fisher_task,2020.1.3,Win32,60,0.092777792,-0.281666678,1,0,0,3.23559,scale,,,,,,0.326485712,0.264575131,0.21373507,0.173205081,stimuli/lakes/704047_left.png,stimuli/lakes/704047_right.png,space,7.657105,,0,0,0,47,1,,,,,
,,,,,,$5dd5d8bd35cf745890c7814a,2020-07-20_14h40.25.321,fisher_task,2020.1.3,Win32,60,0.060000014,-0.257222234,1,0,0,2.38285,scale,,,,,,0.349027907,0.282842712,0.174513954,0.141421356,stimuli/lakes/804048_left.png,stimuli/lakes/804048_right.png,,,,0,1,1,48,1,,,,,
,,,,,,$5dd5d8bd35cf745890c7814a,2020-07-20_14h40.25.321,fisher_task,2020.1.3,Win32,60,0.178333349,-0.424444526,1,0,0,2.26883,scale,,,,,,0.174513954,0.141421356,0.349027907,0.282842712,stimuli/lakes/202011_left.png,stimuli/lakes/202011_right.png,,,,0,2,2,11,1,,,,,
,,,,,,$5dd5d8bd35cf745890c7814a,2020-07-20_14h40.25.321,fisher_task,2020.1.3,Win32,60,0.08277786,-0.267777789,1,0,0,3.700455,scale,,,,,,0.302267034,0.244948974,0.2468,0.2,stimuli/lakes/602018_left.png,stimuli/lakes/602018_right.png,,,,0,3,3,18,1,,,,,
,,,,,,$5dd5d8bd35cf745890c7814a,2020-07-20_14h40.25.321,fisher_task,2020.1.3,Win32,60,-0.149444433,-0.425000014,1,0,0,2.0172,scale,,,,,,0.302267034,0.244948974,0.2468,0.2,stimuli/lakes/6070103_left.png,stimuli/lakes/6070103_right.png,,,,0,4,4,103,1,,,,,
,,,,,,$5dd5d8bd35cf745890c7814a,2020-07-20_14h40.25.321,fisher_task,2020.1.3,Win32,60,0.098888904,-0.326111123,1,0,0,2.16664,scale,,,,,,0.349027907,0.282842712,0.174513954,0.141421356,stimuli/lakes/80109_left.png,stimuli/lakes/80109_right.png,,,,0,5,5,9,1,,,,,
,,,,,,$5dd5d8bd35cf745890c7814a,2020-07-20_14h40.25.321,fisher_task,2020.1.3,Win32,60,0.083888903,-0.29777779,1,0,0,2.70094,scale,,,,,,0.2468,0.2,0.302267034,0.244948974,stimuli/lakes/406083_left.png,stimuli/lakes/406083_right.png,,,,0,6,6,83,1,,,,,
,,,,,,$5dd5d8bd35cf745890c7814a,2020-07-20_14h40.25.321,fisher_task,2020.1.3,Win32,60,-0.129999989,-0.298888901,1,0,0,2.266,scale,,,,,,0.349027907,0.282842712,0.174513954,0.141421356,stimuli/lakes/806087_left.png,stimuli/lakes/806087_right.png,,,,0,7,7,87,1,,,,,
,,,,,,$5dd5d8bd35cf745890c7814a,2020-07-20_14h40.25.321,fisher_task,2020.1.3,Win32,60,-0.1511111,-0.376111124,1,0,0,1.55009,scale,,,,,,0.302267034,0.244948974,0.2468,0.2,stimuli/lakes/606085_left.png,stimuli/lakes/606085_right.png,,,,0,8,8,85,1,,,,,
,,,,,,$5dd5d8bd35cf745890c7814a,2020-07-20_14h40.25.321,fisher_task,2020.1.3,Win32,60,-0.160555545,-0.420555569,1,0,0,2.234395,scale,,,,,,0.3702,0.3,0.1234,0.1,stimuli/lakes/9070106_left.png,stimuli/lakes/9070106_right.png,,,,0,9,9,106,1,,,,,
,,,,,,$5dd5d8bd35cf745890c7814a,2020-07-20_14h40.25.321,fisher_task,2020.1.3,Win32,60,0.150000015,-0.427777792,1,0,0,1.60028,scale,,,,,,0.174513954,0.141421356,0.349027907,0.282842712,stimuli/lakes/204042_left.png,stimuli/lakes/204042_right.png,,,,0,10,10,42,1,,,,,
,,,,,,$5dd5d8bd35cf745890c7814a,2020-07-20_14h40.25.321,fisher_task,2020.1.3,Win32,60,-0.048888876,-0.2588889,1,0,0,2.1832,scale,,,,,,0.2468,0.2,0.302267034,0.244948974,stimuli/lakes/4090123_left.png,stimuli/lakes/4090123_right.png,,,,0,11,11,123,1,,,,,
,,,,,,$5dd5d8bd35cf745890c7814a,2020-07-20_14h40.25.321,fisher_task,2020.1.3,Win32,60,0.017777791,-0.255000079,1,0,0,1.883155,scale,,,,,,0.3702,0.3,0.1234,0.1,stimuli/lakes/901010_left.png,stimuli/lakes/901010_right.png,,,,0,12,12,10,1,,,,,
,,,,,,$5dd5d8bd35cf745890c7814a,2020-07-20_14h40.25.321,fisher_task,2020.1.3,Win32,60,0.03166668,-0.247777789,1,0,0,4.81699,scale,,,,,,0.326485712,0.264575131,0.21373507,0.173205081,stimuli/lakes/702019_left.png,stimuli/lakes/702019_right.png,,,,0,13,13,19,1,,,,,
,,,,,,$5dd5d8bd35cf745890c7814a,2020-07-20_14h40.25.321,fisher_task,2020.1.3,Win32,60,-0.164444366,-0.421111125,1,0,0,2.666985,scale,,,,,,0.326485712,0.264575131,0.21373507,0.173205081,stimuli/lakes/707095_left.png,stimuli/lakes/707095_right.png,,,,0,14,14,95,1,,,,,
,,,,,,$5dd5d8bd35cf745890c7814a,2020-07-20_14h40.25.321,fisher_task,2020.1.3,Win32,60,0.116666682,-0.314444457,1,0,0,2.983755,scale,,,,,,0.2468,0.2,0.302267034,0.244948974,stimuli/lakes/405063_left.png,stimuli/lakes/405063_right.png,,,,0,15,15,63,1,,,,,
,,,,,,$5dd5d8bd35cf745890c7814a,2020-07-20_14h40.25.321,fisher_task,2020.1.3,Win32,60,-0.002777765,-0.251666678,1,0,0,2.08386,scale,,,,,,0.174513954,0.141421356,0.349027907,0.282842712,stimuli/lakes/207090_left.png,stimuli/lakes/207090_right.png,,,,0,16,16,90,1,,,,,
,,,,,,$5dd5d8bd35cf745890c7814a,2020-07-20_14h40.25.321,fisher_task,2020.1.3,Win32,60,0.165000016,-0.433888903,1,0,0,2.033435,scale,,,,,,0.2468,0.2,0.302267034,0.244948974,stimuli/lakes/402014_left.png,stimuli/lakes/402014_right.png,,,,0,17,17,14,1,,,,,
,,,,,,$5dd5d8bd35cf745890c7814a,2020-07-20_14h40.25.321,fisher_task,2020.1.3,Win32,60,0.078333348,-0.28777779,1,0,0,2.633785,scale,,,,,,0.21373507,0.173205081,0.326485712,0.264575131,stimuli/lakes/306073_left.png,stimuli/lakes/306073_right.png,,,,0,18,18,73,1,,,,,
,,,,,,$5dd5d8bd35cf745890c7814a,2020-07-20_14h40.25.321,fisher_task,2020.1.3,Win32,60,-0.05222221,-0.242222233,1,0,0,1.94963,scale,,,,,,0.174513954,0.141421356,0.349027907,0.282842712,stimuli/lakes/207099_left.png,stimuli/lakes/207099_right.png,,,,0,19,19,99,1,,,,,
,,,,,,$5dd5d8bd35cf745890c7814a,2020-07-20_14h40.25.321,fisher_task,2020.1.3,Win32,60,0.007777859,-0.227222301,1,0,0,3.800905,scale,,,,,,0.2468,0.2,0.302267034,0.244948974,stimuli/lakes/4090124_left.png,stimuli/lakes/4090124_right.png,,,,0,20,20,124,1,,,,,
,,,,,,$5dd5d8bd35cf745890c7814a,2020-07-20_14h40.25.321,fisher_task,2020.1.3,Win32,60,0.15444446,-0.373333346,1,0,0,1.664245,scale,,,,,,0.275930788,0.223606798,0.275930788,0.223606798,stimuli/lakes/50104_left.png,stimuli/lakes/50104_right.png,,,,0,21,21,4,1,,,,,
,,,,,,$5dd5d8bd35cf745890c7814a,2020-07-20_14h40.25.321,fisher_task,2020.1.3,Win32,60,0.063333415,-0.276666678,1,0,0,3.184035,scale,,,,,,0.21373507,0.173205081,0.326485712,0.264575131,stimuli/lakes/306082_left.png,stimuli/lakes/306082_right.png,,,space,0,22,22,82,1,25.676385,,,,
,,,,,,$5dd5d8bd35cf745890c7814a,2020-07-20_14h40.25.321,fisher_task,2020.1.3,Win32,60,-0.026666654,-0.247222233,1,0,0,1.93344,scale,,,,,,0.302267034,0.244948974,0.2468,0.2,stimuli/lakes/604055_left.png,stimuli/lakes/604055_right.png,,,,0,23,23,55,1,,,,,
,,,,,,$5dd5d8bd35cf745890c7814a,2020-07-20_14h40.25.321,fisher_task,2020.1.3,Win32,60,0.045000014,-0.24111119,1,0,0,1.616245,scale,,,,,,0.2468,0.2,0.302267034,0.244948974,stimuli/lakes/402015_left.png,stimuli/lakes/402015_right.png,,,,0,24,24,15,1,,,,,
,,,,,,$5dd5d8bd35cf745890c7814a,2020-07-20_14h40.25.321,fisher_task,2020.1.3,Win32,60,-0.03722221,-0.246111122,1,0,0,2.983265,scale,,,,,,0.326485712,0.264575131,0.21373507,0.173205081,stimuli/lakes/703029_left.png,stimuli/lakes/703029_right.png,,,,0,25,25,29,1,,,,,
,,,,,,$5dd5d8bd35cf745890c7814a,2020-07-20_14h40.25.321,fisher_task,2020.1.3,Win32,60,0.176666683,-0.418333347,1,0,0,2.467465,scale,,,,,,0.21373507,0.173205081,0.326485712,0.264575131,stimuli/lakes/304043_left.png,stimuli/lakes/304043_right.png,,,,0,26,26,43,1,,,,,
,,,,,,$5dd5d8bd35cf745890c7814a,2020-07-20_14h40.25.321,fisher_task,2020.1.3,Win32,60,0.040555569,-0.271666746,1,0,0,1.883715,scale,,,,,,0.1234,0.1,0.3702,0.3,stimuli/lakes/1090119_left.png,stimuli/lakes/1090119_right.png,,,,0,27,27,119,1,,,,,
,,,,,,$5dd5d8bd35cf745890c7814a,2020-07-20_14h40.25.321,fisher_task,2020.1.3,Win32,60,-0.049444432,-0.282777857,1,0,0,1.56758,scale,,,,,,0.302267034,0.244948974,0.2468,0.2,stimuli/lakes/60106_left.png,stimuli/lakes/60106_right.png,,,,0,28,28,6,1,,,,,
,,,,,,$5dd5d8bd35cf745890c7814a,2020-07-20_14h40.25.321,fisher_task,2020.1.3,Win32,60,0.012777791,-0.258333345,1,0,0,2.53367,scale,,,,,,0.21373507,0.173205081,0.326485712,0.264575131,stimuli/lakes/3080110_left.png,stimuli/lakes/3080110_right.png,,,,0,29,29,110,1,,,,,
,,,,,,$5dd5d8bd35cf745890c7814a,2020-07-20_14h40.25.321,fisher_task,2020.1.3,Win32,60,0.177222306,-0.436666681,1,0,0,2.648805,scale,,,,,,0.21373507,0.173205081,0.326485712,0.264575131,stimuli/lakes/30101_left.png,stimuli/lakes/30101_right.png,,,,0,30,30,1,1,,,,,
,,,,,,$5dd5d8bd35cf745890c7814a,2020-07-20_14h40.25.321,fisher_task,2020.1.3,Win32,60,0.148333349,-0.430000082,1,0,0,2.901295,scale,,,,,,0.326485712,0.264575131,0.21373507,0.173205081,stimuli/lakes/703038_left.png,stimuli/lakes/703038_right.png,,,,0,31,31,38,1,,,,,
,,,,,,$5dd5d8bd35cf745890c7814a,2020-07-20_14h40.25.321,fisher_task,2020.1.3,Win32,60,-0.084999988,-0.265000011,1,0,0,2.53408,scale,,,,,,0.302267034,0.244948974,0.2468,0.2,stimuli/lakes/605066_left.png,stimuli/lakes/605066_right.png,,,,0,32,32,66,1,,,,,
,,,,,,$5dd5d8bd35cf745890c7814a,2020-07-20_14h40.25.321,fisher_task,2020.1.3,Win32,60,0.146111127,-0.372222235,1,0,0,2.437295,scale,,,,,,0.275930788,0.223606798,0.275930788,0.223606798,stimuli/lakes/503036_left.png,stimuli/lakes/503036_right.png,,,,0,33,33,36,1,,,,,
,,,,,,$5dd5d8bd35cf745890c7814a,2020-07-20_14h40.25.321,fisher_task,2020.1.3,Win32,60,-0.028333253,-0.256666678,1,0,0,4.668945,scale,,,,,,0.2468,0.2,0.302267034,0.244948974,stimuli/lakes/4080111_left.png,stimuli/lakes/4080111_right.png,,,,0,34,34,111,1,,,,,
,,,,,,$5dd5d8bd35cf745890c7814a,2020-07-20_14h40.25.321,fisher_task,2020.1.3,Win32,60,0.068333348,-0.260555635,1,0,0,4.13394,scale,,,,,,0.174513954,0.141421356,0.349027907,0.282842712,stimuli/lakes/204051_left.png,stimuli/lakes/204051_right.png,,,,0,35,35,51,1,,,,,
,,,,,,$5dd5d8bd35cf745890c7814a,2020-07-20_14h40.25.321,fisher_task,2020.1.3,Win32,60,-0.073888877,-0.261666678,1,0,0,2.515755,scale,,,,,,0.326485712,0.264575131,0.21373507,0.173205081,stimuli/lakes/7090128_left.png,stimuli/lakes/7090128_right.png,,,,0,36,36,128,1,,,,,
,,,,,,$5dd5d8bd35cf745890c7814a,2020-07-20_14h40.25.321,fisher_task,2020.1.3,Win32,60,0.025000014,-0.281666678,1,0,0,2.81723,scale,,,,,,0.349027907,0.282842712,0.174513954,0.141421356,stimuli/lakes/802021_left.png,stimuli/lakes/802021_right.png,,,,0,37,37,21,1,,,,,
,,,,,,$5dd5d8bd35cf745890c7814a,2020-07-20_14h40.25.321,fisher_task,2020.1.3,Win32,60,0.096111126,-0.323888901,1,0,0,2.10038,scale,,,,,,0.2468,0.2,0.302267034,0.244948974,stimuli/lakes/405064_left.png,stimuli/lakes/405064_right.png,,,,0,38,38,64,1,,,,,
,,,,,,$5dd5d8bd35cf745890c7814a,2020-07-20_14h40.25.321,fisher_task,2020.1.3,Win32,60,0.147222238,-0.427222304,1,0,0,1.650395,scale,,,,,,0.21373507,0.173205081,0.326485712,0.264575131,stimuli/lakes/302012_left.png,stimuli/lakes/302012_right.png,,,,0,39,39,12,1,,,,,
,,,,,,$5dd5d8bd35cf745890c7814a,2020-07-20_14h40.25.321,fisher_task,2020.1.3,Win32,60,0.049444526,-0.255555567,1,0,0,3.25002,scale,,,,,,0.21373507,0.173205081,0.326485712,0.264575131,stimuli/lakes/3090122_left.png,stimuli/lakes/3090122_right.png,,,,0,40,40,122,1,,,,,
,,,,,,$5dd5d8bd35cf745890c7814a,2020-07-20_14h40.25.321,fisher_task,2020.1.3,Win32,60,-0.128888878,-0.321666747,1,0,0,2.43395,scale,,,,,,0.275930788,0.223606798,0.275930788,0.223606798,stimuli/lakes/506084_left.png,stimuli/lakes/506084_right.png,,,,0,41,41,84,1,,,,,
,,,,,,$5dd5d8bd35cf745890c7814a,2020-07-20_14h40.25.321,fisher_task,2020.1.3,Win32,60,-0.050555475,-0.267222234,1,0,0,3.184055,scale,,,,,,0.349027907,0.282842712,0.174513954,0.141421356,stimuli/lakes/804057_left.png,stimuli/lakes/804057_right.png,,,,0,42,42,57,1,,,,,
,,,,,,$5dd5d8bd35cf745890c7814a,2020-07-20_14h40.25.321,fisher_task,2020.1.3,Win32,60,-0.122222211,-0.298333345,1,0,0,2.617365,scale,,,,,,0.326485712,0.264575131,0.21373507,0.173205081,stimuli/lakes/705067_left.png,stimuli/lakes/705067_right.png,,,,0,43,43,67,1,,,,,
,,,,,,$5dd5d8bd35cf745890c7814a,2020-07-20_14h40.25.321,fisher_task,2020.1.3,Win32,60,-0.177222212,-0.41666668,1,0,0,1.982875,scale,,,,,,0.326485712,0.264575131,0.21373507,0.173205081,stimuli/lakes/7080116_left.png,stimuli/lakes/7080116_right.png,,,space,0,44,44,116,1,14.358345,,,,
,,,,,,$5dd5d8bd35cf745890c7814a,2020-07-20_14h40.25.321,fisher_task,2020.1.3,Win32,60,-0.136666588,-0.347222235,1,0,0,3.801825,scale,,,,,,0.326485712,0.264575131,0.21373507,0.173205081,stimuli/lakes/705068_left.png,stimuli/lakes/705068_right.png,,,,0,45,45,68,1,,,,,
,,,,,,$5dd5d8bd35cf745890c7814a,2020-07-20_14h40.25.321,fisher_task,2020.1.3,Win32,60,-0.030555543,-0.261666678,1,0,0,2.0661,scale,,,,,,0.349027907,0.282842712,0.174513954,0.141421356,stimuli/lakes/803039_left.png,stimuli/lakes/803039_right.png,,,,0,46,46,39,1,,,,,
,,,,,,$5dd5d8bd35cf745890c7814a,2020-07-20_14h40.25.321,fisher_task,2020.1.3,Win32,60,0.052222304,-0.245000011,1,0,0,3.250595,scale,,,,,,0.326485712,0.264575131,0.21373507,0.173205081,stimuli/lakes/704056_left.png,stimuli/lakes/704056_right.png,,,,0,47,47,56,1,,,,,
,,,,,,$5dd5d8bd35cf745890c7814a,2020-07-20_14h40.25.321,fisher_task,2020.1.3,Win32,60,-0.169444434,-0.426111125,1,0,0,4.050785,scale,,,,,,0.275930788,0.223606798,0.275930788,0.223606798,stimuli/lakes/5090125_left.png,stimuli/lakes/5090125_right.png,,,,0,48,48,125,1,,,,,
,,,,,,$5dd5d8bd35cf745890c7814a,2020-07-20_14h40.25.321,fisher_task,2020.1.3,Win32,60,-0.152222211,-0.356111124,1,0,0,2.050245,scale,,,,,,0.275930788,0.223606798,0.275930788,0.223606798,stimuli/lakes/507093_left.png,stimuli/lakes/507093_right.png,,,,0,49,49,93,1,,,,,
,,,,,,$5dd5d8bd35cf745890c7814a,2020-07-20_14h40.25.321,fisher_task,2020.1.3,Win32,60,-0.166666656,-0.418333347,1,0,0,1.85029,scale,,,,,,0.326485712,0.264575131,0.21373507,0.173205081,stimuli/lakes/706077_left.png,stimuli/lakes/706077_right.png,,,,0,50,50,77,1,,,,,
,,,,,,$5dd5d8bd35cf745890c7814a,2020-07-20_14h40.25.321,fisher_task,2020.1.3,Win32,60,0.021111125,-0.279444456,1,0,0,2.950465,scale,,,,,,0.21373507,0.173205081,0.326485712,0.264575131,stimuli/lakes/3080109_left.png,stimuli/lakes/3080109_right.png,,,,0,51,51,109,1,,,,,
,,,,,,$5dd5d8bd35cf745890c7814a,2020-07-20_14h40.25.321,fisher_task,2020.1.3,Win32,60,0.153888904,-0.384444458,1,0,0,2.53479,scale,,,,,,0.2468,0.2,0.302267034,0.244948974,stimuli/lakes/403026_left.png,stimuli/lakes/403026_right.png,,,,0,52,52,26,1,,,,,
,,,,,,$5dd5d8bd35cf745890c7814a,2020-07-20_14h40.25.321,fisher_task,2020.1.3,Win32,60,-0.048888876,-0.256111122,1,0,0,3.501215,scale,,,,,,0.1234,0.1,0.3702,0.3,stimuli/lakes/1080107_left.png,stimuli/lakes/1080107_right.png,,,,0,53,53,107,1,,,,,
,,,,,,$5dd5d8bd35cf745890c7814a,2020-07-20_14h40.25.321,fisher_task,2020.1.3,Win32,60,0.166111195,-0.371111124,1,0,0,2.666615,scale,,,,,,0.1234,0.1,0.3702,0.3,stimuli/lakes/104041_left.png,stimuli/lakes/104041_right.png,,,,0,54,54,41,1,,,,,
,,,,,,$5dd5d8bd35cf745890c7814a,2020-07-20_14h40.25.321,fisher_task,2020.1.3,Win32,60,0.168333349,-0.40166668,1,0,0,1.51618,scale,,,,,,0.174513954,0.141421356,0.349027907,0.282842712,stimuli/lakes/203024_left.png,stimuli/lakes/203024_right.png,,,,0,55,55,24,1,,,,,
,,,,,,$5dd5d8bd35cf745890c7814a,2020-07-20_14h40.25.321,fisher_task,2020.1.3,Win32,60,0.094444459,-0.284444456,1,0,0,2.617415,scale,,,,,,0.1234,0.1,0.3702,0.3,stimuli/lakes/105059_left.png,stimuli/lakes/105059_right.png,,,,0,56,56,59,1,,,,,
,,,,,,$5dd5d8bd35cf745890c7814a,2020-07-20_14h40.25.321,fisher_task,2020.1.3,Win32,60,-0.156666656,-0.387777791,1,0,0,1.816775,scale,,,,,,0.326485712,0.264575131,0.21373507,0.173205081,stimuli/lakes/7070104_left.png,stimuli/lakes/7070104_right.png,,,,0,57,57,104,1,,,,,
,,,,,,$5dd5d8bd35cf745890c7814a,2020-07-20_14h40.25.321,fisher_task,2020.1.3,Win32,60,0.126111126,-0.310555635,1,0,0,1.98601,scale,,,,,,0.2468,0.2,0.302267034,0.244948974,stimuli/lakes/403035_left.png,stimuli/lakes/403035_right.png,,,,0,58,58,35,1,,,,,
,,,,,,$5dd5d8bd35cf745890c7814a,2020-07-20_14h40.25.321,fisher_task,2020.1.3,Win32,60,0.002777791,-0.2638889,1,0,0,1.800315,scale,,,,,,0.326485712,0.264575131,0.21373507,0.173205081,stimuli/lakes/702020_left.png,stimuli/lakes/702020_right.png,,,,0,59,59,20,1,,,,,
,,,,,,$5dd5d8bd35cf745890c7814a,2020-07-20_14h40.25.321,fisher_task,2020.1.3,Win32,60,0.131111126,-0.306666679,1,0,0,2.08336,scale,,,,,,0.275930788,0.223606798,0.275930788,0.223606798,stimuli/lakes/504054_left.png,stimuli/lakes/504054_right.png,,,,0,60,60,54,1,,,,,
,,,,,,$5dd5d8bd35cf745890c7814a,2020-07-20_14h40.25.321,fisher_task,2020.1.3,Win32,60,-0.098888877,-0.281111123,1,0,0,2.666895,scale,,,,,,0.275930788,0.223606798,0.275930788,0.223606798,stimuli/lakes/5080113_left.png,stimuli/lakes/5080113_right.png,,,,0,61,61,113,1,,,,,
,,,,,,$5dd5d8bd35cf745890c7814a,2020-07-20_14h40.25.321,fisher_task,2020.1.3,Win32,60,-0.01333332,-0.252222301,1,0,0,7.434965,scale,,,,,,0.21373507,0.173205081,0.326485712,0.264575131,stimuli/lakes/3090121_left.png,stimuli/lakes/3090121_right.png,,,,0,62,62,121,1,,,,,
,,,,,,$5dd5d8bd35cf745890c7814a,2020-07-20_14h40.25.321,fisher_task,2020.1.3,Win32,60,0.166111195,-0.364444457,1,0,0,1.91741,scale,,,,,,0.2468,0.2,0.302267034,0.244948974,stimuli/lakes/40103_left.png,stimuli/lakes/40103_right.png,,,,0,63,63,3,1,,,,,
,,,,,,$5dd5d8bd35cf745890c7814a,2020-07-20_14h40.25.321,fisher_task,2020.1.3,Win32,60,-0.153333255,-0.387222235,1,0,0,2.634175,scale,,,,,,0.3702,0.3,0.1234,0.1,stimuli/lakes/906079_left.png,stimuli/lakes/906079_right.png,,,,0,64,64,79,1,,,,,
,,,,,,$5dd5d8bd35cf745890c7814a,2020-07-20_14h40.25.321,fisher_task,2020.1.3,Win32,60,0.17166675,-0.401111125,1,0,0,3.267975,scale,,,,,,0.1234,0.1,0.3702,0.3,stimuli/lakes/103023_left.png,stimuli/lakes/103023_right.png,,,,0,65,65,23,1,,,,,
,,,,,,$5dd5d8bd35cf745890c7814a,2020-07-20_14h40.25.321,fisher_task,2020.1.3,Win32,60,-0.142222143,-0.335000012,1,0,0,2.917725,scale,,,,,,0.349027907,0.282842712,0.174513954,0.141421356,stimuli/lakes/8070105_left.png,stimuli/lakes/8070105_right.png,,,space,0,66,66,105,1,43.84568,,,,
,,,,,,$5dd5d8bd35cf745890c7814a,2020-07-20_14h40.25.321,fisher_task,2020.1.3,Win32,60,-0.049444432,-0.279444456,1,0,0,1.8839,scale,,,,,,0.302267034,0.244948974,0.2468,0.2,stimuli/lakes/603028_left.png,stimuli/lakes/603028_right.png,,,,0,67,67,28,1,,,,,
,,,,,,$5dd5d8bd35cf745890c7814a,2020-07-20_14h40.25.321,fisher_task,2020.1.3,Win32,60,-0.169444434,-0.388333414,1,0,0,1.750125,scale,,,,,,0.349027907,0.282842712,0.174513954,0.141421356,stimuli/lakes/807096_left.png,stimuli/lakes/807096_right.png,,,,0,68,68,96,1,,,,,
,,,,,,$5dd5d8bd35cf745890c7814a,2020-07-20_14h40.25.321,fisher_task,2020.1.3,Win32,60,-0.021111098,-0.247777789,1,0,0,3.38387,scale,,,,,,0.2468,0.2,0.302267034,0.244948974,stimuli/lakes/4080112_left.png,stimuli/lakes/4080112_right.png,,,,0,69,69,112,1,,,,,
,,,,,,$5dd5d8bd35cf745890c7814a,2020-07-20_14h40.25.321,fisher_task,2020.1.3,Win32,60,-0.1211111,-0.277777789,1,0,0,2.767635,scale,,,,,,0.302267034,0.244948974,0.2468,0.2,stimuli/lakes/604046_left.png,stimuli/lakes/604046_right.png,,,,0,70,70,46,1,,,,,
,,,,,,$5dd5d8bd35cf745890c7814a,2020-07-20_14h40.25.321,fisher_task,2020.1.3,Win32,60,-0.156111032,-0.413333415,1,0,0,2.18336,scale,,,,,,0.326485712,0.264575131,0.21373507,0.173205081,stimuli/lakes/7080117_left.png,stimuli/lakes/7080117_right.png,,,,0,71,71,117,1,,,,,
,,,,,,$5dd5d8bd35cf745890c7814a,2020-07-20_14h40.25.321,fisher_task,2020.1.3,Win32,60,0.155555571,-0.424444526,1,0,0,2.400155,scale,,,,,,0.1234,0.1,0.3702,0.3,stimuli/lakes/103032_left.png,stimuli/lakes/103032_right.png,,,,0,72,72,32,1,,,,,
,,,,,,$5dd5d8bd35cf745890c7814a,2020-07-20_14h40.25.321,fisher_task,2020.1.3,Win32,60,0.085000015,-0.258333345,1,0,0,2.09992,scale,,,,,,0.1234,0.1,0.3702,0.3,stimuli/lakes/107089_left.png,stimuli/lakes/107089_right.png,,,,0,73,73,89,1,,,,,
,,,,,,$5dd5d8bd35cf745890c7814a,2020-07-20_14h40.25.321,fisher_task,2020.1.3,Win32,60,0.032222236,-0.231111122,1,0,0,2.550455,scale,,,,,,0.349027907,0.282842712,0.174513954,0.141421356,stimuli/lakes/8080118_left.png,stimuli/lakes/8080118_right.png,,,,0,74,74,118,1,,,,,
,,,,,,$5dd5d8bd35cf745890c7814a,2020-07-20_14h40.25.321,fisher_task,2020.1.3,Win32,60,0.049444526,-0.247222233,1,0,0,2.067165,scale,,,,,,0.1234,0.1,0.3702,0.3,stimuli/lakes/107098_left.png,stimuli/lakes/107098_right.png,,,,0,75,75,98,1,,,,,
,,,,,,$5dd5d8bd35cf745890c7814a,2020-07-20_14h40.25.321,fisher_task,2020.1.3,Win32,60,0.084444459,-0.253333345,1,0,0,2.06643,scale,,,,,,0.21373507,0.173205081,0.326485712,0.264575131,stimuli/lakes/307091_left.png,stimuli/lakes/307091_right.png,,,,0,76,76,91,1,,,,,
,,,,,,$5dd5d8bd35cf745890c7814a,2020-07-20_14h40.25.321,fisher_task,2020.1.3,Win32,60,0.120555571,-0.34777779,1,0,0,3.333875,scale,,,,,,0.3702,0.3,0.1234,0.1,stimuli/lakes/904049_left.png,stimuli/lakes/904049_right.png,,,,0,77,77,49,1,,,,,
,,,,,,$5dd5d8bd35cf745890c7814a,2020-07-20_14h40.25.321,fisher_task,2020.1.3,Win32,60,0.088333416,-0.256666678,1,0,0,4.11749,scale,,,,,,0.174513954,0.141421356,0.349027907,0.282842712,stimuli/lakes/205060_left.png,stimuli/lakes/205060_right.png,,,,0,78,78,60,1,,,,,
,,,,,,$5dd5d8bd35cf745890c7814a,2020-07-20_14h40.25.321,fisher_task,2020.1.3,Win32,60,-0.138888878,-0.345000013,1,0,0,3.667785,scale,,,,,,0.302267034,0.244948974,0.2468,0.2,stimuli/lakes/605065_left.png,stimuli/lakes/605065_right.png,,,,0,79,79,65,1,,,,,
,,,,,,$5dd5d8bd35cf745890c7814a,2020-07-20_14h40.25.321,fisher_task,2020.1.3,Win32,60,0.173333349,-0.425555569,1,0,0,1.933235,scale,,,,,,0.174513954,0.141421356,0.349027907,0.282842712,stimuli/lakes/203033_left.png,stimuli/lakes/203033_right.png,,,,0,80,80,33,1,,,,,
,,,,,,$5dd5d8bd35cf745890c7814a,2020-07-20_14h40.25.321,fisher_task,2020.1.3,Win32,60,-0.168888878,-0.407777859,1,0,0,3.13389,scale,,,,,,0.349027907,0.282842712,0.174513954,0.141421356,stimuli/lakes/806078_left.png,stimuli/lakes/806078_right.png,,,,0,81,81,78,1,,,,,
,,,,,,$5dd5d8bd35cf745890c7814a,2020-07-20_14h40.25.321,fisher_task,2020.1.3,Win32,60,-0.099444433,-0.308888901,1,0,0,3.584135,scale,,,,,,0.349027907,0.282842712,0.174513954,0.141421356,stimuli/lakes/803030_left.png,stimuli/lakes/803030_right.png,,,,0,82,82,30,1,,,,,
,,,,,,$5dd5d8bd35cf745890c7814a,2020-07-20_14h40.25.321,fisher_task,2020.1.3,Win32,60,0.166111195,-0.423888903,1,0,0,1.682935,scale,,,,,,0.21373507,0.173205081,0.326485712,0.264575131,stimuli/lakes/302013_left.png,stimuli/lakes/302013_right.png,,,,0,83,83,13,1,,,,,
,,,,,,$5dd5d8bd35cf745890c7814a,2020-07-20_14h40.25.321,fisher_task,2020.1.3,Win32,60,0.085555638,-0.321666747,1,0,0,1.849445,scale,,,,,,0.21373507,0.173205081,0.326485712,0.264575131,stimuli/lakes/3070100_left.png,stimuli/lakes/3070100_right.png,,,,0,84,84,100,1,,,,,
,,,,,,$5dd5d8bd35cf745890c7814a,2020-07-20_14h40.25.321,fisher_task,2020.1.3,Win32,60,-0.131111032,-0.329444457,1,0,0,3.21923,scale,,,,,,0.3702,0.3,0.1234,0.1,stimuli/lakes/905070_left.png,stimuli/lakes/905070_right.png,,,,0,85,85,70,1,,,,,
,,,,,,$5dd5d8bd35cf745890c7814a,2020-07-20_14h40.25.321,fisher_task,2020.1.3,Win32,60,0.060000014,-0.256666678,1,0,0,4.769095,scale,,,,,,0.1234,0.1,0.3702,0.3,stimuli/lakes/106080_left.png,stimuli/lakes/106080_right.png,,,,0,86,86,80,1,,,,,
,,,,,,$5dd5d8bd35cf745890c7814a,2020-07-20_14h40.25.321,fisher_task,2020.1.3,Win32,60,-0.039999987,-0.252222301,1,0,0,2.46678,scale,,,,,,0.302267034,0.244948974,0.2468,0.2,stimuli/lakes/603037_left.png,stimuli/lakes/603037_right.png,,,,0,87,87,37,1,,,,,
,,,,,,$5dd5d8bd35cf745890c7814a,2020-07-20_14h40.25.321,fisher_task,2020.1.3,Win32,60,0.005000081,-0.246666746,1,0,0,2.383415,scale,,,,,,0.302267034,0.244948974,0.2468,0.2,stimuli/lakes/60105_left.png,stimuli/lakes/60105_right.png,,,space,0,88,88,5,1,32.868195,,,,
,,,,,,$5dd5d8bd35cf745890c7814a,2020-07-20_14h40.25.321,fisher_task,2020.1.3,Win32,60,-0.156111032,-0.341666679,1,0,0,1.850625,scale,,,,,,0.3702,0.3,0.1234,0.1,stimuli/lakes/906088_left.png,stimuli/lakes/906088_right.png,,,,0,89,89,88,1,,,,,
,,,,,,$5dd5d8bd35cf745890c7814a,2020-07-20_14h40.25.321,fisher_task,2020.1.3,Win32,60,-0.123333322,-0.329444457,1,0,0,3.251595,scale,,,,,,0.275930788,0.223606798,0.275930788,0.223606798,stimuli/lakes/506075_left.png,stimuli/lakes/506075_right.png,,,,0,90,90,75,1,,,,,
,,,,,,$5dd5d8bd35cf745890c7814a,2020-07-20_14h40.25.321,fisher_task,2020.1.3,Win32,60,0.131666682,-0.372777791,1,0,0,1.90009,scale,,,,,,0.2468,0.2,0.302267034,0.244948974,stimuli/lakes/404053_left.png,stimuli/lakes/404053_right.png,,,,0,91,91,53,1,,,,,
,,,,,,$5dd5d8bd35cf745890c7814a,2020-07-20_14h40.25.321,fisher_task,2020.1.3,Win32,60,0.088333416,-0.305555568,1,0,0,2.132895,scale,,,,,,0.2468,0.2,0.302267034,0.244948974,stimuli/lakes/407092_left.png,stimuli/lakes/407092_right.png,,,,0,92,92,92,1,,,,,
,,,,,,$5dd5d8bd35cf745890c7814a,2020-07-20_14h40.25.321,fisher_task,2020.1.3,Win32,60,0.132777861,-0.375555569,1,0,0,3.90065,scale,,,,,,0.21373507,0.173205081,0.326485712,0.264575131,stimuli/lakes/303034_left.png,stimuli/lakes/303034_right.png,,,,0,93,93,34,1,,,,,
,,,,,,$5dd5d8bd35cf745890c7814a,2020-07-20_14h40.25.321,fisher_task,2020.1.3,Win32,60,0.046111125,-0.290000012,1,0,0,1.634885,scale,,,,,,0.174513954,0.141421356,0.349027907,0.282842712,stimuli/lakes/2080108_left.png,stimuli/lakes/2080108_right.png,,,,0,94,94,108,1,,,,,
,,,,,,$5dd5d8bd35cf745890c7814a,2020-07-20_14h40.25.321,fisher_task,2020.1.3,Win32,60,-0.001111098,-0.258333345,1,0,0,2.000775,scale,,,,,,0.2468,0.2,0.302267034,0.244948974,stimuli/lakes/4070101_left.png,stimuli/lakes/4070101_right.png,,,,0,95,95,101,1,,,,,
,,,,,,$5dd5d8bd35cf745890c7814a,2020-07-20_14h40.25.321,fisher_task,2020.1.3,Win32,60,0.140555571,-0.377777791,1,0,0,2.099635,scale,,,,,,0.21373507,0.173205081,0.326485712,0.264575131,stimuli/lakes/304052_left.png,stimuli/lakes/304052_right.png,,,,0,96,96,52,1,,,,,
,,,,,,$5dd5d8bd35cf745890c7814a,2020-07-20_14h40.25.321,fisher_task,2020.1.3,Win32,60,-0.039999987,-0.239444455,1,0,0,2.26634,scale,,,,,,0.3702,0.3,0.1234,0.1,stimuli/lakes/902022_left.png,stimuli/lakes/902022_right.png,,,,0,97,97,22,1,,,,,
,,,,,,$5dd5d8bd35cf745890c7814a,2020-07-20_14h40.25.321,fisher_task,2020.1.3,Win32,60,0.081666681,-0.274444524,1,0,0,1.933955,scale,,,,,,0.2468,0.2,0.302267034,0.244948974,stimuli/lakes/404044_left.png,stimuli/lakes/404044_right.png,,,,0,98,98,44,1,,,,,
,,,,,,$5dd5d8bd35cf745890c7814a,2020-07-20_14h40.25.321,fisher_task,2020.1.3,Win32,60,-0.171666656,-0.428888903,1,0,0,2.38407,scale,,,,,,0.326485712,0.264575131,0.21373507,0.173205081,stimuli/lakes/7090129_left.png,stimuli/lakes/7090129_right.png,,,,0,99,99,129,1,,,,,
,,,,,,$5dd5d8bd35cf745890c7814a,2020-07-20_14h40.25.321,fisher_task,2020.1.3,Win32,60,-0.181111101,-0.437777792,1,0,0,1.916845,scale,,,,,,0.302267034,0.244948974,0.2468,0.2,stimuli/lakes/6080115_left.png,stimuli/lakes/6080115_right.png,,,,0,100,100,115,1,,,,,
,,,,,,$5dd5d8bd35cf745890c7814a,2020-07-20_14h40.25.321,fisher_task,2020.1.3,Win32,60,0.062222236,-0.295000012,1,0,0,4.017265,scale,,,,,,0.174513954,0.141421356,0.349027907,0.282842712,stimuli/lakes/2090120_left.png,stimuli/lakes/2090120_right.png,,,,0,101,101,120,1,,,,,
,,,,,,$5dd5d8bd35cf745890c7814a,2020-07-20_14h40.25.321,fisher_task,2020.1.3,Win32,60,-0.178888878,-0.434444458,1,0,0,2.467575,scale,,,,,,0.302267034,0.244948974,0.2468,0.2,stimuli/lakes/6090127_left.png,stimuli/lakes/6090127_right.png,,,,0,102,102,127,1,,,,,
,,,,,,$5dd5d8bd35cf745890c7814a,2020-07-20_14h40.25.321,fisher_task,2020.1.3,Win32,60,0.105000083,-0.313333413,1,0,0,2.29976,scale,,,,,,0.1234,0.1,0.3702,0.3,stimuli/lakes/106071_left.png,stimuli/lakes/106071_right.png,,,,0,103,103,71,1,,,,,
,,,,,,$5dd5d8bd35cf745890c7814a,2020-07-20_14h40.25.321,fisher_task,2020.1.3,Win32,60,-0.172777699,-0.431111125,1,0,0,2.167135,scale,,,,,,0.302267034,0.244948974,0.2468,0.2,stimuli/lakes/6090126_left.png,stimuli/lakes/6090126_right.png,,,,0,104,104,126,1,,,,,
,,,,,,$5dd5d8bd35cf745890c7814a,2020-07-20_14h40.25.321,fisher_task,2020.1.3,Win32,60,0.143333349,-0.336111124,1,0,0,4.60109,scale,,,,,,0.21373507,0.173205081,0.326485712,0.264575131,stimuli/lakes/305062_left.png,stimuli/lakes/305062_right.png,,,,0,105,105,62,1,,,,,
,,,,,,$5dd5d8bd35cf745890c7814a,2020-07-20_14h40.25.321,fisher_task,2020.1.3,Win32,60,0.042222236,-0.275555567,1,0,0,2.33384,scale,,,,,,0.2468,0.2,0.302267034,0.244948974,stimuli/lakes/406074_left.png,stimuli/lakes/406074_right.png,,,,0,106,106,74,1,,,,,
,,,,,,$5dd5d8bd35cf745890c7814a,2020-07-20_14h40.25.321,fisher_task,2020.1.3,Win32,60,0.147777793,-0.431666681,1,0,0,2.300575,scale,,,,,,0.275930788,0.223606798,0.275930788,0.223606798,stimuli/lakes/504045_left.png,stimuli/lakes/504045_right.png,,,,0,107,107,45,1,,,,,
,,,,,,$5dd5d8bd35cf745890c7814a,2020-07-20_14h40.25.321,fisher_task,2020.1.3,Win32,60,-0.136666588,-0.336666679,1,0,0,3.06797,scale,,,,,,0.349027907,0.282842712,0.174513954,0.141421356,stimuli/lakes/805069_left.png,stimuli/lakes/805069_right.png,,,,0,108,108,69,1,,,,,
,,,,,,$5dd5d8bd35cf745890c7814a,2020-07-20_14h40.25.321,fisher_task,2020.1.3,Win32,60,-0.051111099,-0.270555567,1,0,0,3.60091,scale,,,,,,0.3702,0.3,0.1234,0.1,stimuli/lakes/904058_left.png,stimuli/lakes/904058_right.png,,,,0,109,109,58,1,,,,,
,,,,,,$5dd5d8bd35cf745890c7814a,2020-07-20_14h40.25.321,fisher_task,2020.1.3,Win32,60,0.063333415,-0.257777857,1,0,0,5.41842,scale,,,,,,0.174513954,0.141421356,0.349027907,0.282842712,stimuli/lakes/206072_left.png,stimuli/lakes/206072_right.png,,,space,0,110,110,72,1,3.31807,,,,
,,,,,,$5dd5d8bd35cf745890c7814a,2020-07-20_14h40.25.321,fisher_task,2020.1.3,Win32,60,0.140000015,-0.431111125,1,0,0,1.5992,scale,,,,,,0.2468,0.2,0.302267034,0.244948974,stimuli/lakes/40102_left.png,stimuli/lakes/40102_right.png,,,,0,111,111,2,1,,,,,
,,,,,,$5dd5d8bd35cf745890c7814a,2020-07-20_14h40.25.321,fisher_task,2020.1.3,Win32,60,-0.068333321,-0.266666678,1,0,0,3.55142,scale,,,,,,0.326485712,0.264575131,0.21373507,0.173205081,stimuli/lakes/70107_left.png,stimuli/lakes/70107_right.png,,,,0,112,112,7,1,,,,,
,,,,,,$5dd5d8bd35cf745890c7814a,2020-07-20_14h40.25.321,fisher_task,2020.1.3,Win32,60,0.017222236,-0.267777789,1,0,0,3.317425,scale,,,,,,0.302267034,0.244948974,0.2468,0.2,stimuli/lakes/602017_left.png,stimuli/lakes/602017_right.png,,,,0,113,113,17,1,,,,,
,,,,,,$5dd5d8bd35cf745890c7814a,2020-07-20_14h40.25.321,fisher_task,2020.1.3,Win32,60,-0.129999989,-0.353888902,1,0,0,2.133755,scale,,,,,,0.326485712,0.264575131,0.21373507,0.173205081,stimuli/lakes/706086_left.png,stimuli/lakes/706086_right.png,,,,0,114,114,86,1,,,,,
,,,,,,$5dd5d8bd35cf745890c7814a,2020-07-20_14h40.25.321,fisher_task,2020.1.3,Win32,60,-0.118333322,-0.328333346,1,0,0,2.66723,scale,,,,,,0.302267034,0.244948974,0.2468,0.2,stimuli/lakes/607094_left.png,stimuli/lakes/607094_right.png,,,,0,115,115,94,1,,,,,
,,,,,,$5dd5d8bd35cf745890c7814a,2020-07-20_14h40.25.321,fisher_task,2020.1.3,Win32,60,0.074444527,-0.298333345,1,0,0,2.534735,scale,,,,,,0.275930788,0.223606798,0.275930788,0.223606798,stimuli/lakes/502016_left.png,stimuli/lakes/502016_right.png,,,,0,116,116,16,1,,,,,
,,,,,,$5dd5d8bd35cf745890c7814a,2020-07-20_14h40.25.321,fisher_task,2020.1.3,Win32,60,-0.047777697,-0.271666746,1,0,0,3.483855,scale,,,,,,0.3702,0.3,0.1234,0.1,stimuli/lakes/903040_left.png,stimuli/lakes/903040_right.png,,,,0,117,117,40,1,,,,,
,,,,,,$5dd5d8bd35cf745890c7814a,2020-07-20_14h40.25.321,fisher_task,2020.1.3,Win32,60,-0.081111031,-0.276111123,1,0,0,3.31673,scale,,,,,,0.21373507,0.173205081,0.326485712,0.264575131,stimuli/lakes/305061_left.png,stimuli/lakes/305061_right.png,,,,0,118,118,61,1,,,,,
,,,,,,$5dd5d8bd35cf745890c7814a,2020-07-20_14h40.25.321,fisher_task,2020.1.3,Win32,60,0.143888972,-0.410555637,1,0,0,2.133765,scale,,,,,,0.1234,0.1,0.3702,0.3,stimuli/lakes/104050_left.png,stimuli/lakes/104050_right.png,,,,0,119,119,50,1,,,,,
,,,,,,$5dd5d8bd35cf745890c7814a,2020-07-20_14h40.25.321,fisher_task,2020.1.3,Win32,60,-0.092222143,-0.277777789,1,0,0,4.517415,scale,,,,,,0.3702,0.3,0.1234,0.1,stimuli/lakes/903031_left.png,stimuli/lakes/903031_right.png,,,,0,120,120,31,1,,,,,
,,,,,,$5dd5d8bd35cf745890c7814a,2020-07-20_14h40.25.321,fisher_task,2020.1.3,Win32,60,0.12944446,-0.338333414,1,0,0,3.683705,scale,,,,,,0.275930788,0.223606798,0.275930788,0.223606798,stimuli/lakes/503027_left.png,stimuli/lakes/503027_right.png,,,,0,121,121,27,1,,,,,
,,,,,,$5dd5d8bd35cf745890c7814a,2020-07-20_14h40.25.321,fisher_task,2020.1.3,Win32,60,0.093333348,-0.308333345,1,0,0,3.483955,scale,,,,,,0.174513954,0.141421356,0.349027907,0.282842712,stimuli/lakes/206081_left.png,stimuli/lakes/206081_right.png,,,,0,122,122,81,1,,,,,
,,,,,,$5dd5d8bd35cf745890c7814a,2020-07-20_14h40.25.321,fisher_task,2020.1.3,Win32,60,-0.172777699,-0.409444458,1,0,0,1.86937,scale,,,,,,0.3702,0.3,0.1234,0.1,stimuli/lakes/907097_left.png,stimuli/lakes/907097_right.png,,,,0,123,123,97,1,,,,,
,,,,,,$5dd5d8bd35cf745890c7814a,2020-07-20_14h40.25.321,fisher_task,2020.1.3,Win32,60,-0.113888877,-0.318333346,1,0,0,2.085195,scale,,,,,,0.302267034,0.244948974,0.2468,0.2,stimuli/lakes/606076_left.png,stimuli/lakes/606076_right.png,,,,0,124,124,76,1,,,,,
,,,,,,$5dd5d8bd35cf745890c7814a,2020-07-20_14h40.25.321,fisher_task,2020.1.3,Win32,60,-0.081666655,-0.270555567,1,0,0,1.550855,scale,,,,,,0.302267034,0.244948974,0.2468,0.2,stimuli/lakes/6080114_left.png,stimuli/lakes/6080114_right.png,,,,0,125,125,114,1,,,,,
,,,,,,$5dd5d8bd35cf745890c7814a,2020-07-20_14h40.25.321,fisher_task,2020.1.3,Win32,60,0.170555571,-0.427777792,1,0,0,2.49773,scale,,,,,,0.21373507,0.173205081,0.326485712,0.264575131,stimuli/lakes/30100_left.png,stimuli/lakes/30100_right.png,,,,0,126,126,0,1,,,,,
,,,,,,$5dd5d8bd35cf745890c7814a,2020-07-20_14h40.25.321,fisher_task,2020.1.3,Win32,60,-0.056111031,-0.273333345,1,0,0,5.81803,scale,,,,,,0.326485712,0.264575131,0.21373507,0.173205081,stimuli/lakes/70108_left.png,stimuli/lakes/70108_right.png,,,,0,127,127,8,1,,,,,
,,,,,,$5dd5d8bd35cf745890c7814a,2020-07-20_14h40.25.321,fisher_task,2020.1.3,Win32,60,0.130555571,-0.407777859,1,0,0,1.450195,scale,,,,,,0.21373507,0.173205081,0.326485712,0.264575131,stimuli/lakes/303025_left.png,stimuli/lakes/303025_right.png,,,,0,128,128,25,1,,,,,
,,,,,,$5dd5d8bd35cf745890c7814a,2020-07-20_14h40.25.321,fisher_task,2020.1.3,Win32,60,-0.178888878,-0.423888903,1,0,0,2.600135,scale,,,,,,0.275930788,0.223606798,0.275930788,0.223606798,stimuli/lakes/5070102_left.png,stimuli/lakes/5070102_right.png,,,,0,129,129,102,1,,,,,
,,,,,,$5dd5d8bd35cf745890c7814a,2020-07-20_14h40.25.321,fisher_task,2020.1.3,Win32,60,,,,,,,,,,,,,,,,,,,,,,,,,,,,space,6.89221,space,107.163595
