keySpace.keys,instructions.thisRepN,instructions.thisTrialN,instructions.thisN,instructions.thisIndex,instructions.ran,participant,date,expName,psychopyVersion,OS,frameRate,mouse.x,mouse.y,mouse.leftButton,mouse.midButton,mouse.rightButton,mouse.time,mouse.clicked_name,training.thisRepN,training.thisTrialN,training.thisN,training.thisIndex,training.ran,widthBasketLeft,heightBasketLeft,widthBasketRight,heightBasketRight,leftLake,rightLake,space2.keys,space2.rt,space1.keys,trials.thisRepN,trials.thisTrialN,trials.thisN,trials.thisIndex,trials.ran,space1.rt,finalSpace1.keys,finalSpace1.rt,finalSpace2.keys,finalSpace2.rt
,0,0,0,0,1,$5ee95070fff7862f9effecc6,2020-07-20_14h41.37.179,fisher_task,2020.1.3,Win32,60,,,,,,,,,,,,,,,,,,,,,,,,,,,,,,,
,,,,,,$5ee95070fff7862f9effecc6,2020-07-20_14h41.37.179,fisher_task,2020.1.3,Win32,60,0.167361131,-0.418055569,1,0,0,5.102445,scale,0,0,0,0,1,0.275930788,0.223606798,0.275930788,0.223606798,stimuli/training/20_left.png,stimuli/training/20_right.png,,,,,,,,,,,,,
,,,,,,$5ee95070fff7862f9effecc6,2020-07-20_14h41.37.179,fisher_task,2020.1.3,Win32,60,-0.133333318,-0.342361124,1,0,0,4.300175,scale,0,1,1,1,1,0.275930788,0.223606798,0.275930788,0.223606798,stimuli/training/80_left.png,stimuli/training/80_right.png,,,,,,,,,,,,,
,,,,,,$5ee95070fff7862f9effecc6,2020-07-20_14h41.37.179,fisher_task,2020.1.3,Win32,60,0.157638909,-0.41041668,1,0,0,2.639605,scale,0,2,2,2,1,0.174513954,0.141421356,0.349027907,0.282842712,stimuli/training/50_left.png,stimuli/training/50_right.png,,,,,,,,,,,,,
,,,,,,$5ee95070fff7862f9effecc6,2020-07-20_14h41.37.179,fisher_task,2020.1.3,Win32,60,-0.088194428,-0.265277789,1,0,0,3.7998,scale,0,3,3,3,1,0.349027907,0.282842712,0.174513954,0.141421356,stimuli/training/50_left.png,stimuli/training/50_right.png,,,,,,,,,,,,,
,,,,,,$5ee95070fff7862f9effecc6,2020-07-20_14h41.37.179,fisher_task,2020.1.3,Win32,60,0.159027883,-0.310416679,1,0,0,8.36166,scale,0,4,4,4,1,0.275930788,0.223606798,0.275930788,0.223606798,stimuli/training/50_left.png,stimuli/training/50_right.png,,,,,,,,,,,,,
,,,,,,$5ee95070fff7862f9effecc6,2020-07-20_14h41.37.179,fisher_task,2020.1.3,Win32,60,0.177083354,-0.422916765,1,0,0,1.579815,scale,0,5,5,5,1,0.174513954,0.141421356,0.349027907,0.282842712,stimuli/training/20_left.png,stimuli/training/20_right.png,,,,,,,,,,,,,
,,,,,,$5ee95070fff7862f9effecc6,2020-07-20_14h41.37.179,fisher_task,2020.1.3,Win32,60,-0.156249985,-0.433333432,1,0,0,1.68016,scale,0,6,6,6,1,0.349027907,0.282842712,0.174513954,0.141421356,stimuli/training/80_left.png,stimuli/training/80_right.png,,,,,,,,,,,,,
,,,,,,$5ee95070fff7862f9effecc6,2020-07-20_14h41.37.179,fisher_task,2020.1.3,Win32,60,0.158333353,-0.413194458,1,0,0,1.539915,scale,0,7,7,7,1,0.1234,0.1,0.3702,0.3,stimuli/training/30_left.png,stimuli/training/30_right.png,,,,,,,,,,,,,
,,,,,,$5ee95070fff7862f9effecc6,2020-07-20_14h41.37.179,fisher_task,2020.1.3,Win32,60,-0.169444429,-0.417361125,1,0,0,1.500395,scale,0,8,8,8,1,0.3702,0.3,0.1234,0.1,stimuli/training/70_left.png,stimuli/training/70_right.png,,,,,,,,,,,,,
,,,,,,$5ee95070fff7862f9effecc6,2020-07-20_14h41.37.179,fisher_task,2020.1.3,Win32,60,-0.169444429,-0.417361125,1,0,0,0.659505,scale,0,9,9,9,1,0.326485712,0.264575131,0.21373507,0.173205081,stimuli/training/90_left.png,stimuli/training/90_right.png,,,,,,,,,,,,,
,,,,,,$5ee95070fff7862f9effecc6,2020-07-20_14h41.37.179,fisher_task,2020.1.3,Win32,60,0.174305576,-0.393750013,1,0,0,1.299675,scale,0,10,10,10,1,0.21373507,0.173205081,0.326485712,0.264575131,stimuli/training/10_left.png,stimuli/training/10_right.png,,,,,,,,,,,,,
,,,,,,$5ee95070fff7862f9effecc6,2020-07-20_14h41.37.179,fisher_task,2020.1.3,Win32,60,0.068055574,-0.270833345,1,0,0,5.14069,scale,,,,,,0.1234,0.1,0.3702,0.3,stimuli/lakes/106071_left.png,stimuli/lakes/106071_right.png,space,20.622705,,0,0,0,71,1,,,,,
,,,,,,$5ee95070fff7862f9effecc6,2020-07-20_14h41.37.179,fisher_task,2020.1.3,Win32,60,-0.077083232,-0.285416678,1,0,0,5.45978,scale,,,,,,0.3702,0.3,0.1234,0.1,stimuli/lakes/904049_left.png,stimuli/lakes/904049_right.png,,,,0,1,1,49,1,,,,,
,,,,,,$5ee95070fff7862f9effecc6,2020-07-20_14h41.37.179,fisher_task,2020.1.3,Win32,60,-0.144444429,-0.345138901,1,0,0,2.380485,scale,,,,,,0.2468,0.2,0.302267034,0.244948974,stimuli/lakes/4080111_left.png,stimuli/lakes/4080111_right.png,,,,0,2,2,111,1,,,,,
,,,,,,$5ee95070fff7862f9effecc6,2020-07-20_14h41.37.179,fisher_task,2020.1.3,Win32,60,0.152777798,-0.313194457,1,0,0,7.301775,scale,,,,,,0.21373507,0.173205081,0.326485712,0.264575131,stimuli/lakes/306082_left.png,stimuli/lakes/306082_right.png,,,,0,3,3,82,1,,,,,
,,,,,,$5ee95070fff7862f9effecc6,2020-07-20_14h41.37.179,fisher_task,2020.1.3,Win32,60,0.082638993,-0.273611123,1,0,0,5.16128,scale,,,,,,0.174513954,0.141421356,0.349027907,0.282842712,stimuli/lakes/206072_left.png,stimuli/lakes/206072_right.png,,,,0,4,4,72,1,,,,,
,,,,,,$5ee95070fff7862f9effecc6,2020-07-20_14h41.37.179,fisher_task,2020.1.3,Win32,60,-0.151388873,-0.414583347,1,0,0,2.04039,scale,,,,,,0.3702,0.3,0.1234,0.1,stimuli/lakes/905070_left.png,stimuli/lakes/905070_right.png,,,,0,5,5,70,1,,,,,
,,,,,,$5ee95070fff7862f9effecc6,2020-07-20_14h41.37.179,fisher_task,2020.1.3,Win32,60,-0.1499999,-0.436111125,1,0,0,1.60023,scale,,,,,,0.302267034,0.244948974,0.2468,0.2,stimuli/lakes/6090127_left.png,stimuli/lakes/6090127_right.png,,,,0,6,6,127,1,,,,,
,,,,,,$5ee95070fff7862f9effecc6,2020-07-20_14h41.37.179,fisher_task,2020.1.3,Win32,60,0.159722242,-0.430555569,1,0,0,1.040135,scale,,,,,,0.1234,0.1,0.3702,0.3,stimuli/lakes/103032_left.png,stimuli/lakes/103032_right.png,,,,0,7,7,32,1,,,,,
,,,,,,$5ee95070fff7862f9effecc6,2020-07-20_14h41.37.179,fisher_task,2020.1.3,Win32,60,0.081250019,-0.275694456,1,0,0,5.34186,scale,,,,,,0.1234,0.1,0.3702,0.3,stimuli/lakes/107098_left.png,stimuli/lakes/107098_right.png,,,,0,8,8,98,1,,,,,
,,,,,,$5ee95070fff7862f9effecc6,2020-07-20_14h41.37.179,fisher_task,2020.1.3,Win32,60,-0.115277677,-0.294444456,1,0,0,3.619105,scale,,,,,,0.349027907,0.282842712,0.174513954,0.141421356,stimuli/lakes/803030_left.png,stimuli/lakes/803030_right.png,,,,0,9,9,30,1,,,,,
,,,,,,$5ee95070fff7862f9effecc6,2020-07-20_14h41.37.179,fisher_task,2020.1.3,Win32,60,0.156944465,-0.420833347,1,0,0,1.21847,scale,,,,,,0.174513954,0.141421356,0.349027907,0.282842712,stimuli/lakes/203033_left.png,stimuli/lakes/203033_right.png,,,,0,10,10,33,1,,,,,
,,,,,,$5ee95070fff7862f9effecc6,2020-07-20_14h41.37.179,fisher_task,2020.1.3,Win32,60,-0.156249985,-0.41666668,1,0,0,2.01929,scale,,,,,,0.302267034,0.244948974,0.2468,0.2,stimuli/lakes/6070103_left.png,stimuli/lakes/6070103_right.png,,,,0,11,11,103,1,,,,,
,,,,,,$5ee95070fff7862f9effecc6,2020-07-20_14h41.37.179,fisher_task,2020.1.3,Win32,60,0.178472243,-0.422916765,1,0,0,1.519875,scale,,,,,,0.21373507,0.173205081,0.326485712,0.264575131,stimuli/lakes/302013_left.png,stimuli/lakes/302013_right.png,,,,0,12,12,13,1,,,,,
,,,,,,$5ee95070fff7862f9effecc6,2020-07-20_14h41.37.179,fisher_task,2020.1.3,Win32,60,-0.158333318,-0.374305569,1,0,0,2.079745,scale,,,,,,0.2468,0.2,0.302267034,0.244948974,stimuli/lakes/4090124_left.png,stimuli/lakes/4090124_right.png,,,,0,13,13,124,1,,,,,
,,,,,,$5ee95070fff7862f9effecc6,2020-07-20_14h41.37.179,fisher_task,2020.1.3,Win32,60,0.160416687,-0.349305568,1,0,0,1.81928,scale,,,,,,0.275930788,0.223606798,0.275930788,0.223606798,stimuli/lakes/503027_left.png,stimuli/lakes/503027_right.png,,,,0,14,14,27,1,,,,,
,,,,,,$5ee95070fff7862f9effecc6,2020-07-20_14h41.37.179,fisher_task,2020.1.3,Win32,60,0.068750104,-0.2763889,1,0,0,2.54001,scale,,,,,,0.1234,0.1,0.3702,0.3,stimuli/lakes/106080_left.png,stimuli/lakes/106080_right.png,,,,0,15,15,80,1,,,,,
,,,,,,$5ee95070fff7862f9effecc6,2020-07-20_14h41.37.179,fisher_task,2020.1.3,Win32,60,-0.152777762,-0.391666765,1,0,0,1.819595,scale,,,,,,0.302267034,0.244948974,0.2468,0.2,stimuli/lakes/6080114_left.png,stimuli/lakes/6080114_right.png,,,,0,16,16,114,1,,,,,
,,,,,,$5ee95070fff7862f9effecc6,2020-07-20_14h41.37.179,fisher_task,2020.1.3,Win32,60,-0.106249984,-0.287500012,1,0,0,2.82019,scale,,,,,,0.302267034,0.244948974,0.2468,0.2,stimuli/lakes/604046_left.png,stimuli/lakes/604046_right.png,,,,0,17,17,46,1,,,,,
,,,,,,$5ee95070fff7862f9effecc6,2020-07-20_14h41.37.179,fisher_task,2020.1.3,Win32,60,0.139583353,-0.322916679,1,0,0,2.75877,scale,,,,,,0.174513954,0.141421356,0.349027907,0.282842712,stimuli/lakes/205060_left.png,stimuli/lakes/205060_right.png,,,,0,18,18,60,1,,,,,
,,,,,,$5ee95070fff7862f9effecc6,2020-07-20_14h41.37.179,fisher_task,2020.1.3,Win32,60,0.159722242,-0.397222236,1,0,0,1.79948,scale,,,,,,0.21373507,0.173205081,0.326485712,0.264575131,stimuli/lakes/304052_left.png,stimuli/lakes/304052_right.png,,,,0,19,19,52,1,,,,,
,,,,,,$5ee95070fff7862f9effecc6,2020-07-20_14h41.37.179,fisher_task,2020.1.3,Win32,60,0.159722242,-0.422222236,1,0,0,1.1798,scale,,,,,,0.275930788,0.223606798,0.275930788,0.223606798,stimuli/lakes/50104_left.png,stimuli/lakes/50104_right.png,,,,0,20,20,4,1,,,,,
,,,,,,$5ee95070fff7862f9effecc6,2020-07-20_14h41.37.179,fisher_task,2020.1.3,Win32,60,-0.144444429,-0.382638902,1,0,0,1.439375,scale,,,,,,0.326485712,0.264575131,0.21373507,0.173205081,stimuli/lakes/706086_left.png,stimuli/lakes/706086_right.png,,,,0,21,21,86,1,,,,,
,,,,,,$5ee95070fff7862f9effecc6,2020-07-20_14h41.37.179,fisher_task,2020.1.3,Win32,60,0.068750104,-0.275000012,1,0,0,2.84018,scale,,,,,,0.349027907,0.282842712,0.174513954,0.141421356,stimuli/lakes/804048_left.png,stimuli/lakes/804048_right.png,,,space,0,22,22,48,1,8.71033,,,,
,,,,,,$5ee95070fff7862f9effecc6,2020-07-20_14h41.37.179,fisher_task,2020.1.3,Win32,60,0.184027798,-0.422916765,1,0,0,0.959715,scale,,,,,,0.21373507,0.173205081,0.326485712,0.264575131,stimuli/lakes/303034_left.png,stimuli/lakes/303034_right.png,,,,0,23,23,34,1,,,,,
,,,,,,$5ee95070fff7862f9effecc6,2020-07-20_14h41.37.179,fisher_task,2020.1.3,Win32,60,0.060416685,-0.277777789,1,0,0,2.699515,scale,,,,,,0.302267034,0.244948974,0.2468,0.2,stimuli/lakes/603028_left.png,stimuli/lakes/603028_right.png,,,,0,24,24,28,1,,,,,
,,,,,,$5ee95070fff7862f9effecc6,2020-07-20_14h41.37.179,fisher_task,2020.1.3,Win32,60,0.173611131,-0.434027792,1,0,0,0.97968,scale,,,,,,0.174513954,0.141421356,0.349027907,0.282842712,stimuli/lakes/204051_left.png,stimuli/lakes/204051_right.png,,,,0,25,25,51,1,,,,,
,,,,,,$5ee95070fff7862f9effecc6,2020-07-20_14h41.37.179,fisher_task,2020.1.3,Win32,60,-0.124999984,-0.34027779,1,0,0,4.060525,scale,,,,,,0.21373507,0.173205081,0.326485712,0.264575131,stimuli/lakes/3090121_left.png,stimuli/lakes/3090121_right.png,,,,0,26,26,121,1,,,,,
,,,,,,$5ee95070fff7862f9effecc6,2020-07-20_14h41.37.179,fisher_task,2020.1.3,Win32,60,-0.038194427,-0.244444456,1,0,0,2.66053,scale,,,,,,0.3702,0.3,0.1234,0.1,stimuli/lakes/904058_left.png,stimuli/lakes/904058_right.png,,,,0,27,27,58,1,,,,,
,,,,,,$5ee95070fff7862f9effecc6,2020-07-20_14h41.37.179,fisher_task,2020.1.3,Win32,60,0.159027883,-0.403472236,1,0,0,1.3002,scale,,,,,,0.349027907,0.282842712,0.174513954,0.141421356,stimuli/lakes/80109_left.png,stimuli/lakes/80109_right.png,,,,0,28,28,9,1,,,,,
,,,,,,$5ee95070fff7862f9effecc6,2020-07-20_14h41.37.179,fisher_task,2020.1.3,Win32,60,-0.148611096,-0.421527792,1,0,0,1.52025,scale,,,,,,0.3702,0.3,0.1234,0.1,stimuli/lakes/9070106_left.png,stimuli/lakes/9070106_right.png,,,,0,29,29,106,1,,,,,
,,,,,,$5ee95070fff7862f9effecc6,2020-07-20_14h41.37.179,fisher_task,2020.1.3,Win32,60,-0.148611096,-0.421527792,1,0,0,1.34019,scale,,,,,,0.302267034,0.244948974,0.2468,0.2,stimuli/lakes/605066_left.png,stimuli/lakes/605066_right.png,,,,0,30,30,66,1,,,,,
,,,,,,$5ee95070fff7862f9effecc6,2020-07-20_14h41.37.179,fisher_task,2020.1.3,Win32,60,0.131250105,-0.322222234,1,0,0,1.82029,scale,,,,,,0.21373507,0.173205081,0.326485712,0.264575131,stimuli/lakes/305062_left.png,stimuli/lakes/305062_right.png,,,,0,31,31,62,1,,,,,
,,,,,,$5ee95070fff7862f9effecc6,2020-07-20_14h41.37.179,fisher_task,2020.1.3,Win32,60,-0.134722206,-0.32777779,1,0,0,2.460465,scale,,,,,,0.275930788,0.223606798,0.275930788,0.223606798,stimuli/lakes/5070102_left.png,stimuli/lakes/5070102_right.png,,,,0,32,32,102,1,,,,,
,,,,,,$5ee95070fff7862f9effecc6,2020-07-20_14h41.37.179,fisher_task,2020.1.3,Win32,60,0.111805575,-0.336805568,1,0,0,1.52029,scale,,,,,,0.275930788,0.223606798,0.275930788,0.223606798,stimuli/lakes/504045_left.png,stimuli/lakes/504045_right.png,,,,0,33,33,45,1,,,,,
,,,,,,$5ee95070fff7862f9effecc6,2020-07-20_14h41.37.179,fisher_task,2020.1.3,Win32,60,0.060416685,-0.272222234,1,0,0,1.80056,scale,,,,,,0.174513954,0.141421356,0.349027907,0.282842712,stimuli/lakes/206081_left.png,stimuli/lakes/206081_right.png,,,,0,34,34,81,1,,,,,
,,,,,,$5ee95070fff7862f9effecc6,2020-07-20_14h41.37.179,fisher_task,2020.1.3,Win32,60,0.161111131,-0.414583347,1,0,0,1.26015,scale,,,,,,0.2468,0.2,0.302267034,0.244948974,stimuli/lakes/403035_left.png,stimuli/lakes/403035_right.png,,,,0,35,35,35,1,,,,,
,,,,,,$5ee95070fff7862f9effecc6,2020-07-20_14h41.37.179,fisher_task,2020.1.3,Win32,60,0.161111131,-0.414583347,1,0,0,0.600025,scale,,,,,,0.2468,0.2,0.302267034,0.244948974,stimuli/lakes/40102_left.png,stimuli/lakes/40102_right.png,,,,0,36,36,2,1,,,,,
,,,,,,$5ee95070fff7862f9effecc6,2020-07-20_14h41.37.179,fisher_task,2020.1.3,Win32,60,-0.097916566,-0.277083345,1,0,0,2.38051,scale,,,,,,0.326485712,0.264575131,0.21373507,0.173205081,stimuli/lakes/702020_left.png,stimuli/lakes/702020_right.png,,,,0,37,37,20,1,,,,,
,,,,,,$5ee95070fff7862f9effecc6,2020-07-20_14h41.37.179,fisher_task,2020.1.3,Win32,60,0.062500019,-0.261805567,1,0,0,2.160495,scale,,,,,,0.174513954,0.141421356,0.349027907,0.282842712,stimuli/lakes/207099_left.png,stimuli/lakes/207099_right.png,,,,0,38,38,99,1,,,,,
,,,,,,$5ee95070fff7862f9effecc6,2020-07-20_14h41.37.179,fisher_task,2020.1.3,Win32,60,-0.133333318,-0.390972235,1,0,0,1.07976,scale,,,,,,0.326485712,0.264575131,0.21373507,0.173205081,stimuli/lakes/7070104_left.png,stimuli/lakes/7070104_right.png,,,,0,39,39,104,1,,,,,
,,,,,,$5ee95070fff7862f9effecc6,2020-07-20_14h41.37.179,fisher_task,2020.1.3,Win32,60,-0.162499985,-0.403472236,1,0,0,1.079885,scale,,,,,,0.302267034,0.244948974,0.2468,0.2,stimuli/lakes/605065_left.png,stimuli/lakes/605065_right.png,,,,0,40,40,65,1,,,,,
,,,,,,$5ee95070fff7862f9effecc6,2020-07-20_14h41.37.179,fisher_task,2020.1.3,Win32,60,-0.162499985,-0.403472236,1,0,0,1.000015,scale,,,,,,0.302267034,0.244948974,0.2468,0.2,stimuli/lakes/606085_left.png,stimuli/lakes/606085_right.png,,,,0,41,41,85,1,,,,,
,,,,,,$5ee95070fff7862f9effecc6,2020-07-20_14h41.37.179,fisher_task,2020.1.3,Win32,60,-0.15555554,-0.34027779,1,0,0,1.63986,scale,,,,,,0.326485712,0.264575131,0.21373507,0.173205081,stimuli/lakes/705067_left.png,stimuli/lakes/705067_right.png,,,,0,42,42,67,1,,,,,
,,,,,,$5ee95070fff7862f9effecc6,2020-07-20_14h41.37.179,fisher_task,2020.1.3,Win32,60,0.069444463,-0.266666678,1,0,0,2.159795,scale,,,,,,0.21373507,0.173205081,0.326485712,0.264575131,stimuli/lakes/3080109_left.png,stimuli/lakes/3080109_right.png,,,,0,43,43,109,1,,,,,
,,,,,,$5ee95070fff7862f9effecc6,2020-07-20_14h41.37.179,fisher_task,2020.1.3,Win32,60,-0.145138873,-0.384722235,1,0,0,1.159735,scale,,,,,,0.3702,0.3,0.1234,0.1,stimuli/lakes/907097_left.png,stimuli/lakes/907097_right.png,,,space,0,44,44,97,1,1.939635,,,,
,,,,,,$5ee95070fff7862f9effecc6,2020-07-20_14h41.37.179,fisher_task,2020.1.3,Win32,60,-0.063194343,-0.272222234,1,0,0,1.560085,scale,,,,,,0.21373507,0.173205081,0.326485712,0.264575131,stimuli/lakes/3080110_left.png,stimuli/lakes/3080110_right.png,,,,0,45,45,110,1,,,,,
,,,,,,$5ee95070fff7862f9effecc6,2020-07-20_14h41.37.179,fisher_task,2020.1.3,Win32,60,-0.150694429,-0.406250014,1,0,0,2.04055,scale,,,,,,0.3702,0.3,0.1234,0.1,stimuli/lakes/906079_left.png,stimuli/lakes/906079_right.png,,,,0,46,46,79,1,,,,,
,,,,,,$5ee95070fff7862f9effecc6,2020-07-20_14h41.37.179,fisher_task,2020.1.3,Win32,60,-0.011805538,-0.2388889,1,0,0,3.160395,scale,,,,,,0.2468,0.2,0.302267034,0.244948974,stimuli/lakes/4080112_left.png,stimuli/lakes/4080112_right.png,,,,0,47,47,112,1,,,,,
,,,,,,$5ee95070fff7862f9effecc6,2020-07-20_14h41.37.179,fisher_task,2020.1.3,Win32,60,0.16875002,-0.406250014,1,0,0,1.319835,scale,,,,,,0.275930788,0.223606798,0.275930788,0.223606798,stimuli/lakes/504054_left.png,stimuli/lakes/504054_right.png,,,,0,48,48,54,1,,,,,
,,,,,,$5ee95070fff7862f9effecc6,2020-07-20_14h41.37.179,fisher_task,2020.1.3,Win32,60,0.165277798,-0.421527792,1,0,0,1.00035,scale,,,,,,0.21373507,0.173205081,0.326485712,0.264575131,stimuli/lakes/303025_left.png,stimuli/lakes/303025_right.png,,,,0,49,49,25,1,,,,,
,,,,,,$5ee95070fff7862f9effecc6,2020-07-20_14h41.37.179,fisher_task,2020.1.3,Win32,60,-0.086805539,-0.275000012,1,0,0,2.020045,scale,,,,,,0.326485712,0.264575131,0.21373507,0.173205081,stimuli/lakes/70108_left.png,stimuli/lakes/70108_right.png,,,,0,50,50,8,1,,,,,
,,,,,,$5ee95070fff7862f9effecc6,2020-07-20_14h41.37.179,fisher_task,2020.1.3,Win32,60,-0.043749983,-0.269444456,1,0,0,1.820225,scale,,,,,,0.326485712,0.264575131,0.21373507,0.173205081,stimuli/lakes/703038_left.png,stimuli/lakes/703038_right.png,,,,0,51,51,38,1,,,,,
,,,,,,$5ee95070fff7862f9effecc6,2020-07-20_14h41.37.179,fisher_task,2020.1.3,Win32,60,0.102777797,-0.29027779,1,0,0,2.780525,scale,,,,,,0.326485712,0.264575131,0.21373507,0.173205081,stimuli/lakes/70107_left.png,stimuli/lakes/70107_right.png,,,,0,52,52,7,1,,,,,
,,,,,,$5ee95070fff7862f9effecc6,2020-07-20_14h41.37.179,fisher_task,2020.1.3,Win32,60,-0.115972206,-0.325000012,1,0,0,1.90019,scale,,,,,,0.302267034,0.244948974,0.2468,0.2,stimuli/lakes/607094_left.png,stimuli/lakes/607094_right.png,,,,0,53,53,94,1,,,,,
,,,,,,$5ee95070fff7862f9effecc6,2020-07-20_14h41.37.179,fisher_task,2020.1.3,Win32,60,0.15000002,-0.425000014,1,0,0,1.22011,scale,,,,,,0.275930788,0.223606798,0.275930788,0.223606798,stimuli/lakes/502016_left.png,stimuli/lakes/502016_right.png,,,,0,54,54,16,1,,,,,
,,,,,,$5ee95070fff7862f9effecc6,2020-07-20_14h41.37.179,fisher_task,2020.1.3,Win32,60,-0.069444428,-0.283333345,1,0,0,1.480045,scale,,,,,,0.349027907,0.282842712,0.174513954,0.141421356,stimuli/lakes/803039_left.png,stimuli/lakes/803039_right.png,,,,0,55,55,39,1,,,,,
,,,,,,$5ee95070fff7862f9effecc6,2020-07-20_14h41.37.179,fisher_task,2020.1.3,Win32,60,-0.14930554,-0.342361124,1,0,0,2.079905,scale,,,,,,0.326485712,0.264575131,0.21373507,0.173205081,stimuli/lakes/7080116_left.png,stimuli/lakes/7080116_right.png,,,,0,56,56,116,1,,,,,
,,,,,,$5ee95070fff7862f9effecc6,2020-07-20_14h41.37.179,fisher_task,2020.1.3,Win32,60,-0.041666649,-0.249305567,1,0,0,1.839895,scale,,,,,,0.326485712,0.264575131,0.21373507,0.173205081,stimuli/lakes/703029_left.png,stimuli/lakes/703029_right.png,,,,0,57,57,29,1,,,,,
,,,,,,$5ee95070fff7862f9effecc6,2020-07-20_14h41.37.179,fisher_task,2020.1.3,Win32,60,-0.147916651,-0.343055568,1,0,0,1.559865,scale,,,,,,0.3702,0.3,0.1234,0.1,stimuli/lakes/906088_left.png,stimuli/lakes/906088_right.png,,,,0,58,58,88,1,,,,,
,,,,,,$5ee95070fff7862f9effecc6,2020-07-20_14h41.37.179,fisher_task,2020.1.3,Win32,60,-0.053472205,-0.259027789,1,0,0,1.80024,scale,,,,,,0.2468,0.2,0.302267034,0.244948974,stimuli/lakes/406074_left.png,stimuli/lakes/406074_right.png,,,,0,59,59,74,1,,,,,
,,,,,,$5ee95070fff7862f9effecc6,2020-07-20_14h41.37.179,fisher_task,2020.1.3,Win32,60,-0.145138873,-0.435416681,1,0,0,1.78031,scale,,,,,,0.275930788,0.223606798,0.275930788,0.223606798,stimuli/lakes/506084_left.png,stimuli/lakes/506084_right.png,,,,0,60,60,84,1,,,,,
,,,,,,$5ee95070fff7862f9effecc6,2020-07-20_14h41.37.179,fisher_task,2020.1.3,Win32,60,0.062500019,-0.265972234,1,0,0,2.140445,scale,,,,,,0.2468,0.2,0.302267034,0.244948974,stimuli/lakes/405063_left.png,stimuli/lakes/405063_right.png,,,,0,61,61,63,1,,,,,
,,,,,,$5ee95070fff7862f9effecc6,2020-07-20_14h41.37.179,fisher_task,2020.1.3,Win32,60,-0.090972121,-0.281250012,1,0,0,3.52084,scale,,,,,,0.302267034,0.244948974,0.2468,0.2,stimuli/lakes/604055_left.png,stimuli/lakes/604055_right.png,,,,0,62,62,55,1,,,,,
,,,,,,$5ee95070fff7862f9effecc6,2020-07-20_14h41.37.179,fisher_task,2020.1.3,Win32,60,0.183333439,-0.412500098,1,0,0,1.08016,scale,,,,,,0.174513954,0.141421356,0.349027907,0.282842712,stimuli/lakes/203024_left.png,stimuli/lakes/203024_right.png,,,,0,63,63,24,1,,,,,
,,,,,,$5ee95070fff7862f9effecc6,2020-07-20_14h41.37.179,fisher_task,2020.1.3,Win32,60,0.148611216,-0.35277779,1,0,0,1.68034,scale,,,,,,0.2468,0.2,0.302267034,0.244948974,stimuli/lakes/402015_left.png,stimuli/lakes/402015_right.png,,,,0,64,64,15,1,,,,,
,,,,,,$5ee95070fff7862f9effecc6,2020-07-20_14h41.37.179,fisher_task,2020.1.3,Win32,60,0.081250019,-0.272222234,1,0,0,1.720325,scale,,,,,,0.326485712,0.264575131,0.21373507,0.173205081,stimuli/lakes/704056_left.png,stimuli/lakes/704056_right.png,,,,0,65,65,56,1,,,,,
,,,,,,$5ee95070fff7862f9effecc6,2020-07-20_14h41.37.179,fisher_task,2020.1.3,Win32,60,0.16875002,-0.427083347,1,0,0,1.120155,scale,,,,,,0.21373507,0.173205081,0.326485712,0.264575131,stimuli/lakes/30101_left.png,stimuli/lakes/30101_right.png,,,space,0,66,66,1,1,1.870005,,,,
,,,,,,$5ee95070fff7862f9effecc6,2020-07-20_14h41.37.179,fisher_task,2020.1.3,Win32,60,0.077083352,-0.278472234,1,0,0,2.580545,scale,,,,,,0.302267034,0.244948974,0.2468,0.2,stimuli/lakes/603037_left.png,stimuli/lakes/603037_right.png,,,,0,67,67,37,1,,,,,
,,,,,,$5ee95070fff7862f9effecc6,2020-07-20_14h41.37.179,fisher_task,2020.1.3,Win32,60,-0.111805455,-0.295138901,1,0,0,1.800325,scale,,,,,,0.302267034,0.244948974,0.2468,0.2,stimuli/lakes/606076_left.png,stimuli/lakes/606076_right.png,,,,0,68,68,76,1,,,,,
,,,,,,$5ee95070fff7862f9effecc6,2020-07-20_14h41.37.179,fisher_task,2020.1.3,Win32,60,-0.136111011,-0.415277791,1,0,0,0.919875,scale,,,,,,0.302267034,0.244948974,0.2468,0.2,stimuli/lakes/6090126_left.png,stimuli/lakes/6090126_right.png,,,,0,69,69,126,1,,,,,
,,,,,,$5ee95070fff7862f9effecc6,2020-07-20_14h41.37.179,fisher_task,2020.1.3,Win32,60,-0.136111011,-0.415277791,1,0,0,0.519965,scale,,,,,,0.326485712,0.264575131,0.21373507,0.173205081,stimuli/lakes/7080117_left.png,stimuli/lakes/7080117_right.png,,,,0,70,70,117,1,,,,,
,,,,,,$5ee95070fff7862f9effecc6,2020-07-20_14h41.37.179,fisher_task,2020.1.3,Win32,60,-0.159722207,-0.422222236,1,0,0,1.26011,scale,,,,,,0.349027907,0.282842712,0.174513954,0.141421356,stimuli/lakes/806078_left.png,stimuli/lakes/806078_right.png,,,,0,71,71,78,1,,,,,
,,,,,,$5ee95070fff7862f9effecc6,2020-07-20_14h41.37.179,fisher_task,2020.1.3,Win32,60,-0.075694428,-0.265972234,1,0,0,2.260415,scale,,,,,,0.275930788,0.223606798,0.275930788,0.223606798,stimuli/lakes/5080113_left.png,stimuli/lakes/5080113_right.png,,,,0,72,72,113,1,,,,,
,,,,,,$5ee95070fff7862f9effecc6,2020-07-20_14h41.37.179,fisher_task,2020.1.3,Win32,60,-0.014583231,-0.265277789,1,0,0,3.000695,scale,,,,,,0.3702,0.3,0.1234,0.1,stimuli/lakes/902022_left.png,stimuli/lakes/902022_right.png,,,,0,73,73,22,1,,,,,
,,,,,,$5ee95070fff7862f9effecc6,2020-07-20_14h41.37.179,fisher_task,2020.1.3,Win32,60,-0.048611094,-0.265277789,1,0,0,3.641175,scale,,,,,,0.21373507,0.173205081,0.326485712,0.264575131,stimuli/lakes/307091_left.png,stimuli/lakes/307091_right.png,,,,0,74,74,91,1,,,,,
,,,,,,$5ee95070fff7862f9effecc6,2020-07-20_14h41.37.179,fisher_task,2020.1.3,Win32,60,0.145833353,-0.355555568,1,0,0,2.30042,scale,,,,,,0.1234,0.1,0.3702,0.3,stimuli/lakes/104041_left.png,stimuli/lakes/104041_right.png,,,,0,75,75,41,1,,,,,
,,,,,,$5ee95070fff7862f9effecc6,2020-07-20_14h41.37.179,fisher_task,2020.1.3,Win32,60,-0.090972121,-0.278472234,1,0,0,3.26123,scale,,,,,,0.349027907,0.282842712,0.174513954,0.141421356,stimuli/lakes/805069_left.png,stimuli/lakes/805069_right.png,,,,0,76,76,69,1,,,,,
,,,,,,$5ee95070fff7862f9effecc6,2020-07-20_14h41.37.179,fisher_task,2020.1.3,Win32,60,-0.09166665,-0.294444456,1,0,0,1.780345,scale,,,,,,0.2468,0.2,0.302267034,0.244948974,stimuli/lakes/407092_left.png,stimuli/lakes/407092_right.png,,,,0,77,77,92,1,,,,,
,,,,,,$5ee95070fff7862f9effecc6,2020-07-20_14h41.37.179,fisher_task,2020.1.3,Win32,60,0.154861131,-0.365972235,1,0,0,1.24023,scale,,,,,,0.275930788,0.223606798,0.275930788,0.223606798,stimuli/lakes/503036_left.png,stimuli/lakes/503036_right.png,,,,0,78,78,36,1,,,,,
,,,,,,$5ee95070fff7862f9effecc6,2020-07-20_14h41.37.179,fisher_task,2020.1.3,Win32,60,0.156944465,-0.383333346,1,0,0,1.140155,scale,,,,,,0.21373507,0.173205081,0.326485712,0.264575131,stimuli/lakes/304043_left.png,stimuli/lakes/304043_right.png,,,,0,79,79,43,1,,,,,
,,,,,,$5ee95070fff7862f9effecc6,2020-07-20_14h41.37.179,fisher_task,2020.1.3,Win32,60,-0.135416651,-0.377777791,1,0,0,1.520245,scale,,,,,,0.275930788,0.223606798,0.275930788,0.223606798,stimuli/lakes/506075_left.png,stimuli/lakes/506075_right.png,,,,0,80,80,75,1,,,,,
,,,,,,$5ee95070fff7862f9effecc6,2020-07-20_14h41.37.179,fisher_task,2020.1.3,Win32,60,-0.15555554,-0.377777791,1,0,0,2.280105,scale,,,,,,0.21373507,0.173205081,0.326485712,0.264575131,stimuli/lakes/3070100_left.png,stimuli/lakes/3070100_right.png,,,,0,81,81,100,1,,,,,
,,,,,,$5ee95070fff7862f9effecc6,2020-07-20_14h41.37.179,fisher_task,2020.1.3,Win32,60,0.176388994,-0.395138987,1,0,0,1.08033,scale,,,,,,0.2468,0.2,0.302267034,0.244948974,stimuli/lakes/40103_left.png,stimuli/lakes/40103_right.png,,,,0,82,82,3,1,,,,,
,,,,,,$5ee95070fff7862f9effecc6,2020-07-20_14h41.37.179,fisher_task,2020.1.3,Win32,60,-0.012499982,-0.259722234,1,0,0,3.640445,scale,,,,,,0.3702,0.3,0.1234,0.1,stimuli/lakes/903031_left.png,stimuli/lakes/903031_right.png,,,,0,83,83,31,1,,,,,
,,,,,,$5ee95070fff7862f9effecc6,2020-07-20_14h41.37.179,fisher_task,2020.1.3,Win32,60,-0.147222207,-0.32152779,1,0,0,2.660585,scale,,,,,,0.2468,0.2,0.302267034,0.244948974,stimuli/lakes/4090123_left.png,stimuli/lakes/4090123_right.png,,,,0,84,84,123,1,,,,,
,,,,,,$5ee95070fff7862f9effecc6,2020-07-20_14h41.37.179,fisher_task,2020.1.3,Win32,60,0.130555575,-0.314583345,1,0,0,2.840515,scale,,,,,,0.2468,0.2,0.302267034,0.244948974,stimuli/lakes/405064_left.png,stimuli/lakes/405064_right.png,,,,0,85,85,64,1,,,,,
,,,,,,$5ee95070fff7862f9effecc6,2020-07-20_14h41.37.179,fisher_task,2020.1.3,Win32,60,-0.154166651,-0.390972235,1,0,0,2.420385,scale,,,,,,0.275930788,0.223606798,0.275930788,0.223606798,stimuli/lakes/5090125_left.png,stimuli/lakes/5090125_right.png,,,,0,86,86,125,1,,,,,
,,,,,,$5ee95070fff7862f9effecc6,2020-07-20_14h41.37.179,fisher_task,2020.1.3,Win32,60,0.15555566,-0.368055568,1,0,0,1.160025,scale,,,,,,0.21373507,0.173205081,0.326485712,0.264575131,stimuli/lakes/30100_left.png,stimuli/lakes/30100_right.png,,,,0,87,87,0,1,,,,,
,,,,,,$5ee95070fff7862f9effecc6,2020-07-20_14h41.37.179,fisher_task,2020.1.3,Win32,60,-0.1499999,-0.32777779,1,0,0,1.940265,scale,,,,,,0.275930788,0.223606798,0.275930788,0.223606798,stimuli/lakes/507093_left.png,stimuli/lakes/507093_right.png,,,space,0,88,88,93,1,1.658735,,,,
,,,,,,$5ee95070fff7862f9effecc6,2020-07-20_14h41.37.179,fisher_task,2020.1.3,Win32,60,0.14375002,-0.354166679,1,0,0,1.10001,scale,,,,,,0.1234,0.1,0.3702,0.3,stimuli/lakes/105059_left.png,stimuli/lakes/105059_right.png,,,,0,89,89,59,1,,,,,
,,,,,,$5ee95070fff7862f9effecc6,2020-07-20_14h41.37.179,fisher_task,2020.1.3,Win32,60,0.054166685,-0.265277789,1,0,0,1.48025,scale,,,,,,0.1234,0.1,0.3702,0.3,stimuli/lakes/1080107_left.png,stimuli/lakes/1080107_right.png,,,,0,90,90,107,1,,,,,
,,,,,,$5ee95070fff7862f9effecc6,2020-07-20_14h41.37.179,fisher_task,2020.1.3,Win32,60,-0.003472204,-0.262500011,1,0,0,1.92041,scale,,,,,,0.174513954,0.141421356,0.349027907,0.282842712,stimuli/lakes/207090_left.png,stimuli/lakes/207090_right.png,,,,0,91,91,90,1,,,,,
,,,,,,$5ee95070fff7862f9effecc6,2020-07-20_14h41.37.179,fisher_task,2020.1.3,Win32,60,0.07916677,-0.275000012,1,0,0,2.78065,scale,,,,,,0.3702,0.3,0.1234,0.1,stimuli/lakes/901010_left.png,stimuli/lakes/901010_right.png,,,,0,92,92,10,1,,,,,
,,,,,,$5ee95070fff7862f9effecc6,2020-07-20_14h41.37.179,fisher_task,2020.1.3,Win32,60,0.053472241,-0.267361123,1,0,0,1.8004,scale,,,,,,0.1234,0.1,0.3702,0.3,stimuli/lakes/1090119_left.png,stimuli/lakes/1090119_right.png,,,,0,93,93,119,1,,,,,
,,,,,,$5ee95070fff7862f9effecc6,2020-07-20_14h41.37.179,fisher_task,2020.1.3,Win32,60,0.132638909,-0.367361124,1,0,0,1.9204,scale,,,,,,0.2468,0.2,0.302267034,0.244948974,stimuli/lakes/402014_left.png,stimuli/lakes/402014_right.png,,,,0,94,94,14,1,,,,,
,,,,,,$5ee95070fff7862f9effecc6,2020-07-20_14h41.37.179,fisher_task,2020.1.3,Win32,60,-0.004861093,-0.256250011,1,0,0,2.76061,scale,,,,,,0.302267034,0.244948974,0.2468,0.2,stimuli/lakes/602018_left.png,stimuli/lakes/602018_right.png,,,,0,95,95,18,1,,,,,
,,,,,,$5ee95070fff7862f9effecc6,2020-07-20_14h41.37.179,fisher_task,2020.1.3,Win32,60,0.110416771,-0.32152779,1,0,0,1.420265,scale,,,,,,0.21373507,0.173205081,0.326485712,0.264575131,stimuli/lakes/305061_left.png,stimuli/lakes/305061_right.png,,,,0,96,96,61,1,,,,,
,,,,,,$5ee95070fff7862f9effecc6,2020-07-20_14h41.37.179,fisher_task,2020.1.3,Win32,60,0.052777796,-0.285416678,1,0,0,1.98035,scale,,,,,,0.349027907,0.282842712,0.174513954,0.141421356,stimuli/lakes/802021_left.png,stimuli/lakes/802021_right.png,,,,0,97,97,21,1,,,,,
,,,,,,$5ee95070fff7862f9effecc6,2020-07-20_14h41.37.179,fisher_task,2020.1.3,Win32,60,0.111111131,-0.297222234,1,0,0,2.96069,scale,,,,,,0.21373507,0.173205081,0.326485712,0.264575131,stimuli/lakes/306073_left.png,stimuli/lakes/306073_right.png,,,,0,98,98,73,1,,,,,
,,,,,,$5ee95070fff7862f9effecc6,2020-07-20_14h41.37.179,fisher_task,2020.1.3,Win32,60,-0.062499983,-0.269444456,1,0,0,2.54066,scale,,,,,,0.2468,0.2,0.302267034,0.244948974,stimuli/lakes/4070101_left.png,stimuli/lakes/4070101_right.png,,,,0,99,99,101,1,,,,,
,,,,,,$5ee95070fff7862f9effecc6,2020-07-20_14h41.37.179,fisher_task,2020.1.3,Win32,60,0.145138994,-0.381944458,1,0,0,1.060145,scale,,,,,,0.21373507,0.173205081,0.326485712,0.264575131,stimuli/lakes/302012_left.png,stimuli/lakes/302012_right.png,,,,0,100,100,12,1,,,,,
,,,,,,$5ee95070fff7862f9effecc6,2020-07-20_14h41.37.179,fisher_task,2020.1.3,Win32,60,-0.140972207,-0.392361124,1,0,0,1.420355,scale,,,,,,0.349027907,0.282842712,0.174513954,0.141421356,stimuli/lakes/806087_left.png,stimuli/lakes/806087_right.png,,,,0,101,101,87,1,,,,,
,,,,,,$5ee95070fff7862f9effecc6,2020-07-20_14h41.37.179,fisher_task,2020.1.3,Win32,60,-0.054861094,-0.265277789,1,0,0,3.78064,scale,,,,,,0.21373507,0.173205081,0.326485712,0.264575131,stimuli/lakes/3090122_left.png,stimuli/lakes/3090122_right.png,,,,0,102,102,122,1,,,,,
,,,,,,$5ee95070fff7862f9effecc6,2020-07-20_14h41.37.179,fisher_task,2020.1.3,Win32,60,-0.051388872,-0.258333345,1,0,0,2.060405,scale,,,,,,0.174513954,0.141421356,0.349027907,0.282842712,stimuli/lakes/2080108_left.png,stimuli/lakes/2080108_right.png,,,,0,103,103,108,1,,,,,
,,,,,,$5ee95070fff7862f9effecc6,2020-07-20_14h41.37.179,fisher_task,2020.1.3,Win32,60,0.054166685,-0.272222234,1,0,0,1.900275,scale,,,,,,0.302267034,0.244948974,0.2468,0.2,stimuli/lakes/60106_left.png,stimuli/lakes/60106_right.png,,,,0,104,104,6,1,,,,,
,,,,,,$5ee95070fff7862f9effecc6,2020-07-20_14h41.37.179,fisher_task,2020.1.3,Win32,60,0.068055574,-0.277083345,1,0,0,1.459885,scale,,,,,,0.2468,0.2,0.302267034,0.244948974,stimuli/lakes/403026_left.png,stimuli/lakes/403026_right.png,,,,0,105,105,26,1,,,,,
,,,,,,$5ee95070fff7862f9effecc6,2020-07-20_14h41.37.179,fisher_task,2020.1.3,Win32,60,-0.142361095,-0.368750013,1,0,0,1.440155,scale,,,,,,0.349027907,0.282842712,0.174513954,0.141421356,stimuli/lakes/807096_left.png,stimuli/lakes/807096_right.png,,,,0,106,106,96,1,,,,,
,,,,,,$5ee95070fff7862f9effecc6,2020-07-20_14h41.37.179,fisher_task,2020.1.3,Win32,60,0.038888907,-0.2576389,1,0,0,4.220905,scale,,,,,,0.2468,0.2,0.302267034,0.244948974,stimuli/lakes/406083_left.png,stimuli/lakes/406083_right.png,,,,0,107,107,83,1,,,,,
,,,,,,$5ee95070fff7862f9effecc6,2020-07-20_14h41.37.179,fisher_task,2020.1.3,Win32,60,-0.141666651,-0.408333347,1,0,0,1.080175,scale,,,,,,0.326485712,0.264575131,0.21373507,0.173205081,stimuli/lakes/7090129_left.png,stimuli/lakes/7090129_right.png,,,,0,108,108,129,1,,,,,
,,,,,,$5ee95070fff7862f9effecc6,2020-07-20_14h41.37.179,fisher_task,2020.1.3,Win32,60,-0.101388788,-0.315972234,1,0,0,1.66048,scale,,,,,,0.326485712,0.264575131,0.21373507,0.173205081,stimuli/lakes/704047_left.png,stimuli/lakes/704047_right.png,,,,0,109,109,47,1,,,,,
,,,,,,$5ee95070fff7862f9effecc6,2020-07-20_14h41.37.179,fisher_task,2020.1.3,Win32,60,-0.075694428,-0.279861123,1,0,0,4.600975,scale,,,,,,0.1234,0.1,0.3702,0.3,stimuli/lakes/107089_left.png,stimuli/lakes/107089_right.png,,,space,0,110,110,89,1,1.479025,,,,
,,,,,,$5ee95070fff7862f9effecc6,2020-07-20_14h41.37.179,fisher_task,2020.1.3,Win32,60,-0.138194429,-0.336111124,1,0,0,2.280505,scale,,,,,,0.174513954,0.141421356,0.349027907,0.282842712,stimuli/lakes/2090120_left.png,stimuli/lakes/2090120_right.png,,,,0,111,111,120,1,,,,,
,,,,,,$5ee95070fff7862f9effecc6,2020-07-20_14h41.37.179,fisher_task,2020.1.3,Win32,60,-0.138194429,-0.336111124,1,0,0,0.72026,scale,,,,,,0.349027907,0.282842712,0.174513954,0.141421356,stimuli/lakes/8080118_left.png,stimuli/lakes/8080118_right.png,,,,0,112,112,118,1,,,,,
,,,,,,$5ee95070fff7862f9effecc6,2020-07-20_14h41.37.179,fisher_task,2020.1.3,Win32,60,0.162500105,-0.395833347,1,0,0,1.76047,scale,,,,,,0.1234,0.1,0.3702,0.3,stimuli/lakes/104050_left.png,stimuli/lakes/104050_right.png,,,,0,113,113,50,1,,,,,
,,,,,,$5ee95070fff7862f9effecc6,2020-07-20_14h41.37.179,fisher_task,2020.1.3,Win32,60,-0.135416651,-0.347916679,1,0,0,2.12012,scale,,,,,,0.326485712,0.264575131,0.21373507,0.173205081,stimuli/lakes/705068_left.png,stimuli/lakes/705068_right.png,,,,0,114,114,68,1,,,,,
,,,,,,$5ee95070fff7862f9effecc6,2020-07-20_14h41.37.179,fisher_task,2020.1.3,Win32,60,-0.147222207,-0.41041668,1,0,0,1.46007,scale,,,,,,0.326485712,0.264575131,0.21373507,0.173205081,stimuli/lakes/7090128_left.png,stimuli/lakes/7090128_right.png,,,,0,115,115,128,1,,,,,
,,,,,,$5ee95070fff7862f9effecc6,2020-07-20_14h41.37.179,fisher_task,2020.1.3,Win32,60,0.146527798,-0.367361124,1,0,0,1.4802,scale,,,,,,0.174513954,0.141421356,0.349027907,0.282842712,stimuli/lakes/204042_left.png,stimuli/lakes/204042_right.png,,,,0,116,116,42,1,,,,,
,,,,,,$5ee95070fff7862f9effecc6,2020-07-20_14h41.37.179,fisher_task,2020.1.3,Win32,60,0.087500019,-0.293055567,1,0,0,1.62026,scale,,,,,,0.349027907,0.282842712,0.174513954,0.141421356,stimuli/lakes/804057_left.png,stimuli/lakes/804057_right.png,,,,0,117,117,57,1,,,,,
,,,,,,$5ee95070fff7862f9effecc6,2020-07-20_14h41.37.179,fisher_task,2020.1.3,Win32,60,-0.13055554,-0.313888901,1,0,0,1.500155,scale,,,,,,0.326485712,0.264575131,0.21373507,0.173205081,stimuli/lakes/706077_left.png,stimuli/lakes/706077_right.png,,,,0,118,118,77,1,,,,,
,,,,,,$5ee95070fff7862f9effecc6,2020-07-20_14h41.37.179,fisher_task,2020.1.3,Win32,60,0.077083352,-0.273611123,1,0,0,3.18077,scale,,,,,,0.302267034,0.244948974,0.2468,0.2,stimuli/lakes/60105_left.png,stimuli/lakes/60105_right.png,,,,0,119,119,5,1,,,,,
,,,,,,$5ee95070fff7862f9effecc6,2020-07-20_14h41.37.179,fisher_task,2020.1.3,Win32,60,0.052777796,-0.270833345,1,0,0,3.72083,scale,,,,,,0.3702,0.3,0.1234,0.1,stimuli/lakes/903040_left.png,stimuli/lakes/903040_right.png,,,,0,120,120,40,1,,,,,
,,,,,,$5ee95070fff7862f9effecc6,2020-07-20_14h41.37.179,fisher_task,2020.1.3,Win32,60,0.084722241,-0.290972234,1,0,0,1.680385,scale,,,,,,0.302267034,0.244948974,0.2468,0.2,stimuli/lakes/602017_left.png,stimuli/lakes/602017_right.png,,,,0,121,121,17,1,,,,,
,,,,,,$5ee95070fff7862f9effecc6,2020-07-20_14h41.37.179,fisher_task,2020.1.3,Win32,60,-0.083333317,-0.283333345,1,0,0,1.760365,scale,,,,,,0.326485712,0.264575131,0.21373507,0.173205081,stimuli/lakes/707095_left.png,stimuli/lakes/707095_right.png,,,,0,122,122,95,1,,,,,
,,,,,,$5ee95070fff7862f9effecc6,2020-07-20_14h41.37.179,fisher_task,2020.1.3,Win32,60,0.13750002,-0.356944457,1,0,0,1.46015,scale,,,,,,0.2468,0.2,0.302267034,0.244948974,stimuli/lakes/404053_left.png,stimuli/lakes/404053_right.png,,,,0,123,123,53,1,,,,,
,,,,,,$5ee95070fff7862f9effecc6,2020-07-20_14h41.37.179,fisher_task,2020.1.3,Win32,60,0.153472242,-0.422222236,1,0,0,1.080175,scale,,,,,,0.1234,0.1,0.3702,0.3,stimuli/lakes/103023_left.png,stimuli/lakes/103023_right.png,,,,0,124,124,23,1,,,,,
,,,,,,$5ee95070fff7862f9effecc6,2020-07-20_14h41.37.179,fisher_task,2020.1.3,Win32,60,0.070138908,-0.273611123,1,0,0,3.0407,scale,,,,,,0.326485712,0.264575131,0.21373507,0.173205081,stimuli/lakes/702019_left.png,stimuli/lakes/702019_right.png,,,,0,125,125,19,1,,,,,
,,,,,,$5ee95070fff7862f9effecc6,2020-07-20_14h41.37.179,fisher_task,2020.1.3,Win32,60,0.152083438,-0.392361124,1,0,0,1.32021,scale,,,,,,0.2468,0.2,0.302267034,0.244948974,stimuli/lakes/404044_left.png,stimuli/lakes/404044_right.png,,,,0,126,126,44,1,,,,,
,,,,,,$5ee95070fff7862f9effecc6,2020-07-20_14h41.37.179,fisher_task,2020.1.3,Win32,60,-0.134722206,-0.347222235,1,0,0,1.38021,scale,,,,,,0.302267034,0.244948974,0.2468,0.2,stimuli/lakes/6080115_left.png,stimuli/lakes/6080115_right.png,,,,0,127,127,115,1,,,,,
,,,,,,$5ee95070fff7862f9effecc6,2020-07-20_14h41.37.179,fisher_task,2020.1.3,Win32,60,-0.138888873,-0.393055569,1,0,0,1.34022,scale,,,,,,0.349027907,0.282842712,0.174513954,0.141421356,stimuli/lakes/8070105_left.png,stimuli/lakes/8070105_right.png,,,,0,128,128,105,1,,,,,
,,,,,,$5ee95070fff7862f9effecc6,2020-07-20_14h41.37.179,fisher_task,2020.1.3,Win32,60,0.178472243,-0.405555654,1,0,0,1.400275,scale,,,,,,0.174513954,0.141421356,0.349027907,0.282842712,stimuli/lakes/202011_left.png,stimuli/lakes/202011_right.png,,,,0,129,129,11,1,,,,,
,,,,,,$5ee95070fff7862f9effecc6,2020-07-20_14h41.37.179,fisher_task,2020.1.3,Win32,60,,,,,,,,,,,,,,,,,,,,,,,,,,,,space,3.612895,space,18.99479
