keySpace.keys,instructions.thisRepN,instructions.thisTrialN,instructions.thisN,instructions.thisIndex,instructions.ran,participant,date,expName,psychopyVersion,OS,frameRate,mouse.x,mouse.y,mouse.leftButton,mouse.midButton,mouse.rightButton,mouse.time,mouse.clicked_name,training.thisRepN,training.thisTrialN,training.thisN,training.thisIndex,training.ran,widthBasketLeft,heightBasketLeft,widthBasketRight,heightBasketRight,leftLake,rightLake,space2.keys,space2.rt,space1.keys,trials.thisRepN,trials.thisTrialN,trials.thisN,trials.thisIndex,trials.ran,space1.rt,finalSpace1.keys,finalSpace1.rt,finalSpace2.keys,finalSpace2.rt
,0,0,0,0,1,$5d120851e17acf00019be14a,2020-07-20_14h47.46.384,fisher_task,2020.1.3,Win32,60,,,,,,,,,,,,,,,,,,,,,,,,,,,,,,,
,,,,,,$5d120851e17acf00019be14a,2020-07-20_14h47.46.384,fisher_task,2020.1.3,Win32,60,0.068518519,-0.29537037,1,0,0,4.29572,scale,0,0,0,0,1,0.275930788,0.223606798,0.275930788,0.223606798,stimuli/training/20_left.png,stimuli/training/20_right.png,,,,,,,,,,,,,
,,,,,,$5d120851e17acf00019be14a,2020-07-20_14h47.46.384,fisher_task,2020.1.3,Win32,60,-0.112037037,-0.297222222,1,0,0,1.91445,scale,0,1,1,1,1,0.275930788,0.223606798,0.275930788,0.223606798,stimuli/training/80_left.png,stimuli/training/80_right.png,,,,,,,,,,,,,
,,,,,,$5d120851e17acf00019be14a,2020-07-20_14h47.46.384,fisher_task,2020.1.3,Win32,60,0.128703704,-0.328703704,1,0,0,4.246125,scale,0,2,2,2,1,0.174513954,0.141421356,0.349027907,0.282842712,stimuli/training/50_left.png,stimuli/training/50_right.png,,,,,,,,,,,,,
,,,,,,$5d120851e17acf00019be14a,2020-07-20_14h47.46.384,fisher_task,2020.1.3,Win32,60,0.089814815,-0.328703704,1,0,0,3.446805,scale,0,3,3,3,1,0.349027907,0.282842712,0.174513954,0.141421356,stimuli/training/50_left.png,stimuli/training/50_right.png,,,,,,,,,,,,,
,,,,,,$5d120851e17acf00019be14a,2020-07-20_14h47.46.384,fisher_task,2020.1.3,Win32,60,0.14537037,-0.325,1,0,0,3.49665,scale,0,4,4,4,1,0.275930788,0.223606798,0.275930788,0.223606798,stimuli/training/50_left.png,stimuli/training/50_right.png,,,,,,,,,,,,,
,,,,,,$5d120851e17acf00019be14a,2020-07-20_14h47.46.384,fisher_task,2020.1.3,Win32,60,0.162037037,-0.414814815,1,0,0,1.748065,scale,0,5,5,5,1,0.174513954,0.141421356,0.349027907,0.282842712,stimuli/training/20_left.png,stimuli/training/20_right.png,,,,,,,,,,,,,
,,,,,,$5d120851e17acf00019be14a,2020-07-20_14h47.46.384,fisher_task,2020.1.3,Win32,60,-0.139814815,-0.414814815,1,0,0,1.63243,scale,0,6,6,6,1,0.349027907,0.282842712,0.174513954,0.141421356,stimuli/training/80_left.png,stimuli/training/80_right.png,,,,,,,,,,,,,
,,,,,,$5d120851e17acf00019be14a,2020-07-20_14h47.46.384,fisher_task,2020.1.3,Win32,60,0.128703704,-0.419444444,1,0,0,1.548355,scale,0,7,7,7,1,0.1234,0.1,0.3702,0.3,stimuli/training/30_left.png,stimuli/training/30_right.png,,,,,,,,,,,,,
,,,,,,$5d120851e17acf00019be14a,2020-07-20_14h47.46.384,fisher_task,2020.1.3,Win32,60,-0.162037037,-0.419444444,1,0,0,1.56303,scale,0,8,8,8,1,0.3702,0.3,0.1234,0.1,stimuli/training/70_left.png,stimuli/training/70_right.png,,,,,,,,,,,,,
,,,,,,$5d120851e17acf00019be14a,2020-07-20_14h47.46.384,fisher_task,2020.1.3,Win32,60,-0.147222222,-0.42962963,1,0,0,1.781685,scale,0,9,9,9,1,0.326485712,0.264575131,0.21373507,0.173205081,stimuli/training/90_left.png,stimuli/training/90_right.png,,,,,,,,,,,,,
,,,,,,$5d120851e17acf00019be14a,2020-07-20_14h47.46.384,fisher_task,2020.1.3,Win32,60,0.150925926,-0.409259259,1,0,0,1.89817,scale,0,10,10,10,1,0.21373507,0.173205081,0.326485712,0.264575131,stimuli/training/10_left.png,stimuli/training/10_right.png,,,,,,,,,,,,,
,,,,,,$5d120851e17acf00019be14a,2020-07-20_14h47.46.384,fisher_task,2020.1.3,Win32,60,-0.150925926,-0.375925926,1,0,0,1.764815,scale,,,,,,0.302267034,0.244948974,0.2468,0.2,stimuli/lakes/6080114_left.png,stimuli/lakes/6080114_right.png,space,3.171635,,0,0,0,114,1,,,,,
,,,,,,$5d120851e17acf00019be14a,2020-07-20_14h47.46.384,fisher_task,2020.1.3,Win32,60,-0.001851852,-0.269444444,1,0,0,1.665035,scale,,,,,,0.21373507,0.173205081,0.326485712,0.264575131,stimuli/lakes/3070100_left.png,stimuli/lakes/3070100_right.png,,,,0,1,1,100,1,,,,,
,,,,,,$5d120851e17acf00019be14a,2020-07-20_14h47.46.384,fisher_task,2020.1.3,Win32,60,0.089814815,-0.301851852,1,0,0,1.64699,scale,,,,,,0.275930788,0.223606798,0.275930788,0.223606798,stimuli/lakes/504045_left.png,stimuli/lakes/504045_right.png,,,,0,2,2,45,1,,,,,
,,,,,,$5d120851e17acf00019be14a,2020-07-20_14h47.46.384,fisher_task,2020.1.3,Win32,60,-0.024074074,-0.224074074,1,0,0,0.332725,scale,,,,,,0.302267034,0.244948974,0.2468,0.2,stimuli/lakes/602018_left.png,stimuli/lakes/602018_right.png,,,,0,3,3,18,1,,,,,
,,,,,,$5d120851e17acf00019be14a,2020-07-20_14h47.46.384,fisher_task,2020.1.3,Win32,60,0.009259259,-0.213888889,1,0,0,2.66416,scale,,,,,,0.275930788,0.223606798,0.275930788,0.223606798,stimuli/lakes/504054_left.png,stimuli/lakes/504054_right.png,,,,0,4,4,54,1,,,,,
,,,,,,$5d120851e17acf00019be14a,2020-07-20_14h47.46.384,fisher_task,2020.1.3,Win32,60,-0.114814815,-0.312037037,1,0,0,2.73056,scale,,,,,,0.326485712,0.264575131,0.21373507,0.173205081,stimuli/lakes/705067_left.png,stimuli/lakes/705067_right.png,,,,0,5,5,67,1,,,,,
,,,,,,$5d120851e17acf00019be14a,2020-07-20_14h47.46.384,fisher_task,2020.1.3,Win32,60,0.073148148,-0.285185185,1,0,0,2.231345,scale,,,,,,0.3702,0.3,0.1234,0.1,stimuli/lakes/901010_left.png,stimuli/lakes/901010_right.png,,,,0,6,6,10,1,,,,,
,,,,,,$5d120851e17acf00019be14a,2020-07-20_14h47.46.384,fisher_task,2020.1.3,Win32,60,-0.137962963,-0.355555556,1,0,0,2.28173,scale,,,,,,0.326485712,0.264575131,0.21373507,0.173205081,stimuli/lakes/706077_left.png,stimuli/lakes/706077_right.png,,,,0,7,7,77,1,,,,,
,,,,,,$5d120851e17acf00019be14a,2020-07-20_14h47.46.384,fisher_task,2020.1.3,Win32,60,-0.01560181,-0.273148185,1,0,0,2.632035,scale,,,,,,0.174513954,0.141421356,0.349027907,0.282842712,stimuli/lakes/2080108_left.png,stimuli/lakes/2080108_right.png,,,,0,8,8,108,1,,,,,
,,,,,,$5d120851e17acf00019be14a,2020-07-20_14h47.46.384,fisher_task,2020.1.3,Win32,60,-0.125787001,-0.332407447,1,0,0,1.714945,scale,,,,,,0.275930788,0.223606798,0.275930788,0.223606798,stimuli/lakes/506084_left.png,stimuli/lakes/506084_right.png,,,,0,9,9,84,1,,,,,
,,,,,,$5d120851e17acf00019be14a,2020-07-20_14h47.46.384,fisher_task,2020.1.3,Win32,60,-0.173009225,-0.401851951,1,0,0,2.26465,scale,,,,,,0.3702,0.3,0.1234,0.1,stimuli/lakes/906088_left.png,stimuli/lakes/906088_right.png,,,,0,10,10,88,1,,,,,
,,,,,,$5d120851e17acf00019be14a,2020-07-20_14h47.46.384,fisher_task,2020.1.3,Win32,60,0.1131019,-0.300000095,1,0,0,1.581685,scale,,,,,,0.2468,0.2,0.302267034,0.244948974,stimuli/lakes/404044_left.png,stimuli/lakes/404044_right.png,,,,0,11,11,44,1,,,,,
,,,,,,$5d120851e17acf00019be14a,2020-07-20_14h47.46.384,fisher_task,2020.1.3,Win32,60,-0.165601817,-0.387037079,1,0,0,1.24875,scale,,,,,,0.302267034,0.244948974,0.2468,0.2,stimuli/lakes/607094_left.png,stimuli/lakes/607094_right.png,,,,0,12,12,94,1,,,,,
,,,,,,$5d120851e17acf00019be14a,2020-07-20_14h47.46.384,fisher_task,2020.1.3,Win32,60,0.064027823,-0.250925962,1,0,0,3.579915,scale,,,,,,0.174513954,0.141421356,0.349027907,0.282842712,stimuli/lakes/205060_left.png,stimuli/lakes/205060_right.png,,,,0,13,13,60,1,,,,,
,,,,,,$5d120851e17acf00019be14a,2020-07-20_14h47.46.384,fisher_task,2020.1.3,Win32,60,0.127916715,-0.335185282,1,0,0,3.7466,scale,,,,,,0.1234,0.1,0.3702,0.3,stimuli/lakes/106071_left.png,stimuli/lakes/106071_right.png,,,,0,14,14,71,1,,,,,
,,,,,,$5d120851e17acf00019be14a,2020-07-20_14h47.46.384,fisher_task,2020.1.3,Win32,60,0.102916714,-0.293518613,1,0,0,1.86465,scale,,,,,,0.275930788,0.223606798,0.275930788,0.223606798,stimuli/lakes/503036_left.png,stimuli/lakes/503036_right.png,,,,0,15,15,36,1,,,,,
,,,,,,$5d120851e17acf00019be14a,2020-07-20_14h47.46.384,fisher_task,2020.1.3,Win32,60,0.162175976,-0.371296394,1,0,0,1.215475,scale,,,,,,0.2468,0.2,0.302267034,0.244948974,stimuli/lakes/402015_left.png,stimuli/lakes/402015_right.png,,,,0,16,16,15,1,,,,,
,,,,,,$5d120851e17acf00019be14a,2020-07-20_14h47.46.384,fisher_task,2020.1.3,Win32,60,-0.079490702,-0.279629667,1,0,0,2.18192,scale,,,,,,0.349027907,0.282842712,0.174513954,0.141421356,stimuli/lakes/804048_left.png,stimuli/lakes/804048_right.png,,,,0,17,17,48,1,,,,,
,,,,,,$5d120851e17acf00019be14a,2020-07-20_14h47.46.384,fisher_task,2020.1.3,Win32,60,-0.008194346,-0.269444481,1,0,0,2.04698,scale,,,,,,0.2468,0.2,0.302267034,0.244948974,stimuli/lakes/405063_left.png,stimuli/lakes/405063_right.png,,,,0,18,18,63,1,,,,,
,,,,,,$5d120851e17acf00019be14a,2020-07-20_14h47.46.384,fisher_task,2020.1.3,Win32,60,-0.090601814,-0.312037132,1,0,0,1.798125,scale,,,,,,0.2468,0.2,0.302267034,0.244948974,stimuli/lakes/4090123_left.png,stimuli/lakes/4090123_right.png,,,,0,19,19,123,1,,,,,
,,,,,,$5d120851e17acf00019be14a,2020-07-20_14h47.46.384,fisher_task,2020.1.3,Win32,60,-0.173935151,-0.396296396,1,0,0,1.297735,scale,,,,,,0.326485712,0.264575131,0.21373507,0.173205081,stimuli/lakes/7090128_left.png,stimuli/lakes/7090128_right.png,,,,0,20,20,128,1,,,,,
,,,,,,$5d120851e17acf00019be14a,2020-07-20_14h47.46.384,fisher_task,2020.1.3,Win32,60,0.014953747,-0.235185277,1,0,0,1.99703,scale,,,,,,0.326485712,0.264575131,0.21373507,0.173205081,stimuli/lakes/70108_left.png,stimuli/lakes/70108_right.png,,,,0,21,21,8,1,,,,,
,,,,,,$5d120851e17acf00019be14a,2020-07-20_14h47.46.384,fisher_task,2020.1.3,Win32,60,0.008472322,-0.267592629,1,0,0,3.129075,scale,,,,,,0.326485712,0.264575131,0.21373507,0.173205081,stimuli/lakes/704047_left.png,stimuli/lakes/704047_right.png,,,space,0,22,22,47,1,3.353225,,,,
,,,,,,$5d120851e17acf00019be14a,2020-07-20_14h47.46.384,fisher_task,2020.1.3,Win32,60,0.032546397,-0.265740777,1,0,0,0.364935,scale,,,,,,0.1234,0.1,0.3702,0.3,stimuli/lakes/103032_left.png,stimuli/lakes/103032_right.png,,,,0,23,23,32,1,,,,,
,,,,,,$5d120851e17acf00019be14a,2020-07-20_14h47.46.384,fisher_task,2020.1.3,Win32,60,-0.123009223,-0.319444484,1,0,0,1.264685,scale,,,,,,0.302267034,0.244948974,0.2468,0.2,stimuli/lakes/6070103_left.png,stimuli/lakes/6070103_right.png,,,,0,24,24,103,1,,,,,
,,,,,,$5d120851e17acf00019be14a,2020-07-20_14h47.46.384,fisher_task,2020.1.3,Win32,60,-0.134120334,-0.394444487,1,0,0,1.41427,scale,,,,,,0.3702,0.3,0.1234,0.1,stimuli/lakes/9070106_left.png,stimuli/lakes/9070106_right.png,,,,0,25,25,106,1,,,,,
,,,,,,$5d120851e17acf00019be14a,2020-07-20_14h47.46.384,fisher_task,2020.1.3,Win32,60,-0.005416625,-0.262037073,1,0,0,3.07991,scale,,,,,,0.349027907,0.282842712,0.174513954,0.141421356,stimuli/lakes/802021_left.png,stimuli/lakes/802021_right.png,,,,0,26,26,21,1,,,,,
,,,,,,$5d120851e17acf00019be14a,2020-07-20_14h47.46.384,fisher_task,2020.1.3,Win32,60,-0.154490706,-0.381481524,1,0,0,2.8309,scale,,,,,,0.21373507,0.173205081,0.326485712,0.264575131,stimuli/lakes/3080110_left.png,stimuli/lakes/3080110_right.png,,,,0,27,27,110,1,,,,,
,,,,,,$5d120851e17acf00019be14a,2020-07-20_14h47.46.384,fisher_task,2020.1.3,Win32,60,0.151064864,-0.335185282,1,0,0,1.364975,scale,,,,,,0.2468,0.2,0.302267034,0.244948974,stimuli/lakes/402014_left.png,stimuli/lakes/402014_right.png,,,,0,28,28,14,1,,,,,
,,,,,,$5d120851e17acf00019be14a,2020-07-20_14h47.46.384,fisher_task,2020.1.3,Win32,60,-0.05541657,-0.284259297,1,0,0,4.24596,scale,,,,,,0.326485712,0.264575131,0.21373507,0.173205081,stimuli/lakes/7070104_left.png,stimuli/lakes/7070104_right.png,,,,0,29,29,104,1,,,,,
,,,,,,$5d120851e17acf00019be14a,2020-07-20_14h47.46.384,fisher_task,2020.1.3,Win32,60,0.077916713,-0.275000093,1,0,0,3.37996,scale,,,,,,0.3702,0.3,0.1234,0.1,stimuli/lakes/903040_left.png,stimuli/lakes/903040_right.png,,,,0,30,30,40,1,,,,,
,,,,,,$5d120851e17acf00019be14a,2020-07-20_14h47.46.384,fisher_task,2020.1.3,Win32,60,-0.005416625,-0.257407444,1,0,0,2.813255,scale,,,,,,0.3702,0.3,0.1234,0.1,stimuli/lakes/904058_left.png,stimuli/lakes/904058_right.png,,,,0,31,31,58,1,,,,,
,,,,,,$5d120851e17acf00019be14a,2020-07-20_14h47.46.384,fisher_task,2020.1.3,Win32,60,-0.003564716,-0.257407444,1,0,0,1.897835,scale,,,,,,0.2468,0.2,0.302267034,0.244948974,stimuli/lakes/40102_left.png,stimuli/lakes/40102_right.png,,,,0,32,32,2,1,,,,,
,,,,,,$5d120851e17acf00019be14a,2020-07-20_14h47.46.384,fisher_task,2020.1.3,Win32,60,-0.111898055,-0.325000096,1,0,0,2.24791,scale,,,,,,0.275930788,0.223606798,0.275930788,0.223606798,stimuli/lakes/5090125_left.png,stimuli/lakes/5090125_right.png,,,,0,33,33,125,1,,,,,
,,,,,,$5d120851e17acf00019be14a,2020-07-20_14h47.46.384,fisher_task,2020.1.3,Win32,60,0.064027823,-0.282407445,1,0,0,1.58135,scale,,,,,,0.349027907,0.282842712,0.174513954,0.141421356,stimuli/lakes/803039_left.png,stimuli/lakes/803039_right.png,,,,0,34,34,39,1,,,,,
,,,,,,$5d120851e17acf00019be14a,2020-07-20_14h47.46.384,fisher_task,2020.1.3,Win32,60,-0.005416625,-0.275000093,1,0,0,2.41439,scale,,,,,,0.1234,0.1,0.3702,0.3,stimuli/lakes/1090119_left.png,stimuli/lakes/1090119_right.png,,,,0,35,35,119,1,,,,,
,,,,,,$5d120851e17acf00019be14a,2020-07-20_14h47.46.384,fisher_task,2020.1.3,Win32,60,-0.0600462,-0.300000095,1,0,0,2.047845,scale,,,,,,0.1234,0.1,0.3702,0.3,stimuli/lakes/107089_left.png,stimuli/lakes/107089_right.png,,,,0,36,36,89,1,,,,,
,,,,,,$5d120851e17acf00019be14a,2020-07-20_14h47.46.384,fisher_task,2020.1.3,Win32,60,-0.09152774,-0.287963001,1,0,0,1.363845,scale,,,,,,0.174513954,0.141421356,0.349027907,0.282842712,stimuli/lakes/206072_left.png,stimuli/lakes/206072_right.png,,,,0,37,37,72,1,,,,,
,,,,,,$5d120851e17acf00019be14a,2020-07-20_14h47.46.384,fisher_task,2020.1.3,Win32,60,0.122361159,-0.358333374,1,0,0,1.99767,scale,,,,,,0.21373507,0.173205081,0.326485712,0.264575131,stimuli/lakes/303025_left.png,stimuli/lakes/303025_right.png,,,,0,38,38,25,1,,,,,
,,,,,,$5d120851e17acf00019be14a,2020-07-20_14h47.46.384,fisher_task,2020.1.3,Win32,60,-0.07300922,-0.251851944,1,0,0,2.11463,scale,,,,,,0.349027907,0.282842712,0.174513954,0.141421356,stimuli/lakes/804057_left.png,stimuli/lakes/804057_right.png,,,,0,39,39,57,1,,,,,
,,,,,,$5d120851e17acf00019be14a,2020-07-20_14h47.46.384,fisher_task,2020.1.3,Win32,60,0.087175972,-0.31111115,1,0,0,1.16523,scale,,,,,,0.174513954,0.141421356,0.349027907,0.282842712,stimuli/lakes/207099_left.png,stimuli/lakes/207099_right.png,,,,0,40,40,99,1,,,,,
,,,,,,$5d120851e17acf00019be14a,2020-07-20_14h47.46.384,fisher_task,2020.1.3,Win32,60,0.096435232,-0.341666763,1,0,0,1.032255,scale,,,,,,0.1234,0.1,0.3702,0.3,stimuli/lakes/104050_left.png,stimuli/lakes/104050_right.png,,,,0,41,41,50,1,,,,,
,,,,,,$5d120851e17acf00019be14a,2020-07-20_14h47.46.384,fisher_task,2020.1.3,Win32,60,-0.067453665,-0.290740778,1,0,0,1.3155,scale,,,,,,0.21373507,0.173205081,0.326485712,0.264575131,stimuli/lakes/307091_left.png,stimuli/lakes/307091_right.png,,,,0,42,42,91,1,,,,,
,,,,,,$5d120851e17acf00019be14a,2020-07-20_14h47.46.384,fisher_task,2020.1.3,Win32,60,-0.09152774,-0.304629668,1,0,0,1.28201,scale,,,,,,0.275930788,0.223606798,0.275930788,0.223606798,stimuli/lakes/5080113_left.png,stimuli/lakes/5080113_right.png,,,,0,43,43,113,1,,,,,
,,,,,,$5d120851e17acf00019be14a,2020-07-20_14h47.46.384,fisher_task,2020.1.3,Win32,60,-0.000786938,-0.236111146,1,0,0,1.613615,scale,,,,,,0.2468,0.2,0.302267034,0.244948974,stimuli/lakes/406083_left.png,stimuli/lakes/406083_right.png,,,space,0,44,44,83,1,2.264945,,,,
,,,,,,$5d120851e17acf00019be14a,2020-07-20_14h47.46.384,fisher_task,2020.1.3,Win32,60,-0.157268484,-0.394444487,1,0,0,0.91494,scale,,,,,,0.3702,0.3,0.1234,0.1,stimuli/lakes/906079_left.png,stimuli/lakes/906079_right.png,,,,0,45,45,79,1,,,,,
,,,,,,$5d120851e17acf00019be14a,2020-07-20_14h47.46.384,fisher_task,2020.1.3,Win32,60,0.168657458,-0.420370414,1,0,0,1.46549,scale,,,,,,0.21373507,0.173205081,0.326485712,0.264575131,stimuli/lakes/30100_left.png,stimuli/lakes/30100_right.png,,,,0,46,46,0,1,,,,,
,,,,,,$5d120851e17acf00019be14a,2020-07-20_14h47.46.384,fisher_task,2020.1.3,Win32,60,-0.064675887,-0.265740777,1,0,0,2.04863,scale,,,,,,0.326485712,0.264575131,0.21373507,0.173205081,stimuli/lakes/703029_left.png,stimuli/lakes/703029_right.png,,,,0,47,47,29,1,,,,,
,,,,,,$5d120851e17acf00019be14a,2020-07-20_14h47.46.384,fisher_task,2020.1.3,Win32,60,-0.103564721,-0.31574078,1,0,0,2.59618,scale,,,,,,0.326485712,0.264575131,0.21373507,0.173205081,stimuli/lakes/705068_left.png,stimuli/lakes/705068_right.png,,,,0,48,48,68,1,,,,,
,,,,,,$5d120851e17acf00019be14a,2020-07-20_14h47.46.384,fisher_task,2020.1.3,Win32,60,0.032546397,-0.087037065,1,0,0,0.13319,scale,,,,,,0.326485712,0.264575131,0.21373507,0.173205081,stimuli/lakes/70107_left.png,stimuli/lakes/70107_right.png,,,,0,49,49,7,1,,,,,
,,,,,,$5d120851e17acf00019be14a,2020-07-20_14h47.46.384,fisher_task,2020.1.3,Win32,60,-0.171157373,-0.413888989,1,0,0,2.963935,scale,,,,,,0.326485712,0.264575131,0.21373507,0.173205081,stimuli/lakes/7090129_left.png,stimuli/lakes/7090129_right.png,,,,0,50,50,129,1,,,,,
,,,,,,$5d120851e17acf00019be14a,2020-07-20_14h47.46.384,fisher_task,2020.1.3,Win32,60,-0.171157373,-0.413888989,1,0,0,0.065835,scale,,,,,,0.3702,0.3,0.1234,0.1,stimuli/lakes/907097_left.png,stimuli/lakes/907097_right.png,,,,0,51,51,97,1,,,,,
,,,,,,$5d120851e17acf00019be14a,2020-07-20_14h47.46.384,fisher_task,2020.1.3,Win32,60,0.111250048,-0.303703799,1,0,0,5.31059,scale,,,,,,0.2468,0.2,0.302267034,0.244948974,stimuli/lakes/406074_left.png,stimuli/lakes/406074_right.png,,,,0,52,52,74,1,,,,,
,,,,,,$5d120851e17acf00019be14a,2020-07-20_14h47.46.384,fisher_task,2020.1.3,Win32,60,-0.086898053,-0.18703707,1,0,0,0.049845,scale,,,,,,0.302267034,0.244948974,0.2468,0.2,stimuli/lakes/604046_left.png,stimuli/lakes/604046_right.png,,,,0,53,53,46,1,,,,,
,,,,,,$5d120851e17acf00019be14a,2020-07-20_14h47.46.384,fisher_task,2020.1.3,Win32,60,0.002916709,-0.270370407,1,0,0,1.74852,scale,,,,,,0.302267034,0.244948974,0.2468,0.2,stimuli/lakes/603037_left.png,stimuli/lakes/603037_right.png,,,,0,54,54,37,1,,,,,
,,,,,,$5d120851e17acf00019be14a,2020-07-20_14h47.46.384,fisher_task,2020.1.3,Win32,60,-0.136898056,-0.345370467,1,0,0,7.77647,scale,,,,,,0.21373507,0.173205081,0.326485712,0.264575131,stimuli/lakes/3090122_left.png,stimuli/lakes/3090122_right.png,,,,0,55,55,122,1,,,,,
,,,,,,$5d120851e17acf00019be14a,2020-07-20_14h47.46.384,fisher_task,2020.1.3,Win32,60,-0.127638853,-0.33333343,1,0,0,1.41461,scale,,,,,,0.349027907,0.282842712,0.174513954,0.141421356,stimuli/lakes/806078_left.png,stimuli/lakes/806078_right.png,,,,0,56,56,78,1,,,,,
,,,,,,$5d120851e17acf00019be14a,2020-07-20_14h47.46.384,fisher_task,2020.1.3,Win32,60,-0.017453606,-0.271296333,1,0,0,1.9647,scale,,,,,,0.2468,0.2,0.302267034,0.244948974,stimuli/lakes/407092_left.png,stimuli/lakes/407092_right.png,,,,0,57,57,92,1,,,,,
,,,,,,$5d120851e17acf00019be14a,2020-07-20_14h47.46.384,fisher_task,2020.1.3,Win32,60,-0.088749905,-0.277777815,1,0,0,3.197005,scale,,,,,,0.174513954,0.141421356,0.349027907,0.282842712,stimuli/lakes/2090120_left.png,stimuli/lakes/2090120_right.png,,,,0,58,58,120,1,,,,,
,,,,,,$5d120851e17acf00019be14a,2020-07-20_14h47.46.384,fisher_task,2020.1.3,Win32,60,0.060324119,-0.26666676,1,0,0,1.880565,scale,,,,,,0.326485712,0.264575131,0.21373507,0.173205081,stimuli/lakes/702019_left.png,stimuli/lakes/702019_right.png,,,,0,59,59,19,1,,,,,
,,,,,,$5d120851e17acf00019be14a,2020-07-20_14h47.46.384,fisher_task,2020.1.3,Win32,60,-0.070231386,-0.309259298,1,0,0,2.06479,scale,,,,,,0.2468,0.2,0.302267034,0.244948974,stimuli/lakes/4080111_left.png,stimuli/lakes/4080111_right.png,,,,0,60,60,111,1,,,,,
,,,,,,$5d120851e17acf00019be14a,2020-07-20_14h47.46.384,fisher_task,2020.1.3,Win32,60,-0.012823976,-0.280555593,1,0,0,2.147445,scale,,,,,,0.21373507,0.173205081,0.326485712,0.264575131,stimuli/lakes/305062_left.png,stimuli/lakes/305062_right.png,,,,0,61,61,62,1,,,,,
,,,,,,$5d120851e17acf00019be14a,2020-07-20_14h47.46.384,fisher_task,2020.1.3,Win32,60,-0.123009223,-0.31111115,1,0,0,1.648525,scale,,,,,,0.302267034,0.244948974,0.2468,0.2,stimuli/lakes/605066_left.png,stimuli/lakes/605066_right.png,,,,0,62,62,66,1,,,,,
,,,,,,$5d120851e17acf00019be14a,2020-07-20_14h47.46.384,fisher_task,2020.1.3,Win32,60,0.15662042,-0.408333377,1,0,0,1.63128,scale,,,,,,0.21373507,0.173205081,0.326485712,0.264575131,stimuli/lakes/30101_left.png,stimuli/lakes/30101_right.png,,,,0,63,63,1,1,,,,,
,,,,,,$5d120851e17acf00019be14a,2020-07-20_14h47.46.384,fisher_task,2020.1.3,Win32,60,0.127916715,-0.347222263,1,0,0,1.41514,scale,,,,,,0.2468,0.2,0.302267034,0.244948974,stimuli/lakes/403035_left.png,stimuli/lakes/403035_right.png,,,,0,64,64,35,1,,,,,
,,,,,,$5d120851e17acf00019be14a,2020-07-20_14h47.46.384,fisher_task,2020.1.3,Win32,60,-0.143379594,-0.374074116,1,0,0,1.631695,scale,,,,,,0.302267034,0.244948974,0.2468,0.2,stimuli/lakes/6090126_left.png,stimuli/lakes/6090126_right.png,,,,0,65,65,126,1,,,,,
,,,,,,$5d120851e17acf00019be14a,2020-07-20_14h47.46.384,fisher_task,2020.1.3,Win32,60,-0.124861075,-0.348148189,1,0,0,1.53186,scale,,,,,,0.302267034,0.244948974,0.2468,0.2,stimuli/lakes/6080115_left.png,stimuli/lakes/6080115_right.png,,,space,0,66,66,115,1,1.80961,,,,
,,,,,,$5d120851e17acf00019be14a,2020-07-20_14h47.46.384,fisher_task,2020.1.3,Win32,60,-0.159120336,-0.392592692,1,0,0,1.165425,scale,,,,,,0.326485712,0.264575131,0.21373507,0.173205081,stimuli/lakes/706086_left.png,stimuli/lakes/706086_right.png,,,,0,67,67,86,1,,,,,
,,,,,,$5d120851e17acf00019be14a,2020-07-20_14h47.46.384,fisher_task,2020.1.3,Win32,60,-0.163749909,-0.405555655,1,0,0,0.916225,scale,,,,,,0.302267034,0.244948974,0.2468,0.2,stimuli/lakes/6090127_left.png,stimuli/lakes/6090127_right.png,,,,0,68,68,127,1,,,,,
,,,,,,$5d120851e17acf00019be14a,2020-07-20_14h47.46.384,fisher_task,2020.1.3,Win32,60,-0.05541657,-0.283333427,1,0,0,1.43245,scale,,,,,,0.21373507,0.173205081,0.326485712,0.264575131,stimuli/lakes/3090121_left.png,stimuli/lakes/3090121_right.png,,,,0,69,69,121,1,,,,,
,,,,,,$5d120851e17acf00019be14a,2020-07-20_14h47.46.384,fisher_task,2020.1.3,Win32,60,-0.020231384,-0.313888928,1,0,0,1.381975,scale,,,,,,0.1234,0.1,0.3702,0.3,stimuli/lakes/107098_left.png,stimuli/lakes/107098_right.png,,,,0,70,70,98,1,,,,,
,,,,,,$5d120851e17acf00019be14a,2020-07-20_14h47.46.384,fisher_task,2020.1.3,Win32,60,0.141805605,-0.382407449,1,0,0,1.580905,scale,,,,,,0.174513954,0.141421356,0.349027907,0.282842712,stimuli/lakes/203033_left.png,stimuli/lakes/203033_right.png,,,,0,71,71,33,1,,,,,
,,,,,,$5d120851e17acf00019be14a,2020-07-20_14h47.46.384,fisher_task,2020.1.3,Win32,60,0.014027821,-0.265740777,1,0,0,1.44805,scale,,,,,,0.302267034,0.244948974,0.2468,0.2,stimuli/lakes/606076_left.png,stimuli/lakes/606076_right.png,,,,0,72,72,76,1,,,,,
,,,,,,$5d120851e17acf00019be14a,2020-07-20_14h47.46.384,fisher_task,2020.1.3,Win32,60,0.086250046,-0.353703744,1,0,0,0.96391,scale,,,,,,0.275930788,0.223606798,0.275930788,0.223606798,stimuli/lakes/50104_left.png,stimuli/lakes/50104_right.png,,,,0,73,73,4,1,,,,,
,,,,,,$5d120851e17acf00019be14a,2020-07-20_14h47.46.384,fisher_task,2020.1.3,Win32,60,-0.034120273,-0.271296333,1,0,0,2.54744,scale,,,,,,0.21373507,0.173205081,0.326485712,0.264575131,stimuli/lakes/306073_left.png,stimuli/lakes/306073_right.png,,,,0,74,74,73,1,,,,,
,,,,,,$5d120851e17acf00019be14a,2020-07-20_14h47.46.384,fisher_task,2020.1.3,Win32,60,0.128842641,-0.3287038,1,0,0,1.032255,scale,,,,,,0.275930788,0.223606798,0.275930788,0.223606798,stimuli/lakes/503027_left.png,stimuli/lakes/503027_right.png,,,,0,75,75,27,1,,,,,
,,,,,,$5d120851e17acf00019be14a,2020-07-20_14h47.46.384,fisher_task,2020.1.3,Win32,60,0.086250046,-0.323148187,1,0,0,1.1312,scale,,,,,,0.302267034,0.244948974,0.2468,0.2,stimuli/lakes/60105_left.png,stimuli/lakes/60105_right.png,,,,0,76,76,5,1,,,,,
,,,,,,$5d120851e17acf00019be14a,2020-07-20_14h47.46.384,fisher_task,2020.1.3,Win32,60,-0.140601816,-0.314814854,1,0,0,1.148945,scale,,,,,,0.1234,0.1,0.3702,0.3,stimuli/lakes/1080107_left.png,stimuli/lakes/1080107_right.png,,,,0,77,77,107,1,,,,,
,,,,,,$5d120851e17acf00019be14a,2020-07-20_14h47.46.384,fisher_task,2020.1.3,Win32,60,0.126064863,-0.316666762,1,0,0,1.26471,scale,,,,,,0.302267034,0.244948974,0.2468,0.2,stimuli/lakes/602017_left.png,stimuli/lakes/602017_right.png,,,,0,78,78,17,1,,,,,
,,,,,,$5d120851e17acf00019be14a,2020-07-20_14h47.46.384,fisher_task,2020.1.3,Win32,60,0.101064862,-0.279629667,1,0,0,1.480745,scale,,,,,,0.3702,0.3,0.1234,0.1,stimuli/lakes/903031_left.png,stimuli/lakes/903031_right.png,,,,0,79,79,31,1,,,,,
,,,,,,$5d120851e17acf00019be14a,2020-07-20_14h47.46.384,fisher_task,2020.1.3,Win32,60,0.069583379,-0.270370407,1,0,0,1.298365,scale,,,,,,0.1234,0.1,0.3702,0.3,stimuli/lakes/104041_left.png,stimuli/lakes/104041_right.png,,,,0,80,80,41,1,,,,,
,,,,,,$5d120851e17acf00019be14a,2020-07-20_14h47.46.384,fisher_task,2020.1.3,Win32,60,0.089027824,-0.275925963,1,0,0,1.182085,scale,,,,,,0.2468,0.2,0.302267034,0.244948974,stimuli/lakes/40103_left.png,stimuli/lakes/40103_right.png,,,,0,81,81,3,1,,,,,
,,,,,,$5d120851e17acf00019be14a,2020-07-20_14h47.46.384,fisher_task,2020.1.3,Win32,60,-0.106342555,-0.305555594,1,0,0,2.1646,scale,,,,,,0.349027907,0.282842712,0.174513954,0.141421356,stimuli/lakes/806087_left.png,stimuli/lakes/806087_right.png,,,,0,82,82,87,1,,,,,
,,,,,,$5d120851e17acf00019be14a,2020-07-20_14h47.46.384,fisher_task,2020.1.3,Win32,60,0.097361158,-0.307407446,1,0,0,1.9653,scale,,,,,,0.349027907,0.282842712,0.174513954,0.141421356,stimuli/lakes/80109_left.png,stimuli/lakes/80109_right.png,,,,0,83,83,9,1,,,,,
,,,,,,$5d120851e17acf00019be14a,2020-07-20_14h47.46.384,fisher_task,2020.1.3,Win32,60,0.064027823,-0.280555593,1,0,0,1.480585,scale,,,,,,0.174513954,0.141421356,0.349027907,0.282842712,stimuli/lakes/203024_left.png,stimuli/lakes/203024_right.png,,,,0,84,84,24,1,,,,,
,,,,,,$5d120851e17acf00019be14a,2020-07-20_14h47.46.384,fisher_task,2020.1.3,Win32,60,0.160324124,-0.322222261,1,0,0,0.21637,scale,,,,,,0.326485712,0.264575131,0.21373507,0.173205081,stimuli/lakes/704056_left.png,stimuli/lakes/704056_right.png,,,,0,85,85,56,1,,,,,
,,,,,,$5d120851e17acf00019be14a,2020-07-20_14h47.46.384,fisher_task,2020.1.3,Win32,60,0.168657458,-0.314814854,1,0,0,1.01535,scale,,,,,,0.21373507,0.173205081,0.326485712,0.264575131,stimuli/lakes/302012_left.png,stimuli/lakes/302012_right.png,,,,0,86,86,12,1,,,,,
,,,,,,$5d120851e17acf00019be14a,2020-07-20_14h47.46.384,fisher_task,2020.1.3,Win32,60,-0.148009224,-0.406481525,1,0,0,1.38107,scale,,,,,,0.326485712,0.264575131,0.21373507,0.173205081,stimuli/lakes/707095_left.png,stimuli/lakes/707095_right.png,,,,0,87,87,95,1,,,,,
,,,,,,$5d120851e17acf00019be14a,2020-07-20_14h47.46.384,fisher_task,2020.1.3,Win32,60,0.162175976,-0.385185284,1,0,0,1.13203,scale,,,,,,0.21373507,0.173205081,0.326485712,0.264575131,stimuli/lakes/303034_left.png,stimuli/lakes/303034_right.png,,,space,0,88,88,34,1,46.263095,,,,
,,,,,,$5d120851e17acf00019be14a,2020-07-20_14h47.46.384,fisher_task,2020.1.3,Win32,60,-0.105416573,-0.375926024,1,0,0,0.982315,scale,,,,,,0.349027907,0.282842712,0.174513954,0.141421356,stimuli/lakes/8070105_left.png,stimuli/lakes/8070105_right.png,,,,0,89,89,105,1,,,,,
,,,,,,$5d120851e17acf00019be14a,2020-07-20_14h47.46.384,fisher_task,2020.1.3,Win32,60,-0.141527742,-0.350925967,1,0,0,0.616035,scale,,,,,,0.275930788,0.223606798,0.275930788,0.223606798,stimuli/lakes/5070102_left.png,stimuli/lakes/5070102_right.png,,,,0,90,90,102,1,,,,,
,,,,,,$5d120851e17acf00019be14a,2020-07-20_14h47.46.384,fisher_task,2020.1.3,Win32,60,-0.014675884,-0.250000092,1,0,0,1.4319,scale,,,,,,0.21373507,0.173205081,0.326485712,0.264575131,stimuli/lakes/3080109_left.png,stimuli/lakes/3080109_right.png,,,,0,91,91,109,1,,,,,
,,,,,,$5d120851e17acf00019be14a,2020-07-20_14h47.46.384,fisher_task,2020.1.3,Win32,60,0.017731525,-0.275925963,1,0,0,1.581695,scale,,,,,,0.302267034,0.244948974,0.2468,0.2,stimuli/lakes/604055_left.png,stimuli/lakes/604055_right.png,,,,0,92,92,55,1,,,,,
,,,,,,$5d120851e17acf00019be14a,2020-07-20_14h47.46.384,fisher_task,2020.1.3,Win32,60,0.104768566,-0.294444482,1,0,0,1.51517,scale,,,,,,0.174513954,0.141421356,0.349027907,0.282842712,stimuli/lakes/204051_left.png,stimuli/lakes/204051_right.png,,,,0,93,93,51,1,,,,,
,,,,,,$5d120851e17acf00019be14a,2020-07-20_14h47.46.384,fisher_task,2020.1.3,Win32,60,-0.008194346,-0.264814851,1,0,0,1.864695,scale,,,,,,0.326485712,0.264575131,0.21373507,0.173205081,stimuli/lakes/702020_left.png,stimuli/lakes/702020_right.png,,,,0,94,94,20,1,,,,,
,,,,,,$5d120851e17acf00019be14a,2020-07-20_14h47.46.384,fisher_task,2020.1.3,Win32,60,0.159398198,-0.353703744,1,0,0,1.14901,scale,,,,,,0.21373507,0.173205081,0.326485712,0.264575131,stimuli/lakes/302013_left.png,stimuli/lakes/302013_right.png,,,,0,95,95,13,1,,,,,
,,,,,,$5d120851e17acf00019be14a,2020-07-20_14h47.46.384,fisher_task,2020.1.3,Win32,60,-0.095231387,-0.281481519,1,0,0,2.348105,scale,,,,,,0.275930788,0.223606798,0.275930788,0.223606798,stimuli/lakes/506075_left.png,stimuli/lakes/506075_right.png,,,,0,96,96,75,1,,,,,
,,,,,,$5d120851e17acf00019be14a,2020-07-20_14h47.46.384,fisher_task,2020.1.3,Win32,60,-0.178564724,-0.412963063,1,0,0,2.130195,scale,,,,,,0.349027907,0.282842712,0.174513954,0.141421356,stimuli/lakes/807096_left.png,stimuli/lakes/807096_right.png,,,,0,97,97,96,1,,,,,
,,,,,,$5d120851e17acf00019be14a,2020-07-20_14h47.46.384,fisher_task,2020.1.3,Win32,60,-0.140601816,-0.374074116,1,0,0,2.46294,scale,,,,,,0.302267034,0.244948974,0.2468,0.2,stimuli/lakes/605065_left.png,stimuli/lakes/605065_right.png,,,,0,98,98,65,1,,,,,
,,,,,,$5d120851e17acf00019be14a,2020-07-20_14h47.46.384,fisher_task,2020.1.3,Win32,60,-0.164675891,-0.42962973,1,0,0,1.149265,scale,,,,,,0.326485712,0.264575131,0.21373507,0.173205081,stimuli/lakes/7080117_left.png,stimuli/lakes/7080117_right.png,,,,0,99,99,117,1,,,,,
,,,,,,$5d120851e17acf00019be14a,2020-07-20_14h47.46.384,fisher_task,2020.1.3,Win32,60,0.095509306,-0.318518614,1,0,0,1.31538,scale,,,,,,0.275930788,0.223606798,0.275930788,0.223606798,stimuli/lakes/502016_left.png,stimuli/lakes/502016_right.png,,,,0,100,100,16,1,,,,,
,,,,,,$5d120851e17acf00019be14a,2020-07-20_14h47.46.384,fisher_task,2020.1.3,Win32,60,-0.007268476,-0.270370407,1,0,0,2.198095,scale,,,,,,0.21373507,0.173205081,0.326485712,0.264575131,stimuli/lakes/306082_left.png,stimuli/lakes/306082_right.png,,,,0,101,101,82,1,,,,,
,,,,,,$5d120851e17acf00019be14a,2020-07-20_14h47.46.384,fisher_task,2020.1.3,Win32,60,-0.147083241,-0.425000044,1,0,0,1.465575,scale,,,,,,0.326485712,0.264575131,0.21373507,0.173205081,stimuli/lakes/7080116_left.png,stimuli/lakes/7080116_right.png,,,,0,102,102,116,1,,,,,
,,,,,,$5d120851e17acf00019be14a,2020-07-20_14h47.46.384,fisher_task,2020.1.3,Win32,60,0.17513894,-0.365740782,1,0,0,1.06561,scale,,,,,,0.2468,0.2,0.302267034,0.244948974,stimuli/lakes/403026_left.png,stimuli/lakes/403026_right.png,,,,0,103,103,26,1,,,,,
,,,,,,$5d120851e17acf00019be14a,2020-07-20_14h47.46.384,fisher_task,2020.1.3,Win32,60,0.169583384,-0.419444488,1,0,0,1.198525,scale,,,,,,0.174513954,0.141421356,0.349027907,0.282842712,stimuli/lakes/202011_left.png,stimuli/lakes/202011_right.png,,,,0,104,104,11,1,,,,,
,,,,,,$5d120851e17acf00019be14a,2020-07-20_14h47.46.384,fisher_task,2020.1.3,Win32,60,-0.142453668,-0.362963061,1,0,0,2.49783,scale,,,,,,0.302267034,0.244948974,0.2468,0.2,stimuli/lakes/606085_left.png,stimuli/lakes/606085_right.png,,,,0,105,105,85,1,,,,,
,,,,,,$5d120851e17acf00019be14a,2020-07-20_14h47.46.384,fisher_task,2020.1.3,Win32,60,0.083472269,-0.294444482,1,0,0,0.16632,scale,,,,,,0.174513954,0.141421356,0.349027907,0.282842712,stimuli/lakes/204042_left.png,stimuli/lakes/204042_right.png,,,,0,106,106,42,1,,,,,
,,,,,,$5d120851e17acf00019be14a,2020-07-20_14h47.46.384,fisher_task,2020.1.3,Win32,60,0.083472269,-0.294444482,1,0,0,1.29764,scale,,,,,,0.302267034,0.244948974,0.2468,0.2,stimuli/lakes/603028_left.png,stimuli/lakes/603028_right.png,,,,0,107,107,28,1,,,,,
,,,,,,$5d120851e17acf00019be14a,2020-07-20_14h47.46.384,fisher_task,2020.1.3,Win32,60,0.083472269,-0.294444482,1,0,0,0.84915,scale,,,,,,0.21373507,0.173205081,0.326485712,0.264575131,stimuli/lakes/304052_left.png,stimuli/lakes/304052_right.png,,,,0,108,108,52,1,,,,,
,,,,,,$5d120851e17acf00019be14a,2020-07-20_14h47.46.384,fisher_task,2020.1.3,Win32,60,0.000138988,-0.247222258,1,0,0,2.064775,scale,,,,,,0.326485712,0.264575131,0.21373507,0.173205081,stimuli/lakes/703038_left.png,stimuli/lakes/703038_right.png,,,,0,109,109,38,1,,,,,
,,,,,,$5d120851e17acf00019be14a,2020-07-20_14h47.46.384,fisher_task,2020.1.3,Win32,60,-0.018379588,-0.236111146,1,0,0,1.44875,scale,,,,,,0.174513954,0.141421356,0.349027907,0.282842712,stimuli/lakes/207090_left.png,stimuli/lakes/207090_right.png,,,space,0,110,110,90,1,103.64137,,,,
,,,,,,$5d120851e17acf00019be14a,2020-07-20_14h47.46.384,fisher_task,2020.1.3,Win32,60,-0.136898056,-0.325925965,1,0,0,0.815875,scale,,,,,,0.349027907,0.282842712,0.174513954,0.141421356,stimuli/lakes/8080118_left.png,stimuli/lakes/8080118_right.png,,,,0,111,111,118,1,,,,,
,,,,,,$5d120851e17acf00019be14a,2020-07-20_14h47.46.384,fisher_task,2020.1.3,Win32,60,0.126064863,-0.287963001,1,0,0,1.348585,scale,,,,,,0.302267034,0.244948974,0.2468,0.2,stimuli/lakes/60106_left.png,stimuli/lakes/60106_right.png,,,,0,112,112,6,1,,,,,
,,,,,,$5d120851e17acf00019be14a,2020-07-20_14h47.46.384,fisher_task,2020.1.3,Win32,60,0.008472322,-0.264814851,1,0,0,1.515,scale,,,,,,0.3702,0.3,0.1234,0.1,stimuli/lakes/902022_left.png,stimuli/lakes/902022_right.png,,,,0,113,113,22,1,,,,,
,,,,,,$5d120851e17acf00019be14a,2020-07-20_14h47.46.384,fisher_task,2020.1.3,Win32,60,-0.090601814,-0.278703797,1,0,0,1.814895,scale,,,,,,0.2468,0.2,0.302267034,0.244948974,stimuli/lakes/4070101_left.png,stimuli/lakes/4070101_right.png,,,,0,114,114,101,1,,,,,
,,,,,,$5d120851e17acf00019be14a,2020-07-20_14h47.46.384,fisher_task,2020.1.3,Win32,60,-0.090601814,-0.278703797,1,0,0,0.03311,scale,,,,,,0.3702,0.3,0.1234,0.1,stimuli/lakes/904049_left.png,stimuli/lakes/904049_right.png,,,,0,115,115,49,1,,,,,
,,,,,,$5d120851e17acf00019be14a,2020-07-20_14h47.46.384,fisher_task,2020.1.3,Win32,60,0.104768566,-0.280555593,1,0,0,2.24767,scale,,,,,,0.1234,0.1,0.3702,0.3,stimuli/lakes/105059_left.png,stimuli/lakes/105059_right.png,,,,0,116,116,59,1,,,,,
,,,,,,$5d120851e17acf00019be14a,2020-07-20_14h47.46.384,fisher_task,2020.1.3,Win32,60,0.114027826,-0.318518614,1,0,0,1.84815,scale,,,,,,0.21373507,0.173205081,0.326485712,0.264575131,stimuli/lakes/305061_left.png,stimuli/lakes/305061_right.png,,,,0,117,117,61,1,,,,,
,,,,,,$5d120851e17acf00019be14a,2020-07-20_14h47.46.384,fisher_task,2020.1.3,Win32,60,0.131620419,-0.288888927,1,0,0,1.714975,scale,,,,,,0.2468,0.2,0.302267034,0.244948974,stimuli/lakes/405064_left.png,stimuli/lakes/405064_right.png,,,,0,118,118,64,1,,,,,
,,,,,,$5d120851e17acf00019be14a,2020-07-20_14h47.46.384,fisher_task,2020.1.3,Win32,60,0.131620419,-0.289814852,1,0,0,0.86579,scale,,,,,,0.2468,0.2,0.302267034,0.244948974,stimuli/lakes/404053_left.png,stimuli/lakes/404053_right.png,,,,0,119,119,53,1,,,,,
,,,,,,$5d120851e17acf00019be14a,2020-07-20_14h47.46.384,fisher_task,2020.1.3,Win32,60,-0.066527739,-0.284259297,1,0,0,1.53165,scale,,,,,,0.275930788,0.223606798,0.275930788,0.223606798,stimuli/lakes/507093_left.png,stimuli/lakes/507093_right.png,,,,0,120,120,93,1,,,,,
,,,,,,$5d120851e17acf00019be14a,2020-07-20_14h47.46.384,fisher_task,2020.1.3,Win32,60,-0.097083239,-0.288888927,1,0,0,1.382085,scale,,,,,,0.2468,0.2,0.302267034,0.244948974,stimuli/lakes/4080112_left.png,stimuli/lakes/4080112_right.png,,,,0,121,121,112,1,,,,,
,,,,,,$5d120851e17acf00019be14a,2020-07-20_14h47.46.384,fisher_task,2020.1.3,Win32,60,0.149213125,-0.321296335,1,0,0,1.34864,scale,,,,,,0.21373507,0.173205081,0.326485712,0.264575131,stimuli/lakes/304043_left.png,stimuli/lakes/304043_right.png,,,,0,122,122,43,1,,,,,
,,,,,,$5d120851e17acf00019be14a,2020-07-20_14h47.46.384,fisher_task,2020.1.3,Win32,60,-0.009120272,-0.287037131,1,0,0,2.31457,scale,,,,,,0.174513954,0.141421356,0.349027907,0.282842712,stimuli/lakes/206081_left.png,stimuli/lakes/206081_right.png,,,,0,123,123,81,1,,,,,
,,,,,,$5d120851e17acf00019be14a,2020-07-20_14h47.46.384,fisher_task,2020.1.3,Win32,60,-0.004490642,-0.267592629,1,0,0,2.61414,scale,,,,,,0.3702,0.3,0.1234,0.1,stimuli/lakes/905070_left.png,stimuli/lakes/905070_right.png,,,,0,124,124,70,1,,,,,
,,,,,,$5d120851e17acf00019be14a,2020-07-20_14h47.46.384,fisher_task,2020.1.3,Win32,60,0.008472322,-0.271296333,1,0,0,2.264395,scale,,,,,,0.349027907,0.282842712,0.174513954,0.141421356,stimuli/lakes/803030_left.png,stimuli/lakes/803030_right.png,,,,0,125,125,30,1,,,,,
,,,,,,$5d120851e17acf00019be14a,2020-07-20_14h47.46.384,fisher_task,2020.1.3,Win32,60,-0.141527742,-0.290740778,1,0,0,2.06365,scale,,,,,,0.1234,0.1,0.3702,0.3,stimuli/lakes/106080_left.png,stimuli/lakes/106080_right.png,,,,0,126,126,80,1,,,,,
,,,,,,$5d120851e17acf00019be14a,2020-07-20_14h47.46.384,fisher_task,2020.1.3,Win32,60,0.121435233,-0.313888928,1,0,0,1.864995,scale,,,,,,0.1234,0.1,0.3702,0.3,stimuli/lakes/103023_left.png,stimuli/lakes/103023_right.png,,,,0,127,127,23,1,,,,,
,,,,,,$5d120851e17acf00019be14a,2020-07-20_14h47.46.384,fisher_task,2020.1.3,Win32,60,-0.092453666,-0.301851947,1,0,0,1.631725,scale,,,,,,0.2468,0.2,0.302267034,0.244948974,stimuli/lakes/4090124_left.png,stimuli/lakes/4090124_right.png,,,,0,128,128,124,1,,,,,
,,,,,,$5d120851e17acf00019be14a,2020-07-20_14h47.46.384,fisher_task,2020.1.3,Win32,60,-0.104490703,-0.322222261,1,0,0,6.694215,scale,,,,,,0.349027907,0.282842712,0.174513954,0.141421356,stimuli/lakes/805069_left.png,stimuli/lakes/805069_right.png,,,,0,129,129,69,1,,,,,
,,,,,,$5d120851e17acf00019be14a,2020-07-20_14h47.46.384,fisher_task,2020.1.3,Win32,60,,,,,,,,,,,,,,,,,,,,,,,,,,,,space,1.82985,space,1.77314
