keySpace.keys,keySpace.rt,instructions.thisRepN,instructions.thisTrialN,instructions.thisN,instructions.thisIndex,instructions.ran,participant,date,expName,psychopyVersion,OS,frameRate,mouse.x,mouse.y,mouse.leftButton,mouse.midButton,mouse.rightButton,mouse.time,mouse.clicked_name,training.thisRepN,training.thisTrialN,training.thisN,training.thisIndex,training.ran,widthBasketLeft,heightBasketLeft,widthBasketRight,heightBasketRight,leftLake,rightLake,space2.keys,space2.rt,space1.keys,trials.thisRepN,trials.thisTrialN,trials.thisN,trials.thisIndex,trials.ran,space1.rt,finalSpace1.keys,finalSpace1.rt,finalSpace2.keys,finalSpace2.rt
space,9.734025,0,0,0,0,1,$5f088d02d931c10a63acc48f,2020-07-13_17h37.58.503,fisher_task,2020.1.3,MacIntel,60,,,,,,,,,,,,,,,,,,,,,,,,,,,,,,,
,,1,0,1,0,1,$5f088d02d931c10a63acc48f,2020-07-13_17h37.58.503,fisher_task,2020.1.3,MacIntel,60,,,,,,,,,,,,,,,,,,,,,,,,,,,,,,,
,,,,,,,$5f088d02d931c10a63acc48f,2020-07-13_17h37.58.503,fisher_task,2020.1.3,MacIntel,60,0.168650174,-0.424648437,1,0,0,6.698725,scale,0,0,0,0,1,0.275930788,0.223606798,0.275930788,0.223606798,stimuli/training/20_left.png,stimuli/training/20_right.png,,,,,,,,,,,,,
,,,,,,,$5f088d02d931c10a63acc48f,2020-07-13_17h37.58.503,fisher_task,2020.1.3,MacIntel,60,-0.000282118,-0.414765625,1,0,0,0.915845,scale,0,1,1,1,1,0.275930788,0.223606798,0.275930788,0.223606798,stimuli/training/80_left.png,stimuli/training/80_right.png,,,,,,,,,,,,,
,,,,,,,$5f088d02d931c10a63acc48f,2020-07-13_17h37.58.503,fisher_task,2020.1.3,MacIntel,60,-0.003068576,-0.246783854,1,0,0,6.049605,scale,0,2,2,2,1,0.174513954,0.141421356,0.349027907,0.282842712,stimuli/training/50_left.png,stimuli/training/50_right.png,,,,,,,,,,,,,
,,,,,,,$5f088d02d931c10a63acc48f,2020-07-13_17h37.58.503,fisher_task,2020.1.3,MacIntel,60,-0.163637153,-0.415416667,1,0,0,5.398785,scale,0,3,3,3,1,0.349027907,0.282842712,0.174513954,0.141421356,stimuli/training/50_left.png,stimuli/training/50_right.png,,,,,,,,,,,,,
,,,,,,,$5f088d02d931c10a63acc48f,2020-07-13_17h37.58.503,fisher_task,2020.1.3,MacIntel,60,0.166067708,-0.417400174,1,0,0,3.751235,scale,0,4,4,4,1,0.275930788,0.223606798,0.275930788,0.223606798,stimuli/training/50_left.png,stimuli/training/50_right.png,,,,,,,,,,,,,
,,,,,,,$5f088d02d931c10a63acc48f,2020-07-13_17h37.58.503,fisher_task,2020.1.3,MacIntel,60,0.166067708,-0.422465278,1,0,0,1.516455,scale,0,5,5,5,1,0.174513954,0.141421356,0.349027907,0.282842712,stimuli/training/20_left.png,stimuli/training/20_right.png,,,,,,,,,,,,,
,,,,,,,$5f088d02d931c10a63acc48f,2020-07-13_17h37.58.503,fisher_task,2020.1.3,MacIntel,60,-0.165842014,-0.431427951,1,0,0,2.23623,scale,0,6,6,6,1,0.349027907,0.282842712,0.174513954,0.141421356,stimuli/training/80_left.png,stimuli/training/80_right.png,,,,,,,,,,,,,
,,,,,,,$5f088d02d931c10a63acc48f,2020-07-13_17h37.58.503,fisher_task,2020.1.3,MacIntel,60,-0.006896701,-0.255789931,1,0,0,3.432045,scale,0,7,7,7,1,0.1234,0.1,0.3702,0.3,stimuli/training/30_left.png,stimuli/training/30_right.png,,,,,,,,,,,,,
,,,,,,,$5f088d02d931c10a63acc48f,2020-07-13_17h37.58.503,fisher_task,2020.1.3,MacIntel,60,-0.136549479,-0.348511285,1,0,0,6.549745,scale,0,8,8,8,1,0.3702,0.3,0.1234,0.1,stimuli/training/70_left.png,stimuli/training/70_right.png,,,,,,,,,,,,,
,,,,,,,$5f088d02d931c10a63acc48f,2020-07-13_17h37.58.503,fisher_task,2020.1.3,MacIntel,60,-0.156697049,-0.423858507,1,0,0,1.96574,scale,0,9,9,9,1,0.326485712,0.264575131,0.21373507,0.173205081,stimuli/training/90_left.png,stimuli/training/90_right.png,,,,,,,,,,,,,
,,,,,,,$5f088d02d931c10a63acc48f,2020-07-13_17h37.58.503,fisher_task,2020.1.3,MacIntel,60,0.160655382,-0.425399306,1,0,0,1.64937,scale,0,10,10,10,1,0.21373507,0.173205081,0.326485712,0.264575131,stimuli/training/10_left.png,stimuli/training/10_right.png,,,,,,,,,,,,,
,,,,,,,$5f088d02d931c10a63acc48f,2020-07-13_17h37.58.503,fisher_task,2020.1.3,MacIntel,60,-0.154926215,-0.431818576,1,0,0,4.615565,scale,,,,,,0.275930788,0.223606798,0.275930788,0.223606798,stimuli/lakes/507093_left.png,stimuli/lakes/507093_right.png,space,12.56661,,0,0,0,93,1,,,,,
,,,,,,,$5f088d02d931c10a63acc48f,2020-07-13_17h37.58.503,fisher_task,2020.1.3,MacIntel,60,0.163637153,-0.425403646,1,0,0,4.51683,scale,,,,,,0.302267034,0.244948974,0.2468,0.2,stimuli/lakes/603028_left.png,stimuli/lakes/603028_right.png,,,,0,1,1,28,1,,,,,
,,,,,,,$5f088d02d931c10a63acc48f,2020-07-13_17h37.58.503,fisher_task,2020.1.3,MacIntel,60,-0.120603299,-0.32125,1,0,0,4.79975,scale,,,,,,0.326485712,0.264575131,0.21373507,0.173205081,stimuli/lakes/706086_left.png,stimuli/lakes/706086_right.png,,,,0,2,2,86,1,,,,,
,,,,,,,$5f088d02d931c10a63acc48f,2020-07-13_17h37.58.503,fisher_task,2020.1.3,MacIntel,60,-0.006102431,-0.273346354,1,0,0,9.649235,scale,,,,,,0.2468,0.2,0.302267034,0.244948974,stimuli/lakes/406074_left.png,stimuli/lakes/406074_right.png,,,,0,3,3,74,1,,,,,
,,,,,,,$5f088d02d931c10a63acc48f,2020-07-13_17h37.58.503,fisher_task,2020.1.3,MacIntel,60,-0.167604167,-0.406423611,1,0,0,2.233345,scale,,,,,,0.2468,0.2,0.302267034,0.244948974,stimuli/lakes/4080112_left.png,stimuli/lakes/4080112_right.png,,,,0,4,4,112,1,,,,,
,,,,,,,$5f088d02d931c10a63acc48f,2020-07-13_17h37.58.503,fisher_task,2020.1.3,MacIntel,60,-0.164748264,-0.430846354,1,0,0,1.732765,scale,,,,,,0.326485712,0.264575131,0.21373507,0.173205081,stimuli/lakes/707095_left.png,stimuli/lakes/707095_right.png,,,,0,5,5,95,1,,,,,
,,,,,,,$5f088d02d931c10a63acc48f,2020-07-13_17h37.58.503,fisher_task,2020.1.3,MacIntel,60,0.10687066,-0.302326389,1,0,0,7.048675,scale,,,,,,0.349027907,0.282842712,0.174513954,0.141421356,stimuli/lakes/804048_left.png,stimuli/lakes/804048_right.png,,,,0,6,6,48,1,,,,,
,,,,,,,$5f088d02d931c10a63acc48f,2020-07-13_17h37.58.503,fisher_task,2020.1.3,MacIntel,60,0.16296875,-0.424644097,1,0,0,3.56575,scale,,,,,,0.21373507,0.173205081,0.326485712,0.264575131,stimuli/lakes/302013_left.png,stimuli/lakes/302013_right.png,,,,0,7,7,13,1,,,,,
,,,,,,,$5f088d02d931c10a63acc48f,2020-07-13_17h37.58.503,fisher_task,2020.1.3,MacIntel,60,0.122109375,-0.327543403,1,0,0,2.33217,scale,,,,,,0.1234,0.1,0.3702,0.3,stimuli/lakes/104041_left.png,stimuli/lakes/104041_right.png,,,,0,8,8,41,1,,,,,
,,,,,,,$5f088d02d931c10a63acc48f,2020-07-13_17h37.58.503,fisher_task,2020.1.3,MacIntel,60,-0.114791667,-0.313055556,1,0,0,13.0335,scale,,,,,,0.1234,0.1,0.3702,0.3,stimuli/lakes/107089_left.png,stimuli/lakes/107089_right.png,,,,0,9,9,89,1,,,,,
,,,,,,,$5f088d02d931c10a63acc48f,2020-07-13_17h37.58.503,fisher_task,2020.1.3,MacIntel,60,-0.024210069,-0.260911458,1,0,0,3.432955,scale,,,,,,0.326485712,0.264575131,0.21373507,0.173205081,stimuli/lakes/705068_left.png,stimuli/lakes/705068_right.png,,,,0,10,10,68,1,,,,,
,,,,,,,$5f088d02d931c10a63acc48f,2020-07-13_17h37.58.503,fisher_task,2020.1.3,MacIntel,60,-0.164440104,-0.427539063,1,0,0,3.332505,scale,,,,,,0.2468,0.2,0.302267034,0.244948974,stimuli/lakes/4070101_left.png,stimuli/lakes/4070101_right.png,,,,0,11,11,101,1,,,,,
,,,,,,,$5f088d02d931c10a63acc48f,2020-07-13_17h37.58.503,fisher_task,2020.1.3,MacIntel,60,-0.121167535,-0.314774306,1,0,0,3.598955,scale,,,,,,0.3702,0.3,0.1234,0.1,stimuli/lakes/907097_left.png,stimuli/lakes/907097_right.png,,,,0,12,12,97,1,,,,,
,,,,,,,$5f088d02d931c10a63acc48f,2020-07-13_17h37.58.503,fisher_task,2020.1.3,MacIntel,60,-0.121167535,-0.314774306,1,0,0,1.74938,scale,,,,,,0.326485712,0.264575131,0.21373507,0.173205081,stimuli/lakes/704056_left.png,stimuli/lakes/704056_right.png,,,,0,13,13,56,1,,,,,
,,,,,,,$5f088d02d931c10a63acc48f,2020-07-13_17h37.58.503,fisher_task,2020.1.3,MacIntel,60,-0.161054687,-0.424140625,1,0,0,2.39915,scale,,,,,,0.2468,0.2,0.302267034,0.244948974,stimuli/lakes/4090123_left.png,stimuli/lakes/4090123_right.png,,,,0,14,14,123,1,,,,,
,,,,,,,$5f088d02d931c10a63acc48f,2020-07-13_17h37.58.503,fisher_task,2020.1.3,MacIntel,60,-0.172595486,-0.413381076,1,0,0,5.8003,scale,,,,,,0.275930788,0.223606798,0.275930788,0.223606798,stimuli/lakes/5080113_left.png,stimuli/lakes/5080113_right.png,,,,0,15,15,113,1,,,,,
,,,,,,,$5f088d02d931c10a63acc48f,2020-07-13_17h37.58.503,fisher_task,2020.1.3,MacIntel,60,-0.160677083,-0.420516493,1,0,0,1.43347,scale,,,,,,0.326485712,0.264575131,0.21373507,0.173205081,stimuli/lakes/7080116_left.png,stimuli/lakes/7080116_right.png,,,,0,16,16,116,1,,,,,
,,,,,,,$5f088d02d931c10a63acc48f,2020-07-13_17h37.58.503,fisher_task,2020.1.3,MacIntel,60,0.142565104,-0.348233507,1,0,0,2.85151,scale,,,,,,0.1234,0.1,0.3702,0.3,stimuli/lakes/103032_left.png,stimuli/lakes/103032_right.png,,,,0,17,17,32,1,,,,,
,,,,,,,$5f088d02d931c10a63acc48f,2020-07-13_17h37.58.503,fisher_task,2020.1.3,MacIntel,60,0.15124566,-0.393602431,1,0,0,1.698465,scale,,,,,,0.21373507,0.173205081,0.326485712,0.264575131,stimuli/lakes/303034_left.png,stimuli/lakes/303034_right.png,,,,0,18,18,34,1,,,,,
,,,,,,,$5f088d02d931c10a63acc48f,2020-07-13_17h37.58.503,fisher_task,2020.1.3,MacIntel,60,-0.004205729,-0.266610243,1,0,0,3.54953,scale,,,,,,0.3702,0.3,0.1234,0.1,stimuli/lakes/903031_left.png,stimuli/lakes/903031_right.png,,,,0,19,19,31,1,,,,,
,,,,,,,$5f088d02d931c10a63acc48f,2020-07-13_17h37.58.503,fisher_task,2020.1.3,MacIntel,60,0.146063368,-0.371180556,1,0,0,3.09923,scale,,,,,,0.302267034,0.244948974,0.2468,0.2,stimuli/lakes/60106_left.png,stimuli/lakes/60106_right.png,,,,0,20,20,6,1,,,,,
,,,,,,,$5f088d02d931c10a63acc48f,2020-07-13_17h37.58.503,fisher_task,2020.1.3,MacIntel,60,-0.083841146,-0.293155382,1,0,0,4.033435,scale,,,,,,0.275930788,0.223606798,0.275930788,0.223606798,stimuli/lakes/506075_left.png,stimuli/lakes/506075_right.png,,,,0,21,21,75,1,,,,,
,,,,,,,$5f088d02d931c10a63acc48f,2020-07-13_17h37.58.503,fisher_task,2020.1.3,MacIntel,60,0.086909722,-0.291883681,1,0,0,3.198295,scale,,,,,,0.302267034,0.244948974,0.2468,0.2,stimuli/lakes/602017_left.png,stimuli/lakes/602017_right.png,,,space,0,22,22,17,1,99.09693,,,,
,,,,,,,$5f088d02d931c10a63acc48f,2020-07-13_17h37.58.503,fisher_task,2020.1.3,MacIntel,60,0.104257813,-0.303363715,1,0,0,7.681825,scale,,,,,,0.3702,0.3,0.1234,0.1,stimuli/lakes/901010_left.png,stimuli/lakes/901010_right.png,,,,0,23,23,10,1,,,,,
,,,,,,,$5f088d02d931c10a63acc48f,2020-07-13_17h37.58.503,fisher_task,2020.1.3,MacIntel,60,-0.162786458,-0.421740451,1,0,0,8.499385,scale,,,,,,0.1234,0.1,0.3702,0.3,stimuli/lakes/1090119_left.png,stimuli/lakes/1090119_right.png,,,,0,24,24,119,1,,,,,
,,,,,,,$5f088d02d931c10a63acc48f,2020-07-13_17h37.58.503,fisher_task,2020.1.3,MacIntel,60,0.120147569,-0.31530816,1,0,0,3.19839,scale,,,,,,0.302267034,0.244948974,0.2468,0.2,stimuli/lakes/602018_left.png,stimuli/lakes/602018_right.png,,,,0,25,25,18,1,,,,,
,,,,,,,$5f088d02d931c10a63acc48f,2020-07-13_17h37.58.503,fisher_task,2020.1.3,MacIntel,60,0.154700521,-0.422916667,1,0,0,3.74929,scale,,,,,,0.2468,0.2,0.302267034,0.244948974,stimuli/lakes/40103_left.png,stimuli/lakes/40103_right.png,,,,0,26,26,3,1,,,,,
,,,,,,,$5f088d02d931c10a63acc48f,2020-07-13_17h37.58.503,fisher_task,2020.1.3,MacIntel,60,0.129474826,-0.328693576,1,0,0,2.500275,scale,,,,,,0.275930788,0.223606798,0.275930788,0.223606798,stimuli/lakes/503027_left.png,stimuli/lakes/503027_right.png,,,,0,27,27,27,1,,,,,
,,,,,,,$5f088d02d931c10a63acc48f,2020-07-13_17h37.58.503,fisher_task,2020.1.3,MacIntel,60,-0.008376736,-0.255950521,1,0,0,3.382365,scale,,,,,,0.326485712,0.264575131,0.21373507,0.173205081,stimuli/lakes/704047_left.png,stimuli/lakes/704047_right.png,,,,0,28,28,47,1,,,,,
,,,,,,,$5f088d02d931c10a63acc48f,2020-07-13_17h37.58.503,fisher_task,2020.1.3,MacIntel,60,-0.007599826,-0.254327257,1,0,0,1.44908,scale,,,,,,0.3702,0.3,0.1234,0.1,stimuli/lakes/904049_left.png,stimuli/lakes/904049_right.png,,,,0,29,29,49,1,,,,,
,,,,,,,$5f088d02d931c10a63acc48f,2020-07-13_17h37.58.503,fisher_task,2020.1.3,MacIntel,60,0.150950521,-0.418081597,1,0,0,4.16556,scale,,,,,,0.174513954,0.141421356,0.349027907,0.282842712,stimuli/lakes/203033_left.png,stimuli/lakes/203033_right.png,,,,0,30,30,33,1,,,,,
,,,,,,,$5f088d02d931c10a63acc48f,2020-07-13_17h37.58.503,fisher_task,2020.1.3,MacIntel,60,0.058263889,-0.265477431,1,0,0,3.88327,scale,,,,,,0.3702,0.3,0.1234,0.1,stimuli/lakes/902022_left.png,stimuli/lakes/902022_right.png,,,,0,31,31,22,1,,,,,
,,,,,,,$5f088d02d931c10a63acc48f,2020-07-13_17h37.58.503,fisher_task,2020.1.3,MacIntel,60,-0.170034722,-0.414631076,1,0,0,4.583615,scale,,,,,,0.302267034,0.244948974,0.2468,0.2,stimuli/lakes/6080115_left.png,stimuli/lakes/6080115_right.png,,,,0,32,32,115,1,,,,,
,,,,,,,$5f088d02d931c10a63acc48f,2020-07-13_17h37.58.503,fisher_task,2020.1.3,MacIntel,60,0.150577257,-0.340186632,1,0,0,2.64959,scale,,,,,,0.326485712,0.264575131,0.21373507,0.173205081,stimuli/lakes/70108_left.png,stimuli/lakes/70108_right.png,,,,0,33,33,8,1,,,,,
,,,,,,,$5f088d02d931c10a63acc48f,2020-07-13_17h37.58.503,fisher_task,2020.1.3,MacIntel,60,0.058033854,-0.292738715,1,0,0,3.615985,scale,,,,,,0.21373507,0.173205081,0.326485712,0.264575131,stimuli/lakes/305061_left.png,stimuli/lakes/305061_right.png,,,,0,34,34,61,1,,,,,
,,,,,,,$5f088d02d931c10a63acc48f,2020-07-13_17h37.58.503,fisher_task,2020.1.3,MacIntel,60,0.164969618,-0.374908854,1,0,0,12.399345,scale,,,,,,0.326485712,0.264575131,0.21373507,0.173205081,stimuli/lakes/703038_left.png,stimuli/lakes/703038_right.png,,,,0,35,35,38,1,,,,,
,,,,,,,$5f088d02d931c10a63acc48f,2020-07-13_17h37.58.503,fisher_task,2020.1.3,MacIntel,60,-0.131770833,-0.332387153,1,0,0,1.283355,scale,,,,,,0.349027907,0.282842712,0.174513954,0.141421356,stimuli/lakes/807096_left.png,stimuli/lakes/807096_right.png,,,,0,36,36,96,1,,,,,
,,,,,,,$5f088d02d931c10a63acc48f,2020-07-13_17h37.58.503,fisher_task,2020.1.3,MacIntel,60,-0.118858507,-0.316671007,1,0,0,2.783435,scale,,,,,,0.21373507,0.173205081,0.326485712,0.264575131,stimuli/lakes/306073_left.png,stimuli/lakes/306073_right.png,,,,0,37,37,73,1,,,,,
,,,,,,,$5f088d02d931c10a63acc48f,2020-07-13_17h37.58.503,fisher_task,2020.1.3,MacIntel,60,0.084657118,-0.298619792,1,0,0,2.06692,scale,,,,,,0.349027907,0.282842712,0.174513954,0.141421356,stimuli/lakes/80109_left.png,stimuli/lakes/80109_right.png,,,,0,38,38,9,1,,,,,
,,,,,,,$5f088d02d931c10a63acc48f,2020-07-13_17h37.58.503,fisher_task,2020.1.3,MacIntel,60,0.108624132,-0.318776042,1,0,0,3.04935,scale,,,,,,0.21373507,0.173205081,0.326485712,0.264575131,stimuli/lakes/307091_left.png,stimuli/lakes/307091_right.png,,,,0,39,39,91,1,,,,,
,,,,,,,$5f088d02d931c10a63acc48f,2020-07-13_17h37.58.503,fisher_task,2020.1.3,MacIntel,60,0.158424479,-0.41953125,1,0,0,2.3667,scale,,,,,,0.275930788,0.223606798,0.275930788,0.223606798,stimuli/lakes/50104_left.png,stimuli/lakes/50104_right.png,,,,0,40,40,4,1,,,,,
,,,,,,,$5f088d02d931c10a63acc48f,2020-07-13_17h37.58.503,fisher_task,2020.1.3,MacIntel,60,0.077699653,-0.294965278,1,0,0,4.750655,scale,,,,,,0.174513954,0.141421356,0.349027907,0.282842712,stimuli/lakes/207099_left.png,stimuli/lakes/207099_right.png,,,,0,41,41,99,1,,,,,
,,,,,,,$5f088d02d931c10a63acc48f,2020-07-13_17h37.58.503,fisher_task,2020.1.3,MacIntel,60,-0.154796007,-0.430907118,1,0,0,2.11605,scale,,,,,,0.302267034,0.244948974,0.2468,0.2,stimuli/lakes/6090126_left.png,stimuli/lakes/6090126_right.png,,,,0,42,42,126,1,,,,,
,,,,,,,$5f088d02d931c10a63acc48f,2020-07-13_17h37.58.503,fisher_task,2020.1.3,MacIntel,60,0.103038194,-0.299921875,1,0,0,4.383125,scale,,,,,,0.326485712,0.264575131,0.21373507,0.173205081,stimuli/lakes/702020_left.png,stimuli/lakes/702020_right.png,,,,0,43,43,20,1,,,,,
,,,,,,,$5f088d02d931c10a63acc48f,2020-07-13_17h37.58.503,fisher_task,2020.1.3,MacIntel,60,-0.092096354,-0.296775174,1,0,0,1.584205,scale,,,,,,0.326485712,0.264575131,0.21373507,0.173205081,stimuli/lakes/705067_left.png,stimuli/lakes/705067_right.png,,,space,0,44,44,67,1,77.34,,,,
,,,,,,,$5f088d02d931c10a63acc48f,2020-07-13_17h37.58.503,fisher_task,2020.1.3,MacIntel,60,-0.116041667,-0.301223958,1,0,0,1.99937,scale,,,,,,0.302267034,0.244948974,0.2468,0.2,stimuli/lakes/605066_left.png,stimuli/lakes/605066_right.png,,,,0,45,45,66,1,,,,,
,,,,,,,$5f088d02d931c10a63acc48f,2020-07-13_17h37.58.503,fisher_task,2020.1.3,MacIntel,60,0.132699653,-0.341744792,1,0,0,1.532315,scale,,,,,,0.2468,0.2,0.302267034,0.244948974,stimuli/lakes/403035_left.png,stimuli/lakes/403035_right.png,,,,0,46,46,35,1,,,,,
,,,,,,,$5f088d02d931c10a63acc48f,2020-07-13_17h37.58.503,fisher_task,2020.1.3,MacIntel,60,0.100138889,-0.312374132,1,0,0,3.61607,scale,,,,,,0.21373507,0.173205081,0.326485712,0.264575131,stimuli/lakes/304052_left.png,stimuli/lakes/304052_right.png,,,,0,47,47,52,1,,,,,
,,,,,,,$5f088d02d931c10a63acc48f,2020-07-13_17h37.58.503,fisher_task,2020.1.3,MacIntel,60,0.134739583,-0.344153646,1,0,0,2.499855,scale,,,,,,0.174513954,0.141421356,0.349027907,0.282842712,stimuli/lakes/203024_left.png,stimuli/lakes/203024_right.png,,,,0,48,48,24,1,,,,,
,,,,,,,$5f088d02d931c10a63acc48f,2020-07-13_17h37.58.503,fisher_task,2020.1.3,MacIntel,60,0.128897569,-0.332717014,1,0,0,3.349565,scale,,,,,,0.3702,0.3,0.1234,0.1,stimuli/lakes/903040_left.png,stimuli/lakes/903040_right.png,,,,0,49,49,40,1,,,,,
,,,,,,,$5f088d02d931c10a63acc48f,2020-07-13_17h37.58.503,fisher_task,2020.1.3,MacIntel,60,-0.152413194,-0.422486979,1,0,0,3.865305,scale,,,,,,0.21373507,0.173205081,0.326485712,0.264575131,stimuli/lakes/3090122_left.png,stimuli/lakes/3090122_right.png,,,,0,50,50,122,1,,,,,
,,,,,,,$5f088d02d931c10a63acc48f,2020-07-13_17h37.58.503,fisher_task,2020.1.3,MacIntel,60,-0.107282986,-0.324448785,1,0,0,4.499695,scale,,,,,,0.275930788,0.223606798,0.275930788,0.223606798,stimuli/lakes/506084_left.png,stimuli/lakes/506084_right.png,,,,0,51,51,84,1,,,,,
,,,,,,,$5f088d02d931c10a63acc48f,2020-07-13_17h37.58.503,fisher_task,2020.1.3,MacIntel,60,0.097074653,-0.287309028,1,0,0,2.198615,scale,,,,,,0.302267034,0.244948974,0.2468,0.2,stimuli/lakes/604046_left.png,stimuli/lakes/604046_right.png,,,,0,52,52,46,1,,,,,
,,,,,,,$5f088d02d931c10a63acc48f,2020-07-13_17h37.58.503,fisher_task,2020.1.3,MacIntel,60,0.149414063,-0.420243056,1,0,0,1.466205,scale,,,,,,0.275930788,0.223606798,0.275930788,0.223606798,stimuli/lakes/502016_left.png,stimuli/lakes/502016_right.png,,,,0,53,53,16,1,,,,,
,,,,,,,$5f088d02d931c10a63acc48f,2020-07-13_17h37.58.503,fisher_task,2020.1.3,MacIntel,60,-0.148077257,-0.420763889,1,0,0,4.931925,scale,,,,,,0.349027907,0.282842712,0.174513954,0.141421356,stimuli/lakes/806087_left.png,stimuli/lakes/806087_right.png,,,,0,54,54,87,1,,,,,
,,,,,,,$5f088d02d931c10a63acc48f,2020-07-13_17h37.58.503,fisher_task,2020.1.3,MacIntel,60,-0.007669271,-0.259982639,1,0,0,2.948905,scale,,,,,,0.1234,0.1,0.3702,0.3,stimuli/lakes/106080_left.png,stimuli/lakes/106080_right.png,,,,0,55,55,80,1,,,,,
,,,,,,,$5f088d02d931c10a63acc48f,2020-07-13_17h37.58.503,fisher_task,2020.1.3,MacIntel,60,-0.161484375,-0.427404514,1,0,0,2.133535,scale,,,,,,0.275930788,0.223606798,0.275930788,0.223606798,stimuli/lakes/5090125_left.png,stimuli/lakes/5090125_right.png,,,,0,56,56,125,1,,,,,
,,,,,,,$5f088d02d931c10a63acc48f,2020-07-13_17h37.58.503,fisher_task,2020.1.3,MacIntel,60,0.145212674,-0.428190104,1,0,0,1.60033,scale,,,,,,0.2468,0.2,0.302267034,0.244948974,stimuli/lakes/40102_left.png,stimuli/lakes/40102_right.png,,,,0,57,57,2,1,,,,,
,,,,,,,$5f088d02d931c10a63acc48f,2020-07-13_17h37.58.503,fisher_task,2020.1.3,MacIntel,60,0.086545139,-0.296019965,1,0,0,6.098055,scale,,,,,,0.3702,0.3,0.1234,0.1,stimuli/lakes/904058_left.png,stimuli/lakes/904058_right.png,,,,0,58,58,58,1,,,,,
,,,,,,,$5f088d02d931c10a63acc48f,2020-07-13_17h37.58.503,fisher_task,2020.1.3,MacIntel,60,0.151953125,-0.424965278,1,0,0,1.999645,scale,,,,,,0.2468,0.2,0.302267034,0.244948974,stimuli/lakes/404044_left.png,stimuli/lakes/404044_right.png,,,,0,59,59,44,1,,,,,
,,,,,,,$5f088d02d931c10a63acc48f,2020-07-13_17h37.58.503,fisher_task,2020.1.3,MacIntel,60,0.12875,-0.325091146,1,0,0,3.814645,scale,,,,,,0.349027907,0.282842712,0.174513954,0.141421356,stimuli/lakes/804057_left.png,stimuli/lakes/804057_right.png,,,,0,60,60,57,1,,,,,
,,,,,,,$5f088d02d931c10a63acc48f,2020-07-13_17h37.58.503,fisher_task,2020.1.3,MacIntel,60,0.12875,-0.325091146,1,0,0,1.998545,scale,,,,,,0.326485712,0.264575131,0.21373507,0.173205081,stimuli/lakes/703029_left.png,stimuli/lakes/703029_right.png,,,,0,61,61,29,1,,,,,
,,,,,,,$5f088d02d931c10a63acc48f,2020-07-13_17h37.58.503,fisher_task,2020.1.3,MacIntel,60,0.176493056,-0.435199653,1,0,0,1.8998,scale,,,,,,0.21373507,0.173205081,0.326485712,0.264575131,stimuli/lakes/30101_left.png,stimuli/lakes/30101_right.png,,,,0,62,62,1,1,,,,,
,,,,,,,$5f088d02d931c10a63acc48f,2020-07-13_17h37.58.503,fisher_task,2020.1.3,MacIntel,60,-0.133172743,-0.326970486,1,0,0,5.48228,scale,,,,,,0.1234,0.1,0.3702,0.3,stimuli/lakes/105059_left.png,stimuli/lakes/105059_right.png,,,,0,63,63,59,1,,,,,
,,,,,,,$5f088d02d931c10a63acc48f,2020-07-13_17h37.58.503,fisher_task,2020.1.3,MacIntel,60,-0.112165799,-0.317092014,1,0,0,2.783175,scale,,,,,,0.3702,0.3,0.1234,0.1,stimuli/lakes/906088_left.png,stimuli/lakes/906088_right.png,,,,0,64,64,88,1,,,,,
,,,,,,,$5f088d02d931c10a63acc48f,2020-07-13_17h37.58.503,fisher_task,2020.1.3,MacIntel,60,-0.10999566,-0.301484375,1,0,0,1.983325,scale,,,,,,0.1234,0.1,0.3702,0.3,stimuli/lakes/107098_left.png,stimuli/lakes/107098_right.png,,,,0,65,65,98,1,,,,,
,,,,,,,$5f088d02d931c10a63acc48f,2020-07-13_17h37.58.503,fisher_task,2020.1.3,MacIntel,60,0.11390191,-0.319796007,1,0,0,1.54895,scale,,,,,,0.275930788,0.223606798,0.275930788,0.223606798,stimuli/lakes/504054_left.png,stimuli/lakes/504054_right.png,,,space,0,66,66,54,1,42.32049,,,,
,,,,,,,$5f088d02d931c10a63acc48f,2020-07-13_17h37.58.503,fisher_task,2020.1.3,MacIntel,60,-0.180121528,-0.422534722,1,0,0,1.550025,scale,,,,,,0.326485712,0.264575131,0.21373507,0.173205081,stimuli/lakes/7070104_left.png,stimuli/lakes/7070104_right.png,,,,0,67,67,104,1,,,,,
,,,,,,,$5f088d02d931c10a63acc48f,2020-07-13_17h37.58.503,fisher_task,2020.1.3,MacIntel,60,0.125902778,-0.33859375,1,0,0,1.24803,scale,,,,,,0.2468,0.2,0.302267034,0.244948974,stimuli/lakes/404053_left.png,stimuli/lakes/404053_right.png,,,,0,68,68,53,1,,,,,
,,,,,,,$5f088d02d931c10a63acc48f,2020-07-13_17h37.58.503,fisher_task,2020.1.3,MacIntel,60,-0.156510417,-0.421927083,1,0,0,1.68284,scale,,,,,,0.326485712,0.264575131,0.21373507,0.173205081,stimuli/lakes/7080117_left.png,stimuli/lakes/7080117_right.png,,,,0,69,69,117,1,,,,,
,,,,,,,$5f088d02d931c10a63acc48f,2020-07-13_17h37.58.503,fisher_task,2020.1.3,MacIntel,60,-0.116896701,-0.333224826,1,0,0,1.049645,scale,,,,,,0.326485712,0.264575131,0.21373507,0.173205081,stimuli/lakes/7090129_left.png,stimuli/lakes/7090129_right.png,,,,0,70,70,129,1,,,,,
,,,,,,,$5f088d02d931c10a63acc48f,2020-07-13_17h37.58.503,fisher_task,2020.1.3,MacIntel,60,-0.133381076,-0.36218316,1,0,0,0.98184,scale,,,,,,0.302267034,0.244948974,0.2468,0.2,stimuli/lakes/607094_left.png,stimuli/lakes/607094_right.png,,,,0,71,71,94,1,,,,,
,,,,,,,$5f088d02d931c10a63acc48f,2020-07-13_17h37.58.503,fisher_task,2020.1.3,MacIntel,60,0.087734375,-0.291588542,1,0,0,8.133035,scale,,,,,,0.21373507,0.173205081,0.326485712,0.264575131,stimuli/lakes/3090121_left.png,stimuli/lakes/3090121_right.png,,,,0,72,72,121,1,,,,,
,,,,,,,$5f088d02d931c10a63acc48f,2020-07-13_17h37.58.503,fisher_task,2020.1.3,MacIntel,60,0.110529514,-0.322296007,1,0,0,4.08324,scale,,,,,,0.2468,0.2,0.302267034,0.244948974,stimuli/lakes/403026_left.png,stimuli/lakes/403026_right.png,,,,0,73,73,26,1,,,,,
,,,,,,,$5f088d02d931c10a63acc48f,2020-07-13_17h37.58.503,fisher_task,2020.1.3,MacIntel,60,-0.121922743,-0.32390191,1,0,0,2.48288,scale,,,,,,0.21373507,0.173205081,0.326485712,0.264575131,stimuli/lakes/3080109_left.png,stimuli/lakes/3080109_right.png,,,,0,74,74,109,1,,,,,
,,,,,,,$5f088d02d931c10a63acc48f,2020-07-13_17h37.58.503,fisher_task,2020.1.3,MacIntel,60,-0.137578125,-0.340043403,1,0,0,3.08323,scale,,,,,,0.1234,0.1,0.3702,0.3,stimuli/lakes/106071_left.png,stimuli/lakes/106071_right.png,,,,0,75,75,71,1,,,,,
,,,,,,,$5f088d02d931c10a63acc48f,2020-07-13_17h37.58.503,fisher_task,2020.1.3,MacIntel,60,-0.126323785,-0.303164062,1,0,0,4.66651,scale,,,,,,0.21373507,0.173205081,0.326485712,0.264575131,stimuli/lakes/3070100_left.png,stimuli/lakes/3070100_right.png,,,,0,76,76,100,1,,,,,
,,,,,,,$5f088d02d931c10a63acc48f,2020-07-13_17h37.58.503,fisher_task,2020.1.3,MacIntel,60,-0.013216146,-0.258654514,1,0,0,4.93274,scale,,,,,,0.349027907,0.282842712,0.174513954,0.141421356,stimuli/lakes/805069_left.png,stimuli/lakes/805069_right.png,,,,0,77,77,69,1,,,,,
,,,,,,,$5f088d02d931c10a63acc48f,2020-07-13_17h37.58.503,fisher_task,2020.1.3,MacIntel,60,0.162491319,-0.426189236,1,0,0,2.699975,scale,,,,,,0.2468,0.2,0.302267034,0.244948974,stimuli/lakes/402014_left.png,stimuli/lakes/402014_right.png,,,,0,78,78,14,1,,,,,
,,,,,,,$5f088d02d931c10a63acc48f,2020-07-13_17h37.58.503,fisher_task,2020.1.3,MacIntel,60,-0.131588542,-0.339123264,1,0,0,2.13278,scale,,,,,,0.326485712,0.264575131,0.21373507,0.173205081,stimuli/lakes/706077_left.png,stimuli/lakes/706077_right.png,,,,0,79,79,77,1,,,,,
,,,,,,,$5f088d02d931c10a63acc48f,2020-07-13_17h37.58.503,fisher_task,2020.1.3,MacIntel,60,-0.130655382,-0.337330729,1,0,0,1.71579,scale,,,,,,0.3702,0.3,0.1234,0.1,stimuli/lakes/9070106_left.png,stimuli/lakes/9070106_right.png,,,,0,80,80,106,1,,,,,
,,,,,,,$5f088d02d931c10a63acc48f,2020-07-13_17h37.58.503,fisher_task,2020.1.3,MacIntel,60,0.142213542,-0.323953993,1,0,0,3.632755,scale,,,,,,0.326485712,0.264575131,0.21373507,0.173205081,stimuli/lakes/70107_left.png,stimuli/lakes/70107_right.png,,,,0,81,81,7,1,,,,,
,,,,,,,$5f088d02d931c10a63acc48f,2020-07-13_17h37.58.503,fisher_task,2020.1.3,MacIntel,60,-0.10109809,-0.305342882,1,0,0,4.81597,scale,,,,,,0.174513954,0.141421356,0.349027907,0.282842712,stimuli/lakes/2090120_left.png,stimuli/lakes/2090120_right.png,,,,0,82,82,120,1,,,,,
,,,,,,,$5f088d02d931c10a63acc48f,2020-07-13_17h37.58.503,fisher_task,2020.1.3,MacIntel,60,0.136427951,-0.34655816,1,0,0,2.916545,scale,,,,,,0.1234,0.1,0.3702,0.3,stimuli/lakes/1080107_left.png,stimuli/lakes/1080107_right.png,,,,0,83,83,107,1,,,,,
,,,,,,,$5f088d02d931c10a63acc48f,2020-07-13_17h37.58.503,fisher_task,2020.1.3,MacIntel,60,0.13405816,-0.349986979,1,0,0,2.2842,scale,,,,,,0.275930788,0.223606798,0.275930788,0.223606798,stimuli/lakes/504045_left.png,stimuli/lakes/504045_right.png,,,,0,84,84,45,1,,,,,
,,,,,,,$5f088d02d931c10a63acc48f,2020-07-13_17h37.58.503,fisher_task,2020.1.3,MacIntel,60,-0.143559028,-0.333059896,1,0,0,2.86745,scale,,,,,,0.2468,0.2,0.302267034,0.244948974,stimuli/lakes/405063_left.png,stimuli/lakes/405063_right.png,,,,0,85,85,63,1,,,,,
,,,,,,,$5f088d02d931c10a63acc48f,2020-07-13_17h37.58.503,fisher_task,2020.1.3,MacIntel,60,0.129648437,-0.351263021,1,0,0,1.216535,scale,,,,,,0.174513954,0.141421356,0.349027907,0.282842712,stimuli/lakes/204051_left.png,stimuli/lakes/204051_right.png,,,,0,86,86,51,1,,,,,
,,,,,,,$5f088d02d931c10a63acc48f,2020-07-13_17h37.58.503,fisher_task,2020.1.3,MacIntel,60,-0.16124566,-0.426705729,1,0,0,1.48384,scale,,,,,,0.326485712,0.264575131,0.21373507,0.173205081,stimuli/lakes/7090128_left.png,stimuli/lakes/7090128_right.png,,,,0,87,87,128,1,,,,,
,,,,,,,$5f088d02d931c10a63acc48f,2020-07-13_17h37.58.503,fisher_task,2020.1.3,MacIntel,60,0.09358941,-0.286614583,1,0,0,3.04791,scale,,,,,,0.349027907,0.282842712,0.174513954,0.141421356,stimuli/lakes/802021_left.png,stimuli/lakes/802021_right.png,,,space,0,88,88,21,1,1.584705,,,,
,,,,,,,$5f088d02d931c10a63acc48f,2020-07-13_17h37.58.503,fisher_task,2020.1.3,MacIntel,60,-0.109453125,-0.315698785,1,0,0,1.931875,scale,,,,,,0.2468,0.2,0.302267034,0.244948974,stimuli/lakes/406083_left.png,stimuli/lakes/406083_right.png,,,,0,89,89,83,1,,,,,
,,,,,,,$5f088d02d931c10a63acc48f,2020-07-13_17h37.58.503,fisher_task,2020.1.3,MacIntel,60,0.101358507,-0.303815104,1,0,0,1.382745,scale,,,,,,0.349027907,0.282842712,0.174513954,0.141421356,stimuli/lakes/803030_left.png,stimuli/lakes/803030_right.png,,,,0,90,90,30,1,,,,,
,,,,,,,$5f088d02d931c10a63acc48f,2020-07-13_17h37.58.503,fisher_task,2020.1.3,MacIntel,60,0.174157986,-0.431618924,1,0,0,2.66536,scale,,,,,,0.302267034,0.244948974,0.2468,0.2,stimuli/lakes/60105_left.png,stimuli/lakes/60105_right.png,,,,0,91,91,5,1,,,,,
,,,,,,,$5f088d02d931c10a63acc48f,2020-07-13_17h37.58.503,fisher_task,2020.1.3,MacIntel,60,0.121219618,-0.321106771,1,0,0,4.08317,scale,,,,,,0.275930788,0.223606798,0.275930788,0.223606798,stimuli/lakes/503036_left.png,stimuli/lakes/503036_right.png,,,,0,92,92,36,1,,,,,
,,,,,,,$5f088d02d931c10a63acc48f,2020-07-13_17h37.58.503,fisher_task,2020.1.3,MacIntel,60,-0.120646701,-0.331419271,1,0,0,1.766375,scale,,,,,,0.3702,0.3,0.1234,0.1,stimuli/lakes/905070_left.png,stimuli/lakes/905070_right.png,,,,0,93,93,70,1,,,,,
,,,,,,,$5f088d02d931c10a63acc48f,2020-07-13_17h37.58.503,fisher_task,2020.1.3,MacIntel,60,-0.117083333,-0.331419271,1,0,0,4.35001,scale,,,,,,0.302267034,0.244948974,0.2468,0.2,stimuli/lakes/606076_left.png,stimuli/lakes/606076_right.png,,,,0,94,94,76,1,,,,,
,,,,,,,$5f088d02d931c10a63acc48f,2020-07-13_17h37.58.503,fisher_task,2020.1.3,MacIntel,60,0.157217882,-0.416137153,1,0,0,1.69863,scale,,,,,,0.21373507,0.173205081,0.326485712,0.264575131,stimuli/lakes/30100_left.png,stimuli/lakes/30100_right.png,,,,0,95,95,0,1,,,,,
,,,,,,,$5f088d02d931c10a63acc48f,2020-07-13_17h37.58.503,fisher_task,2020.1.3,MacIntel,60,0.131284722,-0.324105903,1,0,0,1.38237,scale,,,,,,0.2468,0.2,0.302267034,0.244948974,stimuli/lakes/402015_left.png,stimuli/lakes/402015_right.png,,,,0,96,96,15,1,,,,,
,,,,,,,$5f088d02d931c10a63acc48f,2020-07-13_17h37.58.503,fisher_task,2020.1.3,MacIntel,60,0.166280382,-0.413641493,1,0,0,1.58283,scale,,,,,,0.1234,0.1,0.3702,0.3,stimuli/lakes/103023_left.png,stimuli/lakes/103023_right.png,,,,0,97,97,23,1,,,,,
,,,,,,,$5f088d02d931c10a63acc48f,2020-07-13_17h37.58.503,fisher_task,2020.1.3,MacIntel,60,-0.158624132,-0.408489583,1,0,0,3.115785,scale,,,,,,0.2468,0.2,0.302267034,0.244948974,stimuli/lakes/4090124_left.png,stimuli/lakes/4090124_right.png,,,,0,98,98,124,1,,,,,
,,,,,,,$5f088d02d931c10a63acc48f,2020-07-13_17h37.58.503,fisher_task,2020.1.3,MacIntel,60,0.150121528,-0.406532118,1,0,0,2.082845,scale,,,,,,0.174513954,0.141421356,0.349027907,0.282842712,stimuli/lakes/202011_left.png,stimuli/lakes/202011_right.png,,,,0,99,99,11,1,,,,,
,,,,,,,$5f088d02d931c10a63acc48f,2020-07-13_17h37.58.503,fisher_task,2020.1.3,MacIntel,60,-0.101323785,-0.308155382,1,0,0,1.41653,scale,,,,,,0.2468,0.2,0.302267034,0.244948974,stimuli/lakes/407092_left.png,stimuli/lakes/407092_right.png,,,,0,100,100,92,1,,,,,
,,,,,,,$5f088d02d931c10a63acc48f,2020-07-13_17h37.58.503,fisher_task,2020.1.3,MacIntel,60,0.078802083,-0.273919271,1,0,0,2.64939,scale,,,,,,0.302267034,0.244948974,0.2468,0.2,stimuli/lakes/604055_left.png,stimuli/lakes/604055_right.png,,,,0,101,101,55,1,,,,,
,,,,,,,$5f088d02d931c10a63acc48f,2020-07-13_17h37.58.503,fisher_task,2020.1.3,MacIntel,60,-0.160542535,-0.412873264,1,0,0,1.43294,scale,,,,,,0.349027907,0.282842712,0.174513954,0.141421356,stimuli/lakes/806078_left.png,stimuli/lakes/806078_right.png,,,,0,102,102,78,1,,,,,
,,,,,,,$5f088d02d931c10a63acc48f,2020-07-13_17h37.58.503,fisher_task,2020.1.3,MacIntel,60,-0.127552083,-0.338381076,1,0,0,1.300735,scale,,,,,,0.174513954,0.141421356,0.349027907,0.282842712,stimuli/lakes/2080108_left.png,stimuli/lakes/2080108_right.png,,,,0,103,103,108,1,,,,,
,,,,,,,$5f088d02d931c10a63acc48f,2020-07-13_17h37.58.503,fisher_task,2020.1.3,MacIntel,60,0.128250868,-0.319466146,1,0,0,1.266945,scale,,,,,,0.21373507,0.173205081,0.326485712,0.264575131,stimuli/lakes/304043_left.png,stimuli/lakes/304043_right.png,,,,0,104,104,43,1,,,,,
,,,,,,,$5f088d02d931c10a63acc48f,2020-07-13_17h37.58.503,fisher_task,2020.1.3,MacIntel,60,-0.148650174,-0.412552083,1,0,0,1.450095,scale,,,,,,0.349027907,0.282842712,0.174513954,0.141421356,stimuli/lakes/8080118_left.png,stimuli/lakes/8080118_right.png,,,,0,105,105,118,1,,,,,
,,,,,,,$5f088d02d931c10a63acc48f,2020-07-13_17h37.58.503,fisher_task,2020.1.3,MacIntel,60,0.090516493,-0.308541667,1,0,0,1.666115,scale,,,,,,0.174513954,0.141421356,0.349027907,0.282842712,stimuli/lakes/206081_left.png,stimuli/lakes/206081_right.png,,,,0,106,106,81,1,,,,,
,,,,,,,$5f088d02d931c10a63acc48f,2020-07-13_17h37.58.503,fisher_task,2020.1.3,MacIntel,60,0.071380208,-0.30344184,1,0,0,4.866775,scale,,,,,,0.21373507,0.173205081,0.326485712,0.264575131,stimuli/lakes/305062_left.png,stimuli/lakes/305062_right.png,,,,0,107,107,62,1,,,,,
,,,,,,,$5f088d02d931c10a63acc48f,2020-07-13_17h37.58.503,fisher_task,2020.1.3,MacIntel,60,0.166588542,-0.412083333,1,0,0,1.8164,scale,,,,,,0.21373507,0.173205081,0.326485712,0.264575131,stimuli/lakes/303025_left.png,stimuli/lakes/303025_right.png,,,,0,108,108,25,1,,,,,
,,,,,,,$5f088d02d931c10a63acc48f,2020-07-13_17h37.58.503,fisher_task,2020.1.3,MacIntel,60,0.163159722,-0.420507813,1,0,0,1.99876,scale,,,,,,0.174513954,0.141421356,0.349027907,0.282842712,stimuli/lakes/204042_left.png,stimuli/lakes/204042_right.png,,,,0,109,109,42,1,,,,,
,,,,,,,$5f088d02d931c10a63acc48f,2020-07-13_17h37.58.503,fisher_task,2020.1.3,MacIntel,60,-0.1084375,-0.303984375,1,0,0,2.83334,scale,,,,,,0.21373507,0.173205081,0.326485712,0.264575131,stimuli/lakes/3080110_left.png,stimuli/lakes/3080110_right.png,,,space,0,110,110,110,1,1.40525,,,,
,,,,,,,$5f088d02d931c10a63acc48f,2020-07-13_17h37.58.503,fisher_task,2020.1.3,MacIntel,60,-0.149722222,-0.421163194,1,0,0,1.900325,scale,,,,,,0.302267034,0.244948974,0.2468,0.2,stimuli/lakes/6090127_left.png,stimuli/lakes/6090127_right.png,,,,0,111,111,127,1,,,,,
,,,,,,,$5f088d02d931c10a63acc48f,2020-07-13_17h37.58.503,fisher_task,2020.1.3,MacIntel,60,-0.126054688,-0.341310764,1,0,0,1.28303,scale,,,,,,0.302267034,0.244948974,0.2468,0.2,stimuli/lakes/605065_left.png,stimuli/lakes/605065_right.png,,,,0,112,112,65,1,,,,,
,,,,,,,$5f088d02d931c10a63acc48f,2020-07-13_17h37.58.503,fisher_task,2020.1.3,MacIntel,60,0.117122396,-0.311419271,1,0,0,1.33339,scale,,,,,,0.2468,0.2,0.302267034,0.244948974,stimuli/lakes/405064_left.png,stimuli/lakes/405064_right.png,,,,0,113,113,64,1,,,,,
,,,,,,,$5f088d02d931c10a63acc48f,2020-07-13_17h37.58.503,fisher_task,2020.1.3,MacIntel,60,0.153125,-0.414887153,1,0,0,1.733795,scale,,,,,,0.21373507,0.173205081,0.326485712,0.264575131,stimuli/lakes/302012_left.png,stimuli/lakes/302012_right.png,,,,0,114,114,12,1,,,,,
,,,,,,,$5f088d02d931c10a63acc48f,2020-07-13_17h37.58.503,fisher_task,2020.1.3,MacIntel,60,-0.108246528,-0.316306424,1,0,0,6.38332,scale,,,,,,0.174513954,0.141421356,0.349027907,0.282842712,stimuli/lakes/206072_left.png,stimuli/lakes/206072_right.png,,,,0,115,115,72,1,,,,,
,,,,,,,$5f088d02d931c10a63acc48f,2020-07-13_17h37.58.503,fisher_task,2020.1.3,MacIntel,60,-0.108246528,-0.316306424,1,0,0,0.61641,scale,,,,,,0.302267034,0.244948974,0.2468,0.2,stimuli/lakes/6080114_left.png,stimuli/lakes/6080114_right.png,,,,0,116,116,114,1,,,,,
,,,,,,,$5f088d02d931c10a63acc48f,2020-07-13_17h37.58.503,fisher_task,2020.1.3,MacIntel,60,-0.15328125,-0.422703993,1,0,0,1.16582,scale,,,,,,0.302267034,0.244948974,0.2468,0.2,stimuli/lakes/6070103_left.png,stimuli/lakes/6070103_right.png,,,,0,117,117,103,1,,,,,
,,,,,,,$5f088d02d931c10a63acc48f,2020-07-13_17h37.58.503,fisher_task,2020.1.3,MacIntel,60,-0.095642361,-0.307730035,1,0,0,2.416865,scale,,,,,,0.2468,0.2,0.302267034,0.244948974,stimuli/lakes/4080111_left.png,stimuli/lakes/4080111_right.png,,,,0,118,118,111,1,,,,,
,,,,,,,$5f088d02d931c10a63acc48f,2020-07-13_17h37.58.503,fisher_task,2020.1.3,MacIntel,60,-0.113233507,-0.345998264,1,0,0,2.299865,scale,,,,,,0.174513954,0.141421356,0.349027907,0.282842712,stimuli/lakes/207090_left.png,stimuli/lakes/207090_right.png,,,,0,119,119,90,1,,,,,
,,,,,,,$5f088d02d931c10a63acc48f,2020-07-13_17h37.58.503,fisher_task,2020.1.3,MacIntel,60,0.137682292,-0.363177083,1,0,0,2.41617,scale,,,,,,0.1234,0.1,0.3702,0.3,stimuli/lakes/104050_left.png,stimuli/lakes/104050_right.png,,,,0,120,120,50,1,,,,,
,,,,,,,$5f088d02d931c10a63acc48f,2020-07-13_17h37.58.503,fisher_task,2020.1.3,MacIntel,60,-0.132417535,-0.331440972,1,0,0,2.849705,scale,,,,,,0.302267034,0.244948974,0.2468,0.2,stimuli/lakes/603037_left.png,stimuli/lakes/603037_right.png,,,,0,121,121,37,1,,,,,
,,,,,,,$5f088d02d931c10a63acc48f,2020-07-13_17h37.58.503,fisher_task,2020.1.3,MacIntel,60,0.15655816,-0.404735243,1,0,0,1.61508,scale,,,,,,0.174513954,0.141421356,0.349027907,0.282842712,stimuli/lakes/205060_left.png,stimuli/lakes/205060_right.png,,,,0,122,122,60,1,,,,,
,,,,,,,$5f088d02d931c10a63acc48f,2020-07-13_17h37.58.503,fisher_task,2020.1.3,MacIntel,60,-0.149227431,-0.343085937,1,0,0,1.066545,scale,,,,,,0.3702,0.3,0.1234,0.1,stimuli/lakes/906079_left.png,stimuli/lakes/906079_right.png,,,,0,123,123,79,1,,,,,
,,,,,,,$5f088d02d931c10a63acc48f,2020-07-13_17h37.58.503,fisher_task,2020.1.3,MacIntel,60,0.119865451,-0.309943576,1,0,0,2.833515,scale,,,,,,0.21373507,0.173205081,0.326485712,0.264575131,stimuli/lakes/306082_left.png,stimuli/lakes/306082_right.png,,,,0,124,124,82,1,,,,,
,,,,,,,$5f088d02d931c10a63acc48f,2020-07-13_17h37.58.503,fisher_task,2020.1.3,MacIntel,60,-0.152361111,-0.351258681,1,0,0,0.94996,scale,,,,,,0.302267034,0.244948974,0.2468,0.2,stimuli/lakes/606085_left.png,stimuli/lakes/606085_right.png,,,,0,125,125,85,1,,,,,
,,,,,,,$5f088d02d931c10a63acc48f,2020-07-13_17h37.58.503,fisher_task,2020.1.3,MacIntel,60,0.105985243,-0.286427951,1,0,0,3.916135,scale,,,,,,0.349027907,0.282842712,0.174513954,0.141421356,stimuli/lakes/803039_left.png,stimuli/lakes/803039_right.png,,,,0,126,126,39,1,,,,,
,,,,,,,$5f088d02d931c10a63acc48f,2020-07-13_17h37.58.503,fisher_task,2020.1.3,MacIntel,60,-0.172556424,-0.419283854,1,0,0,1.44994,scale,,,,,,0.349027907,0.282842712,0.174513954,0.141421356,stimuli/lakes/8070105_left.png,stimuli/lakes/8070105_right.png,,,,0,127,127,105,1,,,,,
,,,,,,,$5f088d02d931c10a63acc48f,2020-07-13_17h37.58.503,fisher_task,2020.1.3,MacIntel,60,-0.10140625,-0.311610243,1,0,0,1.816535,scale,,,,,,0.326485712,0.264575131,0.21373507,0.173205081,stimuli/lakes/702019_left.png,stimuli/lakes/702019_right.png,,,,0,128,128,19,1,,,,,
,,,,,,,$5f088d02d931c10a63acc48f,2020-07-13_17h37.58.503,fisher_task,2020.1.3,MacIntel,60,-0.152851563,-0.424878472,1,0,0,1.966545,scale,,,,,,0.275930788,0.223606798,0.275930788,0.223606798,stimuli/lakes/5070102_left.png,stimuli/lakes/5070102_right.png,,,,0,129,129,102,1,,,,,
,,,,,,,$5f088d02d931c10a63acc48f,2020-07-13_17h37.58.503,fisher_task,2020.1.3,MacIntel,60,,,,,,,,,,,,,,,,,,,,,,,,,,,,space,10.98354,space,36.850575
