keySpace.keys,instructions.thisRepN,instructions.thisTrialN,instructions.thisN,instructions.thisIndex,instructions.ran,participant,date,expName,psychopyVersion,OS,frameRate,mouse.x,mouse.y,mouse.leftButton,mouse.midButton,mouse.rightButton,mouse.time,mouse.clicked_name,training.thisRepN,training.thisTrialN,training.thisN,training.thisIndex,training.ran,widthBasketLeft,heightBasketLeft,widthBasketRight,heightBasketRight,leftLake,rightLake,space2.keys,space2.rt,space1.keys,trials.thisRepN,trials.thisTrialN,trials.thisN,trials.thisIndex,trials.ran,space1.rt,finalSpace1.keys,finalSpace1.rt,finalSpace2.keys,finalSpace2.rt
,0,0,0,0,1,$5ea44b1b5d02233fc9406ddf,2020-07-20_20h49.14.942,fisher_task,2020.1.3,Win32,60,,,,,,,,,,,,,,,,,,,,,,,,,,,,,,,
,,,,,,$5ea44b1b5d02233fc9406ddf,2020-07-20_20h49.14.942,fisher_task,2020.1.3,Win32,60,0.102864583,-0.313802083,1,0,0,5.23193,scale,0,0,0,0,1,0.275930788,0.223606798,0.275930788,0.223606798,stimuli/training/20_left.png,stimuli/training/20_right.png,,,,,,,,,,,,,
,,,,,,$5ea44b1b5d02233fc9406ddf,2020-07-20_20h49.14.942,fisher_task,2020.1.3,Win32,60,-0.161458333,-0.434895833,1,0,0,2.34878,scale,0,1,1,1,1,0.275930788,0.223606798,0.275930788,0.223606798,stimuli/training/80_left.png,stimuli/training/80_right.png,,,,,,,,,,,,,
,,,,,,$5ea44b1b5d02233fc9406ddf,2020-07-20_20h49.14.942,fisher_task,2020.1.3,Win32,60,0.061197917,-0.26953125,1,0,0,4.34776,scale,0,2,2,2,1,0.174513954,0.141421356,0.349027907,0.282842712,stimuli/training/50_left.png,stimuli/training/50_right.png,,,,,,,,,,,,,
,,,,,,$5ea44b1b5d02233fc9406ddf,2020-07-20_20h49.14.942,fisher_task,2020.1.3,Win32,60,-0.145833333,-0.359375,1,0,0,3.947765,scale,0,3,3,3,1,0.349027907,0.282842712,0.174513954,0.141421356,stimuli/training/50_left.png,stimuli/training/50_right.png,,,,,,,,,,,,,
,,,,,,$5ea44b1b5d02233fc9406ddf,2020-07-20_20h49.14.942,fisher_task,2020.1.3,Win32,60,-0.001302083,-0.2578125,1,0,0,2.44874,scale,0,4,4,4,1,0.275930788,0.223606798,0.275930788,0.223606798,stimuli/training/50_left.png,stimuli/training/50_right.png,,,,,,,,,,,,,
,,,,,,$5ea44b1b5d02233fc9406ddf,2020-07-20_20h49.14.942,fisher_task,2020.1.3,Win32,60,0.174479167,-0.430989583,1,0,0,1.64873,scale,0,5,5,5,1,0.174513954,0.141421356,0.349027907,0.282842712,stimuli/training/20_left.png,stimuli/training/20_right.png,,,,,,,,,,,,,
,,,,,,$5ea44b1b5d02233fc9406ddf,2020-07-20_20h49.14.942,fisher_task,2020.1.3,Win32,60,-0.134114583,-0.434895833,1,0,0,1.43263,scale,0,6,6,6,1,0.349027907,0.282842712,0.174513954,0.141421356,stimuli/training/80_left.png,stimuli/training/80_right.png,,,,,,,,,,,,,
,,,,,,$5ea44b1b5d02233fc9406ddf,2020-07-20_20h49.14.942,fisher_task,2020.1.3,Win32,60,0.174479167,-0.432291667,1,0,0,1.59956,scale,0,7,7,7,1,0.1234,0.1,0.3702,0.3,stimuli/training/30_left.png,stimuli/training/30_right.png,,,,,,,,,,,,,
,,,,,,$5ea44b1b5d02233fc9406ddf,2020-07-20_20h49.14.942,fisher_task,2020.1.3,Win32,60,-0.135416667,-0.430989583,1,0,0,1.21569,scale,0,8,8,8,1,0.3702,0.3,0.1234,0.1,stimuli/training/70_left.png,stimuli/training/70_right.png,,,,,,,,,,,,,
,,,,,,$5ea44b1b5d02233fc9406ddf,2020-07-20_20h49.14.942,fisher_task,2020.1.3,Win32,60,-0.145833333,-0.43359375,1,0,0,1.48279,scale,0,9,9,9,1,0.326485712,0.264575131,0.21373507,0.173205081,stimuli/training/90_left.png,stimuli/training/90_right.png,,,,,,,,,,,,,
,,,,,,$5ea44b1b5d02233fc9406ddf,2020-07-20_20h49.14.942,fisher_task,2020.1.3,Win32,60,0.178385417,-0.434895833,1,0,0,1.649785,scale,0,10,10,10,1,0.21373507,0.173205081,0.326485712,0.264575131,stimuli/training/10_left.png,stimuli/training/10_right.png,,,,,,,,,,,,,
,,,,,,$5ea44b1b5d02233fc9406ddf,2020-07-20_20h49.14.942,fisher_task,2020.1.3,Win32,60,-0.151041667,-0.43359375,1,0,0,1.48215,scale,,,,,,0.349027907,0.282842712,0.174513954,0.141421356,stimuli/lakes/806087_left.png,stimuli/lakes/806087_right.png,space,6.80398,,0,0,0,87,1,,,,,
,,,,,,$5ea44b1b5d02233fc9406ddf,2020-07-20_20h49.14.942,fisher_task,2020.1.3,Win32,60,-0.147135417,-0.428385417,1,0,0,2.631825,scale,,,,,,0.2468,0.2,0.302267034,0.244948974,stimuli/lakes/4070101_left.png,stimuli/lakes/4070101_right.png,,,,0,1,1,101,1,,,,,
,,,,,,$5ea44b1b5d02233fc9406ddf,2020-07-20_20h49.14.942,fisher_task,2020.1.3,Win32,60,-0.14453125,-0.430989583,1,0,0,1.34868,scale,,,,,,0.326485712,0.264575131,0.21373507,0.173205081,stimuli/lakes/7080117_left.png,stimuli/lakes/7080117_right.png,,,,0,2,2,117,1,,,,,
,,,,,,$5ea44b1b5d02233fc9406ddf,2020-07-20_20h49.14.942,fisher_task,2020.1.3,Win32,60,0.165364583,-0.419270833,1,0,0,1.831315,scale,,,,,,0.2468,0.2,0.302267034,0.244948974,stimuli/lakes/403035_left.png,stimuli/lakes/403035_right.png,,,,0,3,3,35,1,,,,,
,,,,,,$5ea44b1b5d02233fc9406ddf,2020-07-20_20h49.14.942,fisher_task,2020.1.3,Win32,60,-0.076822917,-0.274739583,1,0,0,2.848355,scale,,,,,,0.326485712,0.264575131,0.21373507,0.173205081,stimuli/lakes/705067_left.png,stimuli/lakes/705067_right.png,,,,0,4,4,67,1,,,,,
,,,,,,$5ea44b1b5d02233fc9406ddf,2020-07-20_20h49.14.942,fisher_task,2020.1.3,Win32,60,-0.126302083,-0.432291667,1,0,0,1.5657,scale,,,,,,0.349027907,0.282842712,0.174513954,0.141421356,stimuli/lakes/806078_left.png,stimuli/lakes/806078_right.png,,,,0,5,5,78,1,,,,,
,,,,,,$5ea44b1b5d02233fc9406ddf,2020-07-20_20h49.14.942,fisher_task,2020.1.3,Win32,60,-0.061197917,-0.26953125,1,0,0,2.865285,scale,,,,,,0.1234,0.1,0.3702,0.3,stimuli/lakes/107098_left.png,stimuli/lakes/107098_right.png,,,,0,6,6,98,1,,,,,
,,,,,,$5ea44b1b5d02233fc9406ddf,2020-07-20_20h49.14.942,fisher_task,2020.1.3,Win32,60,0.153645833,-0.354166667,1,0,0,2.264435,scale,,,,,,0.302267034,0.244948974,0.2468,0.2,stimuli/lakes/604055_left.png,stimuli/lakes/604055_right.png,,,,0,7,7,55,1,,,,,
,,,,,,$5ea44b1b5d02233fc9406ddf,2020-07-20_20h49.14.942,fisher_task,2020.1.3,Win32,60,-0.165364583,-0.421875,1,0,0,1.248395,scale,,,,,,0.326485712,0.264575131,0.21373507,0.173205081,stimuli/lakes/7080116_left.png,stimuli/lakes/7080116_right.png,,,,0,8,8,116,1,,,,,
,,,,,,$5ea44b1b5d02233fc9406ddf,2020-07-20_20h49.14.942,fisher_task,2020.1.3,Win32,60,0.16796875,-0.43359375,1,0,0,1.43268,scale,,,,,,0.2468,0.2,0.302267034,0.244948974,stimuli/lakes/404044_left.png,stimuli/lakes/404044_right.png,,,,0,9,9,44,1,,,,,
,,,,,,$5ea44b1b5d02233fc9406ddf,2020-07-20_20h49.14.942,fisher_task,2020.1.3,Win32,60,-0.014322917,-0.256510417,1,0,0,2.24866,scale,,,,,,0.21373507,0.173205081,0.326485712,0.264575131,stimuli/lakes/307091_left.png,stimuli/lakes/307091_right.png,,,,0,10,10,91,1,,,,,
,,,,,,$5ea44b1b5d02233fc9406ddf,2020-07-20_20h49.14.942,fisher_task,2020.1.3,Win32,60,0.115885417,-0.334635417,1,0,0,2.748655,scale,,,,,,0.174513954,0.141421356,0.349027907,0.282842712,stimuli/lakes/205060_left.png,stimuli/lakes/205060_right.png,,,,0,11,11,60,1,,,,,
,,,,,,$5ea44b1b5d02233fc9406ddf,2020-07-20_20h49.14.942,fisher_task,2020.1.3,Win32,60,0.114583333,-0.305989583,1,0,0,3.08162,scale,,,,,,0.275930788,0.223606798,0.275930788,0.223606798,stimuli/lakes/504054_left.png,stimuli/lakes/504054_right.png,,,,0,12,12,54,1,,,,,
,,,,,,$5ea44b1b5d02233fc9406ddf,2020-07-20_20h49.14.942,fisher_task,2020.1.3,Win32,60,-0.110677083,-0.305989583,1,0,0,3.481675,scale,,,,,,0.2468,0.2,0.302267034,0.244948974,stimuli/lakes/4080111_left.png,stimuli/lakes/4080111_right.png,,,,0,13,13,111,1,,,,,
,,,,,,$5ea44b1b5d02233fc9406ddf,2020-07-20_20h49.14.942,fisher_task,2020.1.3,Win32,60,-0.141927083,-0.36328125,1,0,0,3.731685,scale,,,,,,0.1234,0.1,0.3702,0.3,stimuli/lakes/1090119_left.png,stimuli/lakes/1090119_right.png,,,,0,14,14,119,1,,,,,
,,,,,,$5ea44b1b5d02233fc9406ddf,2020-07-20_20h49.14.942,fisher_task,2020.1.3,Win32,60,0.119791667,-0.290364583,1,0,0,4.281275,scale,,,,,,0.349027907,0.282842712,0.174513954,0.141421356,stimuli/lakes/803030_left.png,stimuli/lakes/803030_right.png,,,,0,15,15,30,1,,,,,
,,,,,,$5ea44b1b5d02233fc9406ddf,2020-07-20_20h49.14.942,fisher_task,2020.1.3,Win32,60,0.110677083,-0.337239583,1,0,0,3.065885,scale,,,,,,0.1234,0.1,0.3702,0.3,stimuli/lakes/104050_left.png,stimuli/lakes/104050_right.png,,,,0,16,16,50,1,,,,,
,,,,,,$5ea44b1b5d02233fc9406ddf,2020-07-20_20h49.14.942,fisher_task,2020.1.3,Win32,60,-0.15625,-0.436197917,1,0,0,1.515675,scale,,,,,,0.3702,0.3,0.1234,0.1,stimuli/lakes/907097_left.png,stimuli/lakes/907097_right.png,,,,0,17,17,97,1,,,,,
,,,,,,$5ea44b1b5d02233fc9406ddf,2020-07-20_20h49.14.942,fisher_task,2020.1.3,Win32,60,-0.059895833,-0.2578125,1,0,0,2.4657,scale,,,,,,0.174513954,0.141421356,0.349027907,0.282842712,stimuli/lakes/2090120_left.png,stimuli/lakes/2090120_right.png,,,,0,18,18,120,1,,,,,
,,,,,,$5ea44b1b5d02233fc9406ddf,2020-07-20_20h49.14.942,fisher_task,2020.1.3,Win32,60,-0.131510417,-0.317708333,1,0,0,3.598665,scale,,,,,,0.302267034,0.244948974,0.2468,0.2,stimuli/lakes/607094_left.png,stimuli/lakes/607094_right.png,,,,0,19,19,94,1,,,,,
,,,,,,$5ea44b1b5d02233fc9406ddf,2020-07-20_20h49.14.942,fisher_task,2020.1.3,Win32,60,0.14453125,-0.36328125,1,0,0,3.232755,scale,,,,,,0.275930788,0.223606798,0.275930788,0.223606798,stimuli/lakes/502016_left.png,stimuli/lakes/502016_right.png,,,,0,20,20,16,1,,,,,
,,,,,,$5ea44b1b5d02233fc9406ddf,2020-07-20_20h49.14.942,fisher_task,2020.1.3,Win32,60,-0.174479167,-0.43359375,1,0,0,2.73151,scale,,,,,,0.2468,0.2,0.302267034,0.244948974,stimuli/lakes/4090124_left.png,stimuli/lakes/4090124_right.png,,,,0,21,21,124,1,,,,,
,,,,,,$5ea44b1b5d02233fc9406ddf,2020-07-20_20h49.14.942,fisher_task,2020.1.3,Win32,60,0.147135417,-0.399739583,1,0,0,1.565825,scale,,,,,,0.21373507,0.173205081,0.326485712,0.264575131,stimuli/lakes/302013_left.png,stimuli/lakes/302013_right.png,,,space,0,22,22,13,1,7.54533,,,,
,,,,,,$5ea44b1b5d02233fc9406ddf,2020-07-20_20h49.14.942,fisher_task,2020.1.3,Win32,60,0.139322917,-0.368489583,1,0,0,2.64907,scale,,,,,,0.1234,0.1,0.3702,0.3,stimuli/lakes/105059_left.png,stimuli/lakes/105059_right.png,,,,0,23,23,59,1,,,,,
,,,,,,$5ea44b1b5d02233fc9406ddf,2020-07-20_20h49.14.942,fisher_task,2020.1.3,Win32,60,-0.145833333,-0.399739583,1,0,0,2.34966,scale,,,,,,0.302267034,0.244948974,0.2468,0.2,stimuli/lakes/606076_left.png,stimuli/lakes/606076_right.png,,,,0,24,24,76,1,,,,,
,,,,,,$5ea44b1b5d02233fc9406ddf,2020-07-20_20h49.14.942,fisher_task,2020.1.3,Win32,60,-0.006510417,-0.2578125,1,0,0,5.78144,scale,,,,,,0.3702,0.3,0.1234,0.1,stimuli/lakes/904049_left.png,stimuli/lakes/904049_right.png,,,,0,25,25,49,1,,,,,
,,,,,,$5ea44b1b5d02233fc9406ddf,2020-07-20_20h49.14.942,fisher_task,2020.1.3,Win32,60,0.15625,-0.411458333,1,0,0,2.314655,scale,,,,,,0.2468,0.2,0.302267034,0.244948974,stimuli/lakes/403026_left.png,stimuli/lakes/403026_right.png,,,,0,26,26,26,1,,,,,
,,,,,,$5ea44b1b5d02233fc9406ddf,2020-07-20_20h49.14.942,fisher_task,2020.1.3,Win32,60,-0.1484375,-0.32421875,1,0,0,1.89864,scale,,,,,,0.21373507,0.173205081,0.326485712,0.264575131,stimuli/lakes/3090122_left.png,stimuli/lakes/3090122_right.png,,,,0,27,27,122,1,,,,,
,,,,,,$5ea44b1b5d02233fc9406ddf,2020-07-20_20h49.14.942,fisher_task,2020.1.3,Win32,60,0.1015625,-0.305989583,1,0,0,2.798635,scale,,,,,,0.326485712,0.264575131,0.21373507,0.173205081,stimuli/lakes/704047_left.png,stimuli/lakes/704047_right.png,,,,0,28,28,47,1,,,,,
,,,,,,$5ea44b1b5d02233fc9406ddf,2020-07-20_20h49.14.942,fisher_task,2020.1.3,Win32,60,-0.127604167,-0.428385417,1,0,0,1.69875,scale,,,,,,0.326485712,0.264575131,0.21373507,0.173205081,stimuli/lakes/7070104_left.png,stimuli/lakes/7070104_right.png,,,,0,29,29,104,1,,,,,
,,,,,,$5ea44b1b5d02233fc9406ddf,2020-07-20_20h49.14.942,fisher_task,2020.1.3,Win32,60,-0.149739583,-0.41796875,1,0,0,1.76553,scale,,,,,,0.2468,0.2,0.302267034,0.244948974,stimuli/lakes/4080112_left.png,stimuli/lakes/4080112_right.png,,,,0,30,30,112,1,,,,,
,,,,,,$5ea44b1b5d02233fc9406ddf,2020-07-20_20h49.14.942,fisher_task,2020.1.3,Win32,60,-0.16015625,-0.4296875,1,0,0,1.382705,scale,,,,,,0.2468,0.2,0.302267034,0.244948974,stimuli/lakes/4090123_left.png,stimuli/lakes/4090123_right.png,,,,0,31,31,123,1,,,,,
,,,,,,$5ea44b1b5d02233fc9406ddf,2020-07-20_20h49.14.942,fisher_task,2020.1.3,Win32,60,0.15234375,-0.430989583,1,0,0,2.332885,scale,,,,,,0.1234,0.1,0.3702,0.3,stimuli/lakes/103023_left.png,stimuli/lakes/103023_right.png,,,,0,32,32,23,1,,,,,
,,,,,,$5ea44b1b5d02233fc9406ddf,2020-07-20_20h49.14.942,fisher_task,2020.1.3,Win32,60,0.151041667,-0.38671875,1,0,0,2.98247,scale,,,,,,0.326485712,0.264575131,0.21373507,0.173205081,stimuli/lakes/70107_left.png,stimuli/lakes/70107_right.png,,,,0,33,33,7,1,,,,,
,,,,,,$5ea44b1b5d02233fc9406ddf,2020-07-20_20h49.14.942,fisher_task,2020.1.3,Win32,60,0.141927083,-0.337239583,1,0,0,4.76467,scale,,,,,,0.302267034,0.244948974,0.2468,0.2,stimuli/lakes/603028_left.png,stimuli/lakes/603028_right.png,,,,0,34,34,28,1,,,,,
,,,,,,$5ea44b1b5d02233fc9406ddf,2020-07-20_20h49.14.942,fisher_task,2020.1.3,Win32,60,-0.154947917,-0.368489583,1,0,0,3.131335,scale,,,,,,0.1234,0.1,0.3702,0.3,stimuli/lakes/106071_left.png,stimuli/lakes/106071_right.png,,,,0,35,35,71,1,,,,,
,,,,,,$5ea44b1b5d02233fc9406ddf,2020-07-20_20h49.14.942,fisher_task,2020.1.3,Win32,60,-0.165364583,-0.4296875,1,0,0,1.299525,scale,,,,,,0.326485712,0.264575131,0.21373507,0.173205081,stimuli/lakes/7090128_left.png,stimuli/lakes/7090128_right.png,,,,0,36,36,128,1,,,,,
,,,,,,$5ea44b1b5d02233fc9406ddf,2020-07-20_20h49.14.942,fisher_task,2020.1.3,Win32,60,-0.15234375,-0.38671875,1,0,0,1.99984,scale,,,,,,0.326485712,0.264575131,0.21373507,0.173205081,stimuli/lakes/705068_left.png,stimuli/lakes/705068_right.png,,,,0,37,37,68,1,,,,,
,,,,,,$5ea44b1b5d02233fc9406ddf,2020-07-20_20h49.14.942,fisher_task,2020.1.3,Win32,60,-0.161458333,-0.432291667,1,0,0,1.498885,scale,,,,,,0.326485712,0.264575131,0.21373507,0.173205081,stimuli/lakes/7090129_left.png,stimuli/lakes/7090129_right.png,,,,0,38,38,129,1,,,,,
,,,,,,$5ea44b1b5d02233fc9406ddf,2020-07-20_20h49.14.942,fisher_task,2020.1.3,Win32,60,-0.166666667,-0.434895833,1,0,0,1.44967,scale,,,,,,0.349027907,0.282842712,0.174513954,0.141421356,stimuli/lakes/8070105_left.png,stimuli/lakes/8070105_right.png,,,,0,39,39,105,1,,,,,
,,,,,,$5ea44b1b5d02233fc9406ddf,2020-07-20_20h49.14.942,fisher_task,2020.1.3,Win32,60,-0.1328125,-0.424479167,1,0,0,1.249785,scale,,,,,,0.326485712,0.264575131,0.21373507,0.173205081,stimuli/lakes/706086_left.png,stimuli/lakes/706086_right.png,,,,0,40,40,86,1,,,,,
,,,,,,$5ea44b1b5d02233fc9406ddf,2020-07-20_20h49.14.942,fisher_task,2020.1.3,Win32,60,-0.145833333,-0.4140625,1,0,0,1.06546,scale,,,,,,0.326485712,0.264575131,0.21373507,0.173205081,stimuli/lakes/706077_left.png,stimuli/lakes/706077_right.png,,,,0,41,41,77,1,,,,,
,,,,,,$5ea44b1b5d02233fc9406ddf,2020-07-20_20h49.14.942,fisher_task,2020.1.3,Win32,60,-0.140625,-0.352864583,1,0,0,1.66662,scale,,,,,,0.3702,0.3,0.1234,0.1,stimuli/lakes/904058_left.png,stimuli/lakes/904058_right.png,,,,0,42,42,58,1,,,,,
,,,,,,$5ea44b1b5d02233fc9406ddf,2020-07-20_20h49.14.942,fisher_task,2020.1.3,Win32,60,-0.118489583,-0.317708333,1,0,0,1.24963,scale,,,,,,0.174513954,0.141421356,0.349027907,0.282842712,stimuli/lakes/207090_left.png,stimuli/lakes/207090_right.png,,,,0,43,43,90,1,,,,,
,,,,,,$5ea44b1b5d02233fc9406ddf,2020-07-20_20h49.14.942,fisher_task,2020.1.3,Win32,60,-0.1484375,-0.356770833,1,0,0,1.63262,scale,,,,,,0.275930788,0.223606798,0.275930788,0.223606798,stimuli/lakes/5070102_left.png,stimuli/lakes/5070102_right.png,,,space,0,44,44,102,1,2.147205,,,,
,,,,,,$5ea44b1b5d02233fc9406ddf,2020-07-20_20h49.14.942,fisher_task,2020.1.3,Win32,60,-0.157552083,-0.40234375,1,0,0,2.249775,scale,,,,,,0.21373507,0.173205081,0.326485712,0.264575131,stimuli/lakes/3090121_left.png,stimuli/lakes/3090121_right.png,,,,0,45,45,121,1,,,,,
,,,,,,$5ea44b1b5d02233fc9406ddf,2020-07-20_20h49.14.942,fisher_task,2020.1.3,Win32,60,-0.014322917,-0.265625,1,0,0,3.865265,scale,,,,,,0.2468,0.2,0.302267034,0.244948974,stimuli/lakes/405063_left.png,stimuli/lakes/405063_right.png,,,,0,46,46,63,1,,,,,
,,,,,,$5ea44b1b5d02233fc9406ddf,2020-07-20_20h49.14.942,fisher_task,2020.1.3,Win32,60,-0.130208333,-0.337239583,1,0,0,4.031525,scale,,,,,,0.2468,0.2,0.302267034,0.244948974,stimuli/lakes/407092_left.png,stimuli/lakes/407092_right.png,,,,0,47,47,92,1,,,,,
,,,,,,$5ea44b1b5d02233fc9406ddf,2020-07-20_20h49.14.942,fisher_task,2020.1.3,Win32,60,-0.153645833,-0.342447917,1,0,0,3.132575,scale,,,,,,0.302267034,0.244948974,0.2468,0.2,stimuli/lakes/6070103_left.png,stimuli/lakes/6070103_right.png,,,,0,48,48,103,1,,,,,
,,,,,,$5ea44b1b5d02233fc9406ddf,2020-07-20_20h49.14.942,fisher_task,2020.1.3,Win32,60,0.158854167,-0.395833333,1,0,0,1.731685,scale,,,,,,0.21373507,0.173205081,0.326485712,0.264575131,stimuli/lakes/30100_left.png,stimuli/lakes/30100_right.png,,,,0,49,49,0,1,,,,,
,,,,,,$5ea44b1b5d02233fc9406ddf,2020-07-20_20h49.14.942,fisher_task,2020.1.3,Win32,60,0.153645833,-0.372395833,1,0,0,1.79895,scale,,,,,,0.21373507,0.173205081,0.326485712,0.264575131,stimuli/lakes/303034_left.png,stimuli/lakes/303034_right.png,,,,0,50,50,34,1,,,,,
,,,,,,$5ea44b1b5d02233fc9406ddf,2020-07-20_20h49.14.942,fisher_task,2020.1.3,Win32,60,0.157552083,-0.416666667,1,0,0,1.481755,scale,,,,,,0.174513954,0.141421356,0.349027907,0.282842712,stimuli/lakes/204042_left.png,stimuli/lakes/204042_right.png,,,,0,51,51,42,1,,,,,
,,,,,,$5ea44b1b5d02233fc9406ddf,2020-07-20_20h49.14.942,fisher_task,2020.1.3,Win32,60,0.141927083,-0.354166667,1,0,0,2.59867,scale,,,,,,0.174513954,0.141421356,0.349027907,0.282842712,stimuli/lakes/206072_left.png,stimuli/lakes/206072_right.png,,,,0,52,52,72,1,,,,,
,,,,,,$5ea44b1b5d02233fc9406ddf,2020-07-20_20h49.14.942,fisher_task,2020.1.3,Win32,60,0.065104167,-0.279947917,1,0,0,4.114575,scale,,,,,,0.326485712,0.264575131,0.21373507,0.173205081,stimuli/lakes/704056_left.png,stimuli/lakes/704056_right.png,,,,0,53,53,56,1,,,,,
,,,,,,$5ea44b1b5d02233fc9406ddf,2020-07-20_20h49.14.942,fisher_task,2020.1.3,Win32,60,-0.009114583,-0.2578125,1,0,0,2.181705,scale,,,,,,0.2468,0.2,0.302267034,0.244948974,stimuli/lakes/405064_left.png,stimuli/lakes/405064_right.png,,,,0,54,54,64,1,,,,,
,,,,,,$5ea44b1b5d02233fc9406ddf,2020-07-20_20h49.14.942,fisher_task,2020.1.3,Win32,60,0.138020833,-0.36328125,1,0,0,3.015745,scale,,,,,,0.326485712,0.264575131,0.21373507,0.173205081,stimuli/lakes/702019_left.png,stimuli/lakes/702019_right.png,,,,0,55,55,19,1,,,,,
,,,,,,$5ea44b1b5d02233fc9406ddf,2020-07-20_20h49.14.942,fisher_task,2020.1.3,Win32,60,0.147135417,-0.337239583,1,0,0,1.699625,scale,,,,,,0.21373507,0.173205081,0.326485712,0.264575131,stimuli/lakes/304043_left.png,stimuli/lakes/304043_right.png,,,,0,56,56,43,1,,,,,
,,,,,,$5ea44b1b5d02233fc9406ddf,2020-07-20_20h49.14.942,fisher_task,2020.1.3,Win32,60,-0.143229167,-0.348958333,1,0,0,1.48271,scale,,,,,,0.302267034,0.244948974,0.2468,0.2,stimuli/lakes/6080114_left.png,stimuli/lakes/6080114_right.png,,,,0,57,57,114,1,,,,,
,,,,,,$5ea44b1b5d02233fc9406ddf,2020-07-20_20h49.14.942,fisher_task,2020.1.3,Win32,60,0.040364583,-0.26953125,1,0,0,1.882845,scale,,,,,,0.174513954,0.141421356,0.349027907,0.282842712,stimuli/lakes/206081_left.png,stimuli/lakes/206081_right.png,,,,0,58,58,81,1,,,,,
,,,,,,$5ea44b1b5d02233fc9406ddf,2020-07-20_20h49.14.942,fisher_task,2020.1.3,Win32,60,0.1796875,-0.4296875,1,0,0,2.09885,scale,,,,,,0.2468,0.2,0.302267034,0.244948974,stimuli/lakes/40103_left.png,stimuli/lakes/40103_right.png,,,,0,59,59,3,1,,,,,
,,,,,,$5ea44b1b5d02233fc9406ddf,2020-07-20_20h49.14.942,fisher_task,2020.1.3,Win32,60,-0.15625,-0.38671875,1,0,0,1.79971,scale,,,,,,0.3702,0.3,0.1234,0.1,stimuli/lakes/906079_left.png,stimuli/lakes/906079_right.png,,,,0,60,60,79,1,,,,,
,,,,,,$5ea44b1b5d02233fc9406ddf,2020-07-20_20h49.14.942,fisher_task,2020.1.3,Win32,60,-0.0546875,-0.268229167,1,0,0,4.54866,scale,,,,,,0.2468,0.2,0.302267034,0.244948974,stimuli/lakes/406074_left.png,stimuli/lakes/406074_right.png,,,,0,61,61,74,1,,,,,
,,,,,,$5ea44b1b5d02233fc9406ddf,2020-07-20_20h49.14.942,fisher_task,2020.1.3,Win32,60,0.0625,-0.27734375,1,0,0,3.01566,scale,,,,,,0.326485712,0.264575131,0.21373507,0.173205081,stimuli/lakes/703038_left.png,stimuli/lakes/703038_right.png,,,,0,62,62,38,1,,,,,
,,,,,,$5ea44b1b5d02233fc9406ddf,2020-07-20_20h49.14.942,fisher_task,2020.1.3,Win32,60,0.1640625,-0.388020833,1,0,0,1.265715,scale,,,,,,0.2468,0.2,0.302267034,0.244948974,stimuli/lakes/402015_left.png,stimuli/lakes/402015_right.png,,,,0,63,63,15,1,,,,,
,,,,,,$5ea44b1b5d02233fc9406ddf,2020-07-20_20h49.14.942,fisher_task,2020.1.3,Win32,60,-0.14453125,-0.40625,1,0,0,1.54993,scale,,,,,,0.349027907,0.282842712,0.174513954,0.141421356,stimuli/lakes/807096_left.png,stimuli/lakes/807096_right.png,,,,0,64,64,96,1,,,,,
,,,,,,$5ea44b1b5d02233fc9406ddf,2020-07-20_20h49.14.942,fisher_task,2020.1.3,Win32,60,0.0625,-0.274739583,1,0,0,3.51547,scale,,,,,,0.21373507,0.173205081,0.326485712,0.264575131,stimuli/lakes/306073_left.png,stimuli/lakes/306073_right.png,,,,0,65,65,73,1,,,,,
,,,,,,$5ea44b1b5d02233fc9406ddf,2020-07-20_20h49.14.942,fisher_task,2020.1.3,Win32,60,-0.123697917,-0.315104167,1,0,0,2.06542,scale,,,,,,0.21373507,0.173205081,0.326485712,0.264575131,stimuli/lakes/3080110_left.png,stimuli/lakes/3080110_right.png,,,space,0,66,66,110,1,1.80116,,,,
,,,,,,$5ea44b1b5d02233fc9406ddf,2020-07-20_20h49.14.942,fisher_task,2020.1.3,Win32,60,-0.13671875,-0.360677083,1,0,0,1.71382,scale,,,,,,0.21373507,0.173205081,0.326485712,0.264575131,stimuli/lakes/3070100_left.png,stimuli/lakes/3070100_right.png,,,,0,67,67,100,1,,,,,
,,,,,,$5ea44b1b5d02233fc9406ddf,2020-07-20_20h49.14.942,fisher_task,2020.1.3,Win32,60,-0.140625,-0.3203125,1,0,0,2.065585,scale,,,,,,0.275930788,0.223606798,0.275930788,0.223606798,stimuli/lakes/507093_left.png,stimuli/lakes/507093_right.png,,,,0,68,68,93,1,,,,,
,,,,,,$5ea44b1b5d02233fc9406ddf,2020-07-20_20h49.14.942,fisher_task,2020.1.3,Win32,60,-0.079427083,-0.28125,1,0,0,2.515485,scale,,,,,,0.1234,0.1,0.3702,0.3,stimuli/lakes/107089_left.png,stimuli/lakes/107089_right.png,,,,0,69,69,89,1,,,,,
,,,,,,$5ea44b1b5d02233fc9406ddf,2020-07-20_20h49.14.942,fisher_task,2020.1.3,Win32,60,0.16796875,-0.427083333,1,0,0,1.415915,scale,,,,,,0.275930788,0.223606798,0.275930788,0.223606798,stimuli/lakes/50104_left.png,stimuli/lakes/50104_right.png,,,,0,70,70,4,1,,,,,
,,,,,,$5ea44b1b5d02233fc9406ddf,2020-07-20_20h49.14.942,fisher_task,2020.1.3,Win32,60,-0.1640625,-0.421875,1,0,0,1.633155,scale,,,,,,0.302267034,0.244948974,0.2468,0.2,stimuli/lakes/6090126_left.png,stimuli/lakes/6090126_right.png,,,,0,71,71,126,1,,,,,
,,,,,,$5ea44b1b5d02233fc9406ddf,2020-07-20_20h49.14.942,fisher_task,2020.1.3,Win32,60,0.157552083,-0.4375,1,0,0,1.41557,scale,,,,,,0.174513954,0.141421356,0.349027907,0.282842712,stimuli/lakes/204051_left.png,stimuli/lakes/204051_right.png,,,,0,72,72,51,1,,,,,
,,,,,,$5ea44b1b5d02233fc9406ddf,2020-07-20_20h49.14.942,fisher_task,2020.1.3,Win32,60,-0.158854167,-0.420572917,1,0,0,2.48144,scale,,,,,,0.302267034,0.244948974,0.2468,0.2,stimuli/lakes/6090127_left.png,stimuli/lakes/6090127_right.png,,,,0,73,73,127,1,,,,,
,,,,,,$5ea44b1b5d02233fc9406ddf,2020-07-20_20h49.14.942,fisher_task,2020.1.3,Win32,60,-0.139322917,-0.3828125,1,0,0,2.39883,scale,,,,,,0.174513954,0.141421356,0.349027907,0.282842712,stimuli/lakes/207099_left.png,stimuli/lakes/207099_right.png,,,,0,74,74,99,1,,,,,
,,,,,,$5ea44b1b5d02233fc9406ddf,2020-07-20_20h49.14.942,fisher_task,2020.1.3,Win32,60,0.162760417,-0.427083333,1,0,0,3.465285,scale,,,,,,0.174513954,0.141421356,0.349027907,0.282842712,stimuli/lakes/202011_left.png,stimuli/lakes/202011_right.png,,,,0,75,75,11,1,,,,,
,,,,,,$5ea44b1b5d02233fc9406ddf,2020-07-20_20h49.14.942,fisher_task,2020.1.3,Win32,60,0.165364583,-0.4296875,1,0,0,1.032575,scale,,,,,,0.21373507,0.173205081,0.326485712,0.264575131,stimuli/lakes/302012_left.png,stimuli/lakes/302012_right.png,,,,0,76,76,12,1,,,,,
,,,,,,$5ea44b1b5d02233fc9406ddf,2020-07-20_20h49.14.942,fisher_task,2020.1.3,Win32,60,0.140625,-0.377604167,1,0,0,5.064665,scale,,,,,,0.302267034,0.244948974,0.2468,0.2,stimuli/lakes/60105_left.png,stimuli/lakes/60105_right.png,,,,0,77,77,5,1,,,,,
,,,,,,$5ea44b1b5d02233fc9406ddf,2020-07-20_20h49.14.942,fisher_task,2020.1.3,Win32,60,-0.157552083,-0.43359375,1,0,0,1.465555,scale,,,,,,0.275930788,0.223606798,0.275930788,0.223606798,stimuli/lakes/5090125_left.png,stimuli/lakes/5090125_right.png,,,,0,78,78,125,1,,,,,
,,,,,,$5ea44b1b5d02233fc9406ddf,2020-07-20_20h49.14.942,fisher_task,2020.1.3,Win32,60,-0.0234375,-0.248697917,1,0,0,7.08061,scale,,,,,,0.21373507,0.173205081,0.326485712,0.264575131,stimuli/lakes/306082_left.png,stimuli/lakes/306082_right.png,,,,0,79,79,82,1,,,,,
,,,,,,$5ea44b1b5d02233fc9406ddf,2020-07-20_20h49.14.942,fisher_task,2020.1.3,Win32,60,0.134114583,-0.358072917,1,0,0,5.014605,scale,,,,,,0.302267034,0.244948974,0.2468,0.2,stimuli/lakes/602017_left.png,stimuli/lakes/602017_right.png,,,,0,80,80,17,1,,,,,
,,,,,,$5ea44b1b5d02233fc9406ddf,2020-07-20_20h49.14.942,fisher_task,2020.1.3,Win32,60,0.106770833,-0.2890625,1,0,0,1.59958,scale,,,,,,0.275930788,0.223606798,0.275930788,0.223606798,stimuli/lakes/503036_left.png,stimuli/lakes/503036_right.png,,,,0,81,81,36,1,,,,,
,,,,,,$5ea44b1b5d02233fc9406ddf,2020-07-20_20h49.14.942,fisher_task,2020.1.3,Win32,60,0.15234375,-0.39453125,1,0,0,3.88172,scale,,,,,,0.3702,0.3,0.1234,0.1,stimuli/lakes/901010_left.png,stimuli/lakes/901010_right.png,,,,0,82,82,10,1,,,,,
,,,,,,$5ea44b1b5d02233fc9406ddf,2020-07-20_20h49.14.942,fisher_task,2020.1.3,Win32,60,-0.016927083,-0.268229167,1,0,0,5.198685,scale,,,,,,0.302267034,0.244948974,0.2468,0.2,stimuli/lakes/604046_left.png,stimuli/lakes/604046_right.png,,,,0,83,83,46,1,,,,,
,,,,,,$5ea44b1b5d02233fc9406ddf,2020-07-20_20h49.14.942,fisher_task,2020.1.3,Win32,60,-0.10546875,-0.278645833,1,0,0,2.032695,scale,,,,,,0.275930788,0.223606798,0.275930788,0.223606798,stimuli/lakes/506084_left.png,stimuli/lakes/506084_right.png,,,,0,84,84,84,1,,,,,
,,,,,,$5ea44b1b5d02233fc9406ddf,2020-07-20_20h49.14.942,fisher_task,2020.1.3,Win32,60,-0.07421875,-0.259114583,1,0,0,4.26573,scale,,,,,,0.21373507,0.173205081,0.326485712,0.264575131,stimuli/lakes/3080109_left.png,stimuli/lakes/3080109_right.png,,,,0,85,85,109,1,,,,,
,,,,,,$5ea44b1b5d02233fc9406ddf,2020-07-20_20h49.14.942,fisher_task,2020.1.3,Win32,60,0.079427083,-0.28515625,1,0,0,3.915565,scale,,,,,,0.326485712,0.264575131,0.21373507,0.173205081,stimuli/lakes/703029_left.png,stimuli/lakes/703029_right.png,,,,0,86,86,29,1,,,,,
,,,,,,$5ea44b1b5d02233fc9406ddf,2020-07-20_20h49.14.942,fisher_task,2020.1.3,Win32,60,0.153645833,-0.359375,1,0,0,2.549585,scale,,,,,,0.302267034,0.244948974,0.2468,0.2,stimuli/lakes/60106_left.png,stimuli/lakes/60106_right.png,,,,0,87,87,6,1,,,,,
,,,,,,$5ea44b1b5d02233fc9406ddf,2020-07-20_20h49.14.942,fisher_task,2020.1.3,Win32,60,0.18359375,-0.4375,1,0,0,1.46574,scale,,,,,,0.2468,0.2,0.302267034,0.244948974,stimuli/lakes/402014_left.png,stimuli/lakes/402014_right.png,,,space,0,88,88,14,1,2.014285,,,,
,,,,,,$5ea44b1b5d02233fc9406ddf,2020-07-20_20h49.14.942,fisher_task,2020.1.3,Win32,60,0.04296875,-0.265625,1,0,0,5.53185,scale,,,,,,0.1234,0.1,0.3702,0.3,stimuli/lakes/106080_left.png,stimuli/lakes/106080_right.png,,,,0,89,89,80,1,,,,,
,,,,,,$5ea44b1b5d02233fc9406ddf,2020-07-20_20h49.14.942,fisher_task,2020.1.3,Win32,60,0.1484375,-0.359375,1,0,0,3.398565,scale,,,,,,0.2468,0.2,0.302267034,0.244948974,stimuli/lakes/404053_left.png,stimuli/lakes/404053_right.png,,,,0,90,90,53,1,,,,,
,,,,,,$5ea44b1b5d02233fc9406ddf,2020-07-20_20h49.14.942,fisher_task,2020.1.3,Win32,60,0.161458333,-0.40625,1,0,0,1.28283,scale,,,,,,0.1234,0.1,0.3702,0.3,stimuli/lakes/103032_left.png,stimuli/lakes/103032_right.png,,,,0,91,91,32,1,,,,,
,,,,,,$5ea44b1b5d02233fc9406ddf,2020-07-20_20h49.14.942,fisher_task,2020.1.3,Win32,60,0.15234375,-0.432291667,1,0,0,2.9317,scale,,,,,,0.326485712,0.264575131,0.21373507,0.173205081,stimuli/lakes/70108_left.png,stimuli/lakes/70108_right.png,,,,0,92,92,8,1,,,,,
,,,,,,$5ea44b1b5d02233fc9406ddf,2020-07-20_20h49.14.942,fisher_task,2020.1.3,Win32,60,0.15234375,-0.395833333,1,0,0,2.44885,scale,,,,,,0.21373507,0.173205081,0.326485712,0.264575131,stimuli/lakes/303025_left.png,stimuli/lakes/303025_right.png,,,,0,93,93,25,1,,,,,
,,,,,,$5ea44b1b5d02233fc9406ddf,2020-07-20_20h49.14.942,fisher_task,2020.1.3,Win32,60,0.15234375,-0.395833333,1,0,0,1.750065,scale,,,,,,0.21373507,0.173205081,0.326485712,0.264575131,stimuli/lakes/305062_left.png,stimuli/lakes/305062_right.png,,,,0,94,94,62,1,,,,,
,,,,,,$5ea44b1b5d02233fc9406ddf,2020-07-20_20h49.14.942,fisher_task,2020.1.3,Win32,60,0.05859375,-0.259114583,1,0,0,2.21616,scale,,,,,,0.349027907,0.282842712,0.174513954,0.141421356,stimuli/lakes/802021_left.png,stimuli/lakes/802021_right.png,,,,0,95,95,21,1,,,,,
,,,,,,$5ea44b1b5d02233fc9406ddf,2020-07-20_20h49.14.942,fisher_task,2020.1.3,Win32,60,-0.138020833,-0.342447917,1,0,0,3.0488,scale,,,,,,0.3702,0.3,0.1234,0.1,stimuli/lakes/906088_left.png,stimuli/lakes/906088_right.png,,,,0,96,96,88,1,,,,,
,,,,,,$5ea44b1b5d02233fc9406ddf,2020-07-20_20h49.14.942,fisher_task,2020.1.3,Win32,60,0.15234375,-0.408854167,1,0,0,1.999915,scale,,,,,,0.349027907,0.282842712,0.174513954,0.141421356,stimuli/lakes/80109_left.png,stimuli/lakes/80109_right.png,,,,0,97,97,9,1,,,,,
,,,,,,$5ea44b1b5d02233fc9406ddf,2020-07-20_20h49.14.942,fisher_task,2020.1.3,Win32,60,-0.0703125,-0.279947917,1,0,0,4.43172,scale,,,,,,0.3702,0.3,0.1234,0.1,stimuli/lakes/905070_left.png,stimuli/lakes/905070_right.png,,,,0,98,98,70,1,,,,,
,,,,,,$5ea44b1b5d02233fc9406ddf,2020-07-20_20h49.14.942,fisher_task,2020.1.3,Win32,60,-0.173177083,-0.430989583,1,0,0,1.59968,scale,,,,,,0.326485712,0.264575131,0.21373507,0.173205081,stimuli/lakes/707095_left.png,stimuli/lakes/707095_right.png,,,,0,99,99,95,1,,,,,
,,,,,,$5ea44b1b5d02233fc9406ddf,2020-07-20_20h49.14.942,fisher_task,2020.1.3,Win32,60,0.145833333,-0.373697917,1,0,0,3.19857,scale,,,,,,0.21373507,0.173205081,0.326485712,0.264575131,stimuli/lakes/305061_left.png,stimuli/lakes/305061_right.png,,,,0,100,100,61,1,,,,,
,,,,,,$5ea44b1b5d02233fc9406ddf,2020-07-20_20h49.14.942,fisher_task,2020.1.3,Win32,60,-0.153645833,-0.361979167,1,0,0,3.91451,scale,,,,,,0.302267034,0.244948974,0.2468,0.2,stimuli/lakes/6080115_left.png,stimuli/lakes/6080115_right.png,,,,0,101,101,115,1,,,,,
,,,,,,$5ea44b1b5d02233fc9406ddf,2020-07-20_20h49.14.942,fisher_task,2020.1.3,Win32,60,-0.162760417,-0.424479167,1,0,0,1.349315,scale,,,,,,0.3702,0.3,0.1234,0.1,stimuli/lakes/9070106_left.png,stimuli/lakes/9070106_right.png,,,,0,102,102,106,1,,,,,
,,,,,,$5ea44b1b5d02233fc9406ddf,2020-07-20_20h49.14.942,fisher_task,2020.1.3,Win32,60,0.149739583,-0.365885417,1,0,0,3.181585,scale,,,,,,0.326485712,0.264575131,0.21373507,0.173205081,stimuli/lakes/702020_left.png,stimuli/lakes/702020_right.png,,,,0,103,103,20,1,,,,,
,,,,,,$5ea44b1b5d02233fc9406ddf,2020-07-20_20h49.14.942,fisher_task,2020.1.3,Win32,60,0.1640625,-0.420572917,1,0,0,1.09964,scale,,,,,,0.21373507,0.173205081,0.326485712,0.264575131,stimuli/lakes/30101_left.png,stimuli/lakes/30101_right.png,,,,0,104,104,1,1,,,,,
,,,,,,$5ea44b1b5d02233fc9406ddf,2020-07-20_20h49.14.942,fisher_task,2020.1.3,Win32,60,0.10546875,-0.291666667,1,0,0,2.68269,scale,,,,,,0.3702,0.3,0.1234,0.1,stimuli/lakes/903040_left.png,stimuli/lakes/903040_right.png,,,,0,105,105,40,1,,,,,
,,,,,,$5ea44b1b5d02233fc9406ddf,2020-07-20_20h49.14.942,fisher_task,2020.1.3,Win32,60,0.1171875,-0.315104167,1,0,0,4.414605,scale,,,,,,0.3702,0.3,0.1234,0.1,stimuli/lakes/903031_left.png,stimuli/lakes/903031_right.png,,,,0,106,106,31,1,,,,,
,,,,,,$5ea44b1b5d02233fc9406ddf,2020-07-20_20h49.14.942,fisher_task,2020.1.3,Win32,60,-0.126302083,-0.29296875,1,0,0,1.849755,scale,,,,,,0.2468,0.2,0.302267034,0.244948974,stimuli/lakes/406083_left.png,stimuli/lakes/406083_right.png,,,,0,107,107,83,1,,,,,
,,,,,,$5ea44b1b5d02233fc9406ddf,2020-07-20_20h49.14.942,fisher_task,2020.1.3,Win32,60,0.154947917,-0.369791667,1,0,0,1.615805,scale,,,,,,0.302267034,0.244948974,0.2468,0.2,stimuli/lakes/603037_left.png,stimuli/lakes/603037_right.png,,,,0,108,108,37,1,,,,,
,,,,,,$5ea44b1b5d02233fc9406ddf,2020-07-20_20h49.14.942,fisher_task,2020.1.3,Win32,60,0.115885417,-0.3515625,1,0,0,1.381735,scale,,,,,,0.174513954,0.141421356,0.349027907,0.282842712,stimuli/lakes/203033_left.png,stimuli/lakes/203033_right.png,,,,0,109,109,33,1,,,,,
,,,,,,$5ea44b1b5d02233fc9406ddf,2020-07-20_20h49.14.942,fisher_task,2020.1.3,Win32,60,0.084635417,-0.28125,1,0,0,2.165135,scale,,,,,,0.275930788,0.223606798,0.275930788,0.223606798,stimuli/lakes/504045_left.png,stimuli/lakes/504045_right.png,,,space,0,110,110,45,1,1.66658,,,,
,,,,,,$5ea44b1b5d02233fc9406ddf,2020-07-20_20h49.14.942,fisher_task,2020.1.3,Win32,60,0.087239583,-0.30078125,1,0,0,2.698795,scale,,,,,,0.349027907,0.282842712,0.174513954,0.141421356,stimuli/lakes/804048_left.png,stimuli/lakes/804048_right.png,,,,0,111,111,48,1,,,,,
,,,,,,$5ea44b1b5d02233fc9406ddf,2020-07-20_20h49.14.942,fisher_task,2020.1.3,Win32,60,0.098958333,-0.313802083,1,0,0,3.065805,scale,,,,,,0.174513954,0.141421356,0.349027907,0.282842712,stimuli/lakes/203024_left.png,stimuli/lakes/203024_right.png,,,,0,112,112,24,1,,,,,
,,,,,,$5ea44b1b5d02233fc9406ddf,2020-07-20_20h49.14.942,fisher_task,2020.1.3,Win32,60,0.083333333,-0.29296875,1,0,0,2.63147,scale,,,,,,0.21373507,0.173205081,0.326485712,0.264575131,stimuli/lakes/304052_left.png,stimuli/lakes/304052_right.png,,,,0,113,113,52,1,,,,,
,,,,,,$5ea44b1b5d02233fc9406ddf,2020-07-20_20h49.14.942,fisher_task,2020.1.3,Win32,60,-0.084635417,-0.2734375,1,0,0,2.28168,scale,,,,,,0.349027907,0.282842712,0.174513954,0.141421356,stimuli/lakes/805069_left.png,stimuli/lakes/805069_right.png,,,,0,114,114,69,1,,,,,
,,,,,,$5ea44b1b5d02233fc9406ddf,2020-07-20_20h49.14.942,fisher_task,2020.1.3,Win32,60,0.0859375,-0.29296875,1,0,0,4.09858,scale,,,,,,0.349027907,0.282842712,0.174513954,0.141421356,stimuli/lakes/803039_left.png,stimuli/lakes/803039_right.png,,,,0,115,115,39,1,,,,,
,,,,,,$5ea44b1b5d02233fc9406ddf,2020-07-20_20h49.14.942,fisher_task,2020.1.3,Win32,60,-0.166666667,-0.42578125,1,0,0,1.498575,scale,,,,,,0.349027907,0.282842712,0.174513954,0.141421356,stimuli/lakes/8080118_left.png,stimuli/lakes/8080118_right.png,,,,0,116,116,118,1,,,,,
,,,,,,$5ea44b1b5d02233fc9406ddf,2020-07-20_20h49.14.942,fisher_task,2020.1.3,Win32,60,0.14453125,-0.38671875,1,0,0,2.498145,scale,,,,,,0.3702,0.3,0.1234,0.1,stimuli/lakes/902022_left.png,stimuli/lakes/902022_right.png,,,,0,117,117,22,1,,,,,
,,,,,,$5ea44b1b5d02233fc9406ddf,2020-07-20_20h49.14.942,fisher_task,2020.1.3,Win32,60,-0.115885417,-0.319010417,1,0,0,3.68197,scale,,,,,,0.174513954,0.141421356,0.349027907,0.282842712,stimuli/lakes/2080108_left.png,stimuli/lakes/2080108_right.png,,,,0,118,118,108,1,,,,,
,,,,,,$5ea44b1b5d02233fc9406ddf,2020-07-20_20h49.14.942,fisher_task,2020.1.3,Win32,60,-0.14453125,-0.35546875,1,0,0,1.41581,scale,,,,,,0.302267034,0.244948974,0.2468,0.2,stimuli/lakes/606085_left.png,stimuli/lakes/606085_right.png,,,,0,119,119,85,1,,,,,
,,,,,,$5ea44b1b5d02233fc9406ddf,2020-07-20_20h49.14.942,fisher_task,2020.1.3,Win32,60,0.00390625,-0.25,1,0,0,4.031495,scale,,,,,,0.302267034,0.244948974,0.2468,0.2,stimuli/lakes/605065_left.png,stimuli/lakes/605065_right.png,,,,0,120,120,65,1,,,,,
,,,,,,$5ea44b1b5d02233fc9406ddf,2020-07-20_20h49.14.942,fisher_task,2020.1.3,Win32,60,-0.063802083,-0.264322917,1,0,0,2.6987,scale,,,,,,0.302267034,0.244948974,0.2468,0.2,stimuli/lakes/605066_left.png,stimuli/lakes/605066_right.png,,,,0,121,121,66,1,,,,,
,,,,,,$5ea44b1b5d02233fc9406ddf,2020-07-20_20h49.14.942,fisher_task,2020.1.3,Win32,60,0.118489583,-0.33203125,1,0,0,1.599785,scale,,,,,,0.1234,0.1,0.3702,0.3,stimuli/lakes/104041_left.png,stimuli/lakes/104041_right.png,,,,0,122,122,41,1,,,,,
,,,,,,$5ea44b1b5d02233fc9406ddf,2020-07-20_20h49.14.942,fisher_task,2020.1.3,Win32,60,-0.122395833,-0.299479167,1,0,0,5.715135,scale,,,,,,0.1234,0.1,0.3702,0.3,stimuli/lakes/1080107_left.png,stimuli/lakes/1080107_right.png,,,,0,123,123,107,1,,,,,
,,,,,,$5ea44b1b5d02233fc9406ddf,2020-07-20_20h49.14.942,fisher_task,2020.1.3,Win32,60,-0.069010417,-0.2734375,1,0,0,3.381745,scale,,,,,,0.275930788,0.223606798,0.275930788,0.223606798,stimuli/lakes/506075_left.png,stimuli/lakes/506075_right.png,,,,0,124,124,75,1,,,,,
,,,,,,$5ea44b1b5d02233fc9406ddf,2020-07-20_20h49.14.942,fisher_task,2020.1.3,Win32,60,-0.15234375,-0.361979167,1,0,0,1.39875,scale,,,,,,0.275930788,0.223606798,0.275930788,0.223606798,stimuli/lakes/5080113_left.png,stimuli/lakes/5080113_right.png,,,,0,125,125,113,1,,,,,
,,,,,,$5ea44b1b5d02233fc9406ddf,2020-07-20_20h49.14.942,fisher_task,2020.1.3,Win32,60,0.075520833,-0.28515625,1,0,0,2.31569,scale,,,,,,0.302267034,0.244948974,0.2468,0.2,stimuli/lakes/602018_left.png,stimuli/lakes/602018_right.png,,,,0,126,126,18,1,,,,,
,,,,,,$5ea44b1b5d02233fc9406ddf,2020-07-20_20h49.14.942,fisher_task,2020.1.3,Win32,60,0.09375,-0.294270833,1,0,0,2.581775,scale,,,,,,0.275930788,0.223606798,0.275930788,0.223606798,stimuli/lakes/503027_left.png,stimuli/lakes/503027_right.png,,,,0,127,127,27,1,,,,,
,,,,,,$5ea44b1b5d02233fc9406ddf,2020-07-20_20h49.14.942,fisher_task,2020.1.3,Win32,60,-0.014322917,-0.256510417,1,0,0,2.84531,scale,,,,,,0.349027907,0.282842712,0.174513954,0.141421356,stimuli/lakes/804057_left.png,stimuli/lakes/804057_right.png,,,,0,128,128,57,1,,,,,
,,,,,,$5ea44b1b5d02233fc9406ddf,2020-07-20_20h49.14.942,fisher_task,2020.1.3,Win32,60,0.131510417,-0.358072917,1,0,0,1.665645,scale,,,,,,0.2468,0.2,0.302267034,0.244948974,stimuli/lakes/40102_left.png,stimuli/lakes/40102_right.png,,,,0,129,129,2,1,,,,,
,,,,,,$5ea44b1b5d02233fc9406ddf,2020-07-20_20h49.14.942,fisher_task,2020.1.3,Win32,60,,,,,,,,,,,,,,,,,,,,,,,,,,,,space,14.370325,space,27.15605
