keySpace.keys,instructions.thisRepN,instructions.thisTrialN,instructions.thisN,instructions.thisIndex,instructions.ran,participant,date,expName,psychopyVersion,OS,frameRate,mouse.x,mouse.y,mouse.leftButton,mouse.midButton,mouse.rightButton,mouse.time,mouse.clicked_name,training.thisRepN,training.thisTrialN,training.thisN,training.thisIndex,training.ran,widthBasketLeft,heightBasketLeft,widthBasketRight,heightBasketRight,leftLake,rightLake,space2.keys,space2.rt,space1.keys,trials.thisRepN,trials.thisTrialN,trials.thisN,trials.thisIndex,trials.ran,space1.rt,finalSpace1.keys,finalSpace1.rt,finalSpace2.keys,finalSpace2.rt
,0,0,0,0,1,$5eaacc906327e802e479969a,2020-07-13_18h43.38.601,fisher_task,2020.1.3,Win32,60,,,,,,,,,,,,,,,,,,,,,,,,,,,,,,,
,,,,,,$5eaacc906327e802e479969a,2020-07-13_18h43.38.601,fisher_task,2020.1.3,Win32,60,0.163888889,-0.421296296,1,0,0,6.233305,scale,0,0,0,0,1,0.275930788,0.223606798,0.275930788,0.223606798,stimuli/training/20_left.png,stimuli/training/20_right.png,,,,,,,,,,,,,
,,,,,,$5eaacc906327e802e479969a,2020-07-13_18h43.38.601,fisher_task,2020.1.3,Win32,60,-0.192592593,-0.406481481,1,0,0,6.716705,scale,0,1,1,1,1,0.275930788,0.223606798,0.275930788,0.223606798,stimuli/training/80_left.png,stimuli/training/80_right.png,,,,,,,,,,,,,
,,,,,,$5eaacc906327e802e479969a,2020-07-13_18h43.38.601,fisher_task,2020.1.3,Win32,60,0.160185185,-0.365740741,1,0,0,3.81643,scale,0,2,2,2,1,0.174513954,0.141421356,0.349027907,0.282842712,stimuli/training/50_left.png,stimuli/training/50_right.png,,,,,,,,,,,,,
,,,,,,$5eaacc906327e802e479969a,2020-07-13_18h43.38.601,fisher_task,2020.1.3,Win32,60,-0.003703704,-0.243518519,1,0,0,6.766515,scale,0,3,3,3,1,0.349027907,0.282842712,0.174513954,0.141421356,stimuli/training/50_left.png,stimuli/training/50_right.png,,,,,,,,,,,,,
,,,,,,$5eaacc906327e802e479969a,2020-07-13_18h43.38.601,fisher_task,2020.1.3,Win32,60,-0.003703704,-0.244444444,1,0,0,7.13329,scale,0,4,4,4,1,0.275930788,0.223606798,0.275930788,0.223606798,stimuli/training/50_left.png,stimuli/training/50_right.png,,,,,,,,,,,,,
,,,,,,$5eaacc906327e802e479969a,2020-07-13_18h43.38.601,fisher_task,2020.1.3,Win32,60,0.166666667,-0.425,1,0,0,1.8499,scale,0,5,5,5,1,0.174513954,0.141421356,0.349027907,0.282842712,stimuli/training/20_left.png,stimuli/training/20_right.png,,,,,,,,,,,,,
,,,,,,$5eaacc906327e802e479969a,2020-07-13_18h43.38.601,fisher_task,2020.1.3,Win32,60,-0.162037037,-0.415740741,1,0,0,1.94908,scale,0,6,6,6,1,0.349027907,0.282842712,0.174513954,0.141421356,stimuli/training/80_left.png,stimuli/training/80_right.png,,,,,,,,,,,,,
,,,,,,$5eaacc906327e802e479969a,2020-07-13_18h43.38.601,fisher_task,2020.1.3,Win32,60,0.171296296,-0.402777778,1,0,0,2.66624,scale,0,7,7,7,1,0.1234,0.1,0.3702,0.3,stimuli/training/30_left.png,stimuli/training/30_right.png,,,,,,,,,,,,,
,,,,,,$5eaacc906327e802e479969a,2020-07-13_18h43.38.601,fisher_task,2020.1.3,Win32,60,-0.163888889,-0.4,1,0,0,2.41663,scale,0,8,8,8,1,0.3702,0.3,0.1234,0.1,stimuli/training/70_left.png,stimuli/training/70_right.png,,,,,,,,,,,,,
,,,,,,$5eaacc906327e802e479969a,2020-07-13_18h43.38.601,fisher_task,2020.1.3,Win32,60,-0.148148148,-0.402777778,1,0,0,2.89989,scale,0,9,9,9,1,0.326485712,0.264575131,0.21373507,0.173205081,stimuli/training/90_left.png,stimuli/training/90_right.png,,,,,,,,,,,,,
,,,,,,$5eaacc906327e802e479969a,2020-07-13_18h43.38.601,fisher_task,2020.1.3,Win32,60,0.15,-0.4,1,0,0,1.316495,scale,0,10,10,10,1,0.21373507,0.173205081,0.326485712,0.264575131,stimuli/training/10_left.png,stimuli/training/10_right.png,,,,,,,,,,,,,
,,,,,,$5eaacc906327e802e479969a,2020-07-13_18h43.38.601,fisher_task,2020.1.3,Win32,60,-0.133333333,-0.302777778,1,0,0,10.450055,scale,,,,,,0.174513954,0.141421356,0.349027907,0.282842712,stimuli/lakes/207090_left.png,stimuli/lakes/207090_right.png,space,4.562805,,0,0,0,90,1,,,,,
,,,,,,$5eaacc906327e802e479969a,2020-07-13_18h43.38.601,fisher_task,2020.1.3,Win32,60,-0.006481481,-0.246296296,1,0,0,4.99992,scale,,,,,,0.21373507,0.173205081,0.326485712,0.264575131,stimuli/lakes/306073_left.png,stimuli/lakes/306073_right.png,,,,0,1,1,73,1,,,,,
,,,,,,$5eaacc906327e802e479969a,2020-07-13_18h43.38.601,fisher_task,2020.1.3,Win32,60,0.153703704,-0.405555556,1,0,0,1.499315,scale,,,,,,0.21373507,0.173205081,0.326485712,0.264575131,stimuli/lakes/303025_left.png,stimuli/lakes/303025_right.png,,,,0,2,2,25,1,,,,,
,,,,,,$5eaacc906327e802e479969a,2020-07-13_18h43.38.601,fisher_task,2020.1.3,Win32,60,0.156481481,-0.407407407,1,0,0,1.96686,scale,,,,,,0.302267034,0.244948974,0.2468,0.2,stimuli/lakes/60105_left.png,stimuli/lakes/60105_right.png,,,,0,3,3,5,1,,,,,
,,,,,,$5eaacc906327e802e479969a,2020-07-13_18h43.38.601,fisher_task,2020.1.3,Win32,60,0.160185185,-0.409259259,1,0,0,3.432945,scale,,,,,,0.326485712,0.264575131,0.21373507,0.173205081,stimuli/lakes/703029_left.png,stimuli/lakes/703029_right.png,,,,0,4,4,29,1,,,,,
,,,,,,$5eaacc906327e802e479969a,2020-07-13_18h43.38.601,fisher_task,2020.1.3,Win32,60,0.141666667,-0.297222222,1,0,0,3.583275,scale,,,,,,0.3702,0.3,0.1234,0.1,stimuli/lakes/902022_left.png,stimuli/lakes/902022_right.png,,,,0,5,5,22,1,,,,,
,,,,,,$5eaacc906327e802e479969a,2020-07-13_18h43.38.601,fisher_task,2020.1.3,Win32,60,0.001851852,-0.244444444,1,0,0,4.48269,scale,,,,,,0.302267034,0.244948974,0.2468,0.2,stimuli/lakes/605066_left.png,stimuli/lakes/605066_right.png,,,,0,6,6,66,1,,,,,
,,,,,,$5eaacc906327e802e479969a,2020-07-13_18h43.38.601,fisher_task,2020.1.3,Win32,60,0.174074074,-0.405555556,1,0,0,1.31613,scale,,,,,,0.174513954,0.141421356,0.349027907,0.282842712,stimuli/lakes/203033_left.png,stimuli/lakes/203033_right.png,,,,0,7,7,33,1,,,,,
,,,,,,$5eaacc906327e802e479969a,2020-07-13_18h43.38.601,fisher_task,2020.1.3,Win32,60,-0.131481481,-0.311111111,1,0,0,2.51631,scale,,,,,,0.3702,0.3,0.1234,0.1,stimuli/lakes/905070_left.png,stimuli/lakes/905070_right.png,,,,0,8,8,70,1,,,,,
,,,,,,$5eaacc906327e802e479969a,2020-07-13_18h43.38.601,fisher_task,2020.1.3,Win32,60,-0.177777778,-0.407407407,1,0,0,4.882505,scale,,,,,,0.21373507,0.173205081,0.326485712,0.264575131,stimuli/lakes/3090121_left.png,stimuli/lakes/3090121_right.png,,,,0,9,9,121,1,,,,,
,,,,,,$5eaacc906327e802e479969a,2020-07-13_18h43.38.601,fisher_task,2020.1.3,Win32,60,0.127777778,-0.312962963,1,0,0,3.649815,scale,,,,,,0.3702,0.3,0.1234,0.1,stimuli/lakes/904049_left.png,stimuli/lakes/904049_right.png,,,,0,10,10,49,1,,,,,
,,,,,,$5eaacc906327e802e479969a,2020-07-13_18h43.38.601,fisher_task,2020.1.3,Win32,60,0.167592593,-0.415740741,1,0,0,1.19989,scale,,,,,,0.2468,0.2,0.302267034,0.244948974,stimuli/lakes/40103_left.png,stimuli/lakes/40103_right.png,,,,0,11,11,3,1,,,,,
,,,,,,$5eaacc906327e802e479969a,2020-07-13_18h43.38.601,fisher_task,2020.1.3,Win32,60,-0.135185185,-0.307407407,1,0,0,2.999545,scale,,,,,,0.275930788,0.223606798,0.275930788,0.223606798,stimuli/lakes/5080113_left.png,stimuli/lakes/5080113_right.png,,,,0,12,12,113,1,,,,,
,,,,,,$5eaacc906327e802e479969a,2020-07-13_18h43.38.601,fisher_task,2020.1.3,Win32,60,0.137037037,-0.312962963,1,0,0,1.949255,scale,,,,,,0.2468,0.2,0.302267034,0.244948974,stimuli/lakes/404053_left.png,stimuli/lakes/404053_right.png,,,,0,13,13,53,1,,,,,
,,,,,,$5eaacc906327e802e479969a,2020-07-13_18h43.38.601,fisher_task,2020.1.3,Win32,60,0.141666667,-0.308333333,1,0,0,2.28314,scale,,,,,,0.275930788,0.223606798,0.275930788,0.223606798,stimuli/lakes/504054_left.png,stimuli/lakes/504054_right.png,,,,0,14,14,54,1,,,,,
,,,,,,$5eaacc906327e802e479969a,2020-07-13_18h43.38.601,fisher_task,2020.1.3,Win32,60,0,-0.249074074,1,0,0,2.650445,scale,,,,,,0.21373507,0.173205081,0.326485712,0.264575131,stimuli/lakes/305061_left.png,stimuli/lakes/305061_right.png,,,,0,15,15,61,1,,,,,
,,,,,,$5eaacc906327e802e479969a,2020-07-13_18h43.38.601,fisher_task,2020.1.3,Win32,60,-0.137037037,-0.311111111,1,0,0,2.8,scale,,,,,,0.302267034,0.244948974,0.2468,0.2,stimuli/lakes/6070103_left.png,stimuli/lakes/6070103_right.png,,,,0,16,16,103,1,,,,,
,,,,,,$5eaacc906327e802e479969a,2020-07-13_18h43.38.601,fisher_task,2020.1.3,Win32,60,-0.182407407,-0.413888889,1,0,0,4.465615,scale,,,,,,0.1234,0.1,0.3702,0.3,stimuli/lakes/1080107_left.png,stimuli/lakes/1080107_right.png,,,,0,17,17,107,1,,,,,
,,,,,,$5eaacc906327e802e479969a,2020-07-13_18h43.38.601,fisher_task,2020.1.3,Win32,60,0.128703704,-0.310185185,1,0,0,1.782995,scale,,,,,,0.1234,0.1,0.3702,0.3,stimuli/lakes/105059_left.png,stimuli/lakes/105059_right.png,,,,0,18,18,59,1,,,,,
,,,,,,$5eaacc906327e802e479969a,2020-07-13_18h43.38.601,fisher_task,2020.1.3,Win32,60,0.153703704,-0.428703704,1,0,0,1.000565,scale,,,,,,0.21373507,0.173205081,0.326485712,0.264575131,stimuli/lakes/30101_left.png,stimuli/lakes/30101_right.png,,,,0,19,19,1,1,,,,,
,,,,,,$5eaacc906327e802e479969a,2020-07-13_18h43.38.601,fisher_task,2020.1.3,Win32,60,0.15462963,-0.423148148,1,0,0,0.982755,scale,,,,,,0.2468,0.2,0.302267034,0.244948974,stimuli/lakes/402015_left.png,stimuli/lakes/402015_right.png,,,,0,20,20,15,1,,,,,
,,,,,,$5eaacc906327e802e479969a,2020-07-13_18h43.38.601,fisher_task,2020.1.3,Win32,60,-0.155555556,-0.414814815,1,0,0,1.416245,scale,,,,,,0.275930788,0.223606798,0.275930788,0.223606798,stimuli/lakes/507093_left.png,stimuli/lakes/507093_right.png,,,,0,21,21,93,1,,,,,
,,,,,,$5eaacc906327e802e479969a,2020-07-13_18h43.38.601,fisher_task,2020.1.3,Win32,60,0.147222222,-0.403703704,1,0,0,1.566955,scale,,,,,,0.349027907,0.282842712,0.174513954,0.141421356,stimuli/lakes/802021_left.png,stimuli/lakes/802021_right.png,,,space,0,22,22,21,1,13.241405,,,,
,,,,,,$5eaacc906327e802e479969a,2020-07-13_18h43.38.601,fisher_task,2020.1.3,Win32,60,0.147222222,-0.403703704,1,0,0,0.75036,scale,,,,,,0.21373507,0.173205081,0.326485712,0.264575131,stimuli/lakes/302012_left.png,stimuli/lakes/302012_right.png,,,,0,23,23,12,1,,,,,
,,,,,,$5eaacc906327e802e479969a,2020-07-13_18h43.38.601,fisher_task,2020.1.3,Win32,60,-0.15462963,-0.394444444,1,0,0,1.16649,scale,,,,,,0.326485712,0.264575131,0.21373507,0.173205081,stimuli/lakes/7090129_left.png,stimuli/lakes/7090129_right.png,,,,0,24,24,129,1,,,,,
,,,,,,$5eaacc906327e802e479969a,2020-07-13_18h43.38.601,fisher_task,2020.1.3,Win32,60,0.164814815,-0.4,1,0,0,1.816635,scale,,,,,,0.3702,0.3,0.1234,0.1,stimuli/lakes/903031_left.png,stimuli/lakes/903031_right.png,,,,0,25,25,31,1,,,,,
,,,,,,$5eaacc906327e802e479969a,2020-07-13_18h43.38.601,fisher_task,2020.1.3,Win32,60,-0.137962963,-0.315740741,1,0,0,2.549835,scale,,,,,,0.326485712,0.264575131,0.21373507,0.173205081,stimuli/lakes/7070104_left.png,stimuli/lakes/7070104_right.png,,,,0,26,26,104,1,,,,,
,,,,,,$5eaacc906327e802e479969a,2020-07-13_18h43.38.601,fisher_task,2020.1.3,Win32,60,0.177777778,-0.411111111,1,0,0,1.41657,scale,,,,,,0.3702,0.3,0.1234,0.1,stimuli/lakes/904058_left.png,stimuli/lakes/904058_right.png,,,,0,27,27,58,1,,,,,
,,,,,,$5eaacc906327e802e479969a,2020-07-13_18h43.38.601,fisher_task,2020.1.3,Win32,60,0.126851852,-0.29537037,1,0,0,1.83312,scale,,,,,,0.2468,0.2,0.302267034,0.244948974,stimuli/lakes/404044_left.png,stimuli/lakes/404044_right.png,,,,0,28,28,44,1,,,,,
,,,,,,$5eaacc906327e802e479969a,2020-07-13_18h43.38.601,fisher_task,2020.1.3,Win32,60,-0.177777778,-0.402777778,1,0,0,1.14939,scale,,,,,,0.302267034,0.244948974,0.2468,0.2,stimuli/lakes/6090126_left.png,stimuli/lakes/6090126_right.png,,,,0,29,29,126,1,,,,,
,,,,,,$5eaacc906327e802e479969a,2020-07-13_18h43.38.601,fisher_task,2020.1.3,Win32,60,-0.182407407,-0.40462963,1,0,0,0.933275,scale,,,,,,0.326485712,0.264575131,0.21373507,0.173205081,stimuli/lakes/7090128_left.png,stimuli/lakes/7090128_right.png,,,,0,30,30,128,1,,,,,
,,,,,,$5eaacc906327e802e479969a,2020-07-13_18h43.38.601,fisher_task,2020.1.3,Win32,60,-0.128703704,-0.305555556,1,0,0,1.64949,scale,,,,,,0.1234,0.1,0.3702,0.3,stimuli/lakes/106080_left.png,stimuli/lakes/106080_right.png,,,,0,31,31,80,1,,,,,
,,,,,,$5eaacc906327e802e479969a,2020-07-13_18h43.38.601,fisher_task,2020.1.3,Win32,60,-0.14537037,-0.398148148,1,0,0,5.46652,scale,,,,,,0.21373507,0.173205081,0.326485712,0.264575131,stimuli/lakes/3080110_left.png,stimuli/lakes/3080110_right.png,,,,0,32,32,110,1,,,,,
,,,,,,$5eaacc906327e802e479969a,2020-07-13_18h43.38.601,fisher_task,2020.1.3,Win32,60,-0.125,-0.3,1,0,0,3.583445,scale,,,,,,0.2468,0.2,0.302267034,0.244948974,stimuli/lakes/406083_left.png,stimuli/lakes/406083_right.png,,,,0,33,33,83,1,,,,,
,,,,,,$5eaacc906327e802e479969a,2020-07-13_18h43.38.601,fisher_task,2020.1.3,Win32,60,-0.121296296,-0.303703704,1,0,0,3.116545,scale,,,,,,0.302267034,0.244948974,0.2468,0.2,stimuli/lakes/6080115_left.png,stimuli/lakes/6080115_right.png,,,,0,34,34,115,1,,,,,
,,,,,,$5eaacc906327e802e479969a,2020-07-13_18h43.38.601,fisher_task,2020.1.3,Win32,60,0.159259259,-0.382407407,1,0,0,3.70017,scale,,,,,,0.302267034,0.244948974,0.2468,0.2,stimuli/lakes/604046_left.png,stimuli/lakes/604046_right.png,,,,0,35,35,46,1,,,,,
,,,,,,$5eaacc906327e802e479969a,2020-07-13_18h43.38.601,fisher_task,2020.1.3,Win32,60,0.005555556,-0.253703704,1,0,0,4.199425,scale,,,,,,0.2468,0.2,0.302267034,0.244948974,stimuli/lakes/406074_left.png,stimuli/lakes/406074_right.png,,,,0,36,36,74,1,,,,,
,,,,,,$5eaacc906327e802e479969a,2020-07-13_18h43.38.601,fisher_task,2020.1.3,Win32,60,0.164814815,-0.411111111,1,0,0,4.649735,scale,,,,,,0.349027907,0.282842712,0.174513954,0.141421356,stimuli/lakes/80109_left.png,stimuli/lakes/80109_right.png,,,,0,37,37,9,1,,,,,
,,,,,,$5eaacc906327e802e479969a,2020-07-13_18h43.38.601,fisher_task,2020.1.3,Win32,60,0.164814815,-0.410185185,1,0,0,1.23353,scale,,,,,,0.275930788,0.223606798,0.275930788,0.223606798,stimuli/lakes/503027_left.png,stimuli/lakes/503027_right.png,,,,0,38,38,27,1,,,,,
,,,,,,$5eaacc906327e802e479969a,2020-07-13_18h43.38.601,fisher_task,2020.1.3,Win32,60,0.164814815,-0.410185185,1,0,0,1.56629,scale,,,,,,0.275930788,0.223606798,0.275930788,0.223606798,stimuli/lakes/50104_left.png,stimuli/lakes/50104_right.png,,,,0,39,39,4,1,,,,,
,,,,,,$5eaacc906327e802e479969a,2020-07-13_18h43.38.601,fisher_task,2020.1.3,Win32,60,0.134259259,-0.296296296,1,0,0,1.51943,scale,,,,,,0.326485712,0.264575131,0.21373507,0.173205081,stimuli/lakes/704056_left.png,stimuli/lakes/704056_right.png,,,,0,40,40,56,1,,,,,
,,,,,,$5eaacc906327e802e479969a,2020-07-13_18h43.38.601,fisher_task,2020.1.3,Win32,60,-0.137962963,-0.309259259,1,0,0,1.29984,scale,,,,,,0.21373507,0.173205081,0.326485712,0.264575131,stimuli/lakes/3080109_left.png,stimuli/lakes/3080109_right.png,,,,0,41,41,109,1,,,,,
,,,,,,$5eaacc906327e802e479969a,2020-07-13_18h43.38.601,fisher_task,2020.1.3,Win32,60,0.139814815,-0.309259259,1,0,0,1.983095,scale,,,,,,0.349027907,0.282842712,0.174513954,0.141421356,stimuli/lakes/804048_left.png,stimuli/lakes/804048_right.png,,,,0,42,42,48,1,,,,,
,,,,,,$5eaacc906327e802e479969a,2020-07-13_18h43.38.601,fisher_task,2020.1.3,Win32,60,-0.118518519,-0.29537037,1,0,0,2.4505,scale,,,,,,0.21373507,0.173205081,0.326485712,0.264575131,stimuli/lakes/307091_left.png,stimuli/lakes/307091_right.png,,,,0,43,43,91,1,,,,,
,,,,,,$5eaacc906327e802e479969a,2020-07-13_18h43.38.601,fisher_task,2020.1.3,Win32,60,0.146296296,-0.323148148,1,0,0,1.483365,scale,,,,,,0.349027907,0.282842712,0.174513954,0.141421356,stimuli/lakes/804057_left.png,stimuli/lakes/804057_right.png,,,space,0,44,44,57,1,3.282725,,,,
,,,,,,$5eaacc906327e802e479969a,2020-07-13_18h43.38.601,fisher_task,2020.1.3,Win32,60,0.135185185,-0.297222222,1,0,0,1.332805,scale,,,,,,0.349027907,0.282842712,0.174513954,0.141421356,stimuli/lakes/803030_left.png,stimuli/lakes/803030_right.png,,,,0,45,45,30,1,,,,,
,,,,,,$5eaacc906327e802e479969a,2020-07-13_18h43.38.601,fisher_task,2020.1.3,Win32,60,0.135185185,-0.297222222,1,0,0,2.316775,scale,,,,,,0.174513954,0.141421356,0.349027907,0.282842712,stimuli/lakes/203024_left.png,stimuli/lakes/203024_right.png,,,,0,46,46,24,1,,,,,
,,,,,,$5eaacc906327e802e479969a,2020-07-13_18h43.38.601,fisher_task,2020.1.3,Win32,60,0.152777778,-0.401851852,1,0,0,1.23325,scale,,,,,,0.174513954,0.141421356,0.349027907,0.282842712,stimuli/lakes/202011_left.png,stimuli/lakes/202011_right.png,,,,0,47,47,11,1,,,,,
,,,,,,$5eaacc906327e802e479969a,2020-07-13_18h43.38.601,fisher_task,2020.1.3,Win32,60,0.148148148,-0.412962963,1,0,0,3.33394,scale,,,,,,0.21373507,0.173205081,0.326485712,0.264575131,stimuli/lakes/304052_left.png,stimuli/lakes/304052_right.png,,,,0,48,48,52,1,,,,,
,,,,,,$5eaacc906327e802e479969a,2020-07-13_18h43.38.601,fisher_task,2020.1.3,Win32,60,0.148148148,-0.412962963,1,0,0,3.44956,scale,,,,,,0.174513954,0.141421356,0.349027907,0.282842712,stimuli/lakes/204051_left.png,stimuli/lakes/204051_right.png,,,,0,49,49,51,1,,,,,
,,,,,,$5eaacc906327e802e479969a,2020-07-13_18h43.38.601,fisher_task,2020.1.3,Win32,60,0.143518519,-0.418518519,1,0,0,1.665805,scale,,,,,,0.326485712,0.264575131,0.21373507,0.173205081,stimuli/lakes/70107_left.png,stimuli/lakes/70107_right.png,,,,0,50,50,7,1,,,,,
,,,,,,$5eaacc906327e802e479969a,2020-07-13_18h43.38.601,fisher_task,2020.1.3,Win32,60,-0.160185185,-0.401851852,1,0,0,4.66615,scale,,,,,,0.302267034,0.244948974,0.2468,0.2,stimuli/lakes/604055_left.png,stimuli/lakes/604055_right.png,,,,0,51,51,55,1,,,,,
,,,,,,$5eaacc906327e802e479969a,2020-07-13_18h43.38.601,fisher_task,2020.1.3,Win32,60,-0.169444444,-0.417592593,1,0,0,2.96612,scale,,,,,,0.275930788,0.223606798,0.275930788,0.223606798,stimuli/lakes/5090125_left.png,stimuli/lakes/5090125_right.png,,,,0,52,52,125,1,,,,,
,,,,,,$5eaacc906327e802e479969a,2020-07-13_18h43.38.601,fisher_task,2020.1.3,Win32,60,-0.169444444,-0.415740741,1,0,0,2.06656,scale,,,,,,0.302267034,0.244948974,0.2468,0.2,stimuli/lakes/6080114_left.png,stimuli/lakes/6080114_right.png,,,,0,53,53,114,1,,,,,
,,,,,,$5eaacc906327e802e479969a,2020-07-13_18h43.38.601,fisher_task,2020.1.3,Win32,60,-0.152777778,-0.397222222,1,0,0,1.899505,scale,,,,,,0.349027907,0.282842712,0.174513954,0.141421356,stimuli/lakes/8070105_left.png,stimuli/lakes/8070105_right.png,,,,0,54,54,105,1,,,,,
,,,,,,$5eaacc906327e802e479969a,2020-07-13_18h43.38.601,fisher_task,2020.1.3,Win32,60,-0.152777778,-0.397222222,1,0,0,2.516935,scale,,,,,,0.349027907,0.282842712,0.174513954,0.141421356,stimuli/lakes/8080118_left.png,stimuli/lakes/8080118_right.png,,,,0,55,55,118,1,,,,,
,,,,,,$5eaacc906327e802e479969a,2020-07-13_18h43.38.601,fisher_task,2020.1.3,Win32,60,0.142592593,-0.310185185,1,0,0,1.34984,scale,,,,,,0.2468,0.2,0.302267034,0.244948974,stimuli/lakes/4080112_left.png,stimuli/lakes/4080112_right.png,,,,0,56,56,112,1,,,,,
,,,,,,$5eaacc906327e802e479969a,2020-07-13_18h43.38.601,fisher_task,2020.1.3,Win32,60,-0.122222222,-0.291666667,1,0,0,5.833625,scale,,,,,,0.3702,0.3,0.1234,0.1,stimuli/lakes/906079_left.png,stimuli/lakes/906079_right.png,,,,0,57,57,79,1,,,,,
,,,,,,$5eaacc906327e802e479969a,2020-07-13_18h43.38.601,fisher_task,2020.1.3,Win32,60,-0.147222222,-0.399074074,1,0,0,2.34986,scale,,,,,,0.349027907,0.282842712,0.174513954,0.141421356,stimuli/lakes/806078_left.png,stimuli/lakes/806078_right.png,,,,0,58,58,78,1,,,,,
,,,,,,$5eaacc906327e802e479969a,2020-07-13_18h43.38.601,fisher_task,2020.1.3,Win32,60,0.158333333,-0.413888889,1,0,0,6.549705,scale,,,,,,0.2468,0.2,0.302267034,0.244948974,stimuli/lakes/4090124_left.png,stimuli/lakes/4090124_right.png,,,,0,59,59,124,1,,,,,
,,,,,,$5eaacc906327e802e479969a,2020-07-13_18h43.38.601,fisher_task,2020.1.3,Win32,60,0.007407407,-0.248148148,1,0,0,3.283285,scale,,,,,,0.21373507,0.173205081,0.326485712,0.264575131,stimuli/lakes/305062_left.png,stimuli/lakes/305062_right.png,,,,0,60,60,62,1,,,,,
,,,,,,$5eaacc906327e802e479969a,2020-07-13_18h43.38.601,fisher_task,2020.1.3,Win32,60,0.011111111,-0.230555556,1,0,0,3.966375,scale,,,,,,0.275930788,0.223606798,0.275930788,0.223606798,stimuli/lakes/5070102_left.png,stimuli/lakes/5070102_right.png,,,,0,61,61,102,1,,,,,
,,,,,,$5eaacc906327e802e479969a,2020-07-13_18h43.38.601,fisher_task,2020.1.3,Win32,60,0.161111111,-0.390740741,1,0,0,3.183045,scale,,,,,,0.2468,0.2,0.302267034,0.244948974,stimuli/lakes/402014_left.png,stimuli/lakes/402014_right.png,,,,0,62,62,14,1,,,,,
,,,,,,$5eaacc906327e802e479969a,2020-07-13_18h43.38.601,fisher_task,2020.1.3,Win32,60,-0.133333333,-0.317592593,1,0,0,2.616205,scale,,,,,,0.326485712,0.264575131,0.21373507,0.173205081,stimuli/lakes/705068_left.png,stimuli/lakes/705068_right.png,,,,0,63,63,68,1,,,,,
,,,,,,$5eaacc906327e802e479969a,2020-07-13_18h43.38.601,fisher_task,2020.1.3,Win32,60,0.155555556,-0.425925926,1,0,0,1.032805,scale,,,,,,0.1234,0.1,0.3702,0.3,stimuli/lakes/103023_left.png,stimuli/lakes/103023_right.png,,,,0,64,64,23,1,,,,,
,,,,,,$5eaacc906327e802e479969a,2020-07-13_18h43.38.601,fisher_task,2020.1.3,Win32,60,-0.123148148,-0.315740741,1,0,0,1.88283,scale,,,,,,0.302267034,0.244948974,0.2468,0.2,stimuli/lakes/605065_left.png,stimuli/lakes/605065_right.png,,,,0,65,65,65,1,,,,,
,,,,,,$5eaacc906327e802e479969a,2020-07-13_18h43.38.601,fisher_task,2020.1.3,Win32,60,0.163888889,-0.384259259,1,0,0,1.983645,scale,,,,,,0.21373507,0.173205081,0.326485712,0.264575131,stimuli/lakes/302013_left.png,stimuli/lakes/302013_right.png,,,space,0,66,66,13,1,2.27767,,,,
,,,,,,$5eaacc906327e802e479969a,2020-07-13_18h43.38.601,fisher_task,2020.1.3,Win32,60,-0.139814815,-0.309259259,1,0,0,2.699535,scale,,,,,,0.302267034,0.244948974,0.2468,0.2,stimuli/lakes/606076_left.png,stimuli/lakes/606076_right.png,,,,0,67,67,76,1,,,,,
,,,,,,$5eaacc906327e802e479969a,2020-07-13_18h43.38.601,fisher_task,2020.1.3,Win32,60,0.156481481,-0.385185185,1,0,0,2.66672,scale,,,,,,0.2468,0.2,0.302267034,0.244948974,stimuli/lakes/403026_left.png,stimuli/lakes/403026_right.png,,,,0,68,68,26,1,,,,,
,,,,,,$5eaacc906327e802e479969a,2020-07-13_18h43.38.601,fisher_task,2020.1.3,Win32,60,0.097222222,-0.277777778,1,0,0,6.14967,scale,,,,,,0.2468,0.2,0.302267034,0.244948974,stimuli/lakes/4090123_left.png,stimuli/lakes/4090123_right.png,,,,0,69,69,123,1,,,,,
,,,,,,$5eaacc906327e802e479969a,2020-07-13_18h43.38.601,fisher_task,2020.1.3,Win32,60,-0.108333333,-0.285185185,1,0,0,3.7333,scale,,,,,,0.326485712,0.264575131,0.21373507,0.173205081,stimuli/lakes/703038_left.png,stimuli/lakes/703038_right.png,,,,0,70,70,38,1,,,,,
,,,,,,$5eaacc906327e802e479969a,2020-07-13_18h43.38.601,fisher_task,2020.1.3,Win32,60,-0.163888889,-0.382407407,1,0,0,1.349745,scale,,,,,,0.326485712,0.264575131,0.21373507,0.173205081,stimuli/lakes/706086_left.png,stimuli/lakes/706086_right.png,,,,0,71,71,86,1,,,,,
,,,,,,$5eaacc906327e802e479969a,2020-07-13_18h43.38.601,fisher_task,2020.1.3,Win32,60,0.12037037,-0.278703704,1,0,0,1.64934,scale,,,,,,0.21373507,0.173205081,0.326485712,0.264575131,stimuli/lakes/3070100_left.png,stimuli/lakes/3070100_right.png,,,,0,72,72,100,1,,,,,
,,,,,,$5eaacc906327e802e479969a,2020-07-13_18h43.38.601,fisher_task,2020.1.3,Win32,60,0.160185185,-0.406481481,1,0,0,1.58326,scale,,,,,,0.21373507,0.173205081,0.326485712,0.264575131,stimuli/lakes/304043_left.png,stimuli/lakes/304043_right.png,,,,0,73,73,43,1,,,,,
,,,,,,$5eaacc906327e802e479969a,2020-07-13_18h43.38.601,fisher_task,2020.1.3,Win32,60,-0.105555556,-0.278703704,1,0,0,1.63296,scale,,,,,,0.302267034,0.244948974,0.2468,0.2,stimuli/lakes/602017_left.png,stimuli/lakes/602017_right.png,,,,0,74,74,17,1,,,,,
,,,,,,$5eaacc906327e802e479969a,2020-07-13_18h43.38.601,fisher_task,2020.1.3,Win32,60,0.116666667,-0.275,1,0,0,1.882725,scale,,,,,,0.174513954,0.141421356,0.349027907,0.282842712,stimuli/lakes/207099_left.png,stimuli/lakes/207099_right.png,,,,0,75,75,99,1,,,,,
,,,,,,$5eaacc906327e802e479969a,2020-07-13_18h43.38.601,fisher_task,2020.1.3,Win32,60,-0.077777778,-0.25462963,1,0,0,1.949405,scale,,,,,,0.326485712,0.264575131,0.21373507,0.173205081,stimuli/lakes/702020_left.png,stimuli/lakes/702020_right.png,,,,0,76,76,20,1,,,,,
,,,,,,$5eaacc906327e802e479969a,2020-07-13_18h43.38.601,fisher_task,2020.1.3,Win32,60,0.136111111,-0.298148148,1,0,0,4.733765,scale,,,,,,0.275930788,0.223606798,0.275930788,0.223606798,stimuli/lakes/503036_left.png,stimuli/lakes/503036_right.png,,,,0,77,77,36,1,,,,,
,,,,,,$5eaacc906327e802e479969a,2020-07-13_18h43.38.601,fisher_task,2020.1.3,Win32,60,-0.180555556,-0.4,1,0,0,1.766035,scale,,,,,,0.3702,0.3,0.1234,0.1,stimuli/lakes/9070106_left.png,stimuli/lakes/9070106_right.png,,,,0,78,78,106,1,,,,,
,,,,,,$5eaacc906327e802e479969a,2020-07-13_18h43.38.601,fisher_task,2020.1.3,Win32,60,0.132407407,-0.296296296,1,0,0,2.199805,scale,,,,,,0.174513954,0.141421356,0.349027907,0.282842712,stimuli/lakes/206072_left.png,stimuli/lakes/206072_right.png,,,,0,79,79,72,1,,,,,
,,,,,,$5eaacc906327e802e479969a,2020-07-13_18h43.38.601,fisher_task,2020.1.3,Win32,60,0.127777778,-0.286111111,1,0,0,8.16719,scale,,,,,,0.2468,0.2,0.302267034,0.244948974,stimuli/lakes/4070101_left.png,stimuli/lakes/4070101_right.png,,,,0,80,80,101,1,,,,,
,,,,,,$5eaacc906327e802e479969a,2020-07-13_18h43.38.601,fisher_task,2020.1.3,Win32,60,-0.125925926,-0.283333333,1,0,0,1.399545,scale,,,,,,0.326485712,0.264575131,0.21373507,0.173205081,stimuli/lakes/705067_left.png,stimuli/lakes/705067_right.png,,,,0,81,81,67,1,,,,,
,,,,,,$5eaacc906327e802e479969a,2020-07-13_18h43.38.601,fisher_task,2020.1.3,Win32,60,0.165740741,-0.4,1,0,0,10.200265,scale,,,,,,0.302267034,0.244948974,0.2468,0.2,stimuli/lakes/60106_left.png,stimuli/lakes/60106_right.png,,,,0,82,82,6,1,,,,,
,,,,,,$5eaacc906327e802e479969a,2020-07-13_18h43.38.601,fisher_task,2020.1.3,Win32,60,0.157407407,-0.358333333,1,0,0,1.46615,scale,,,,,,0.2468,0.2,0.302267034,0.244948974,stimuli/lakes/405063_left.png,stimuli/lakes/405063_right.png,,,,0,83,83,63,1,,,,,
,,,,,,$5eaacc906327e802e479969a,2020-07-13_18h43.38.601,fisher_task,2020.1.3,Win32,60,-0.163888889,-0.352777778,1,0,0,2.78306,scale,,,,,,0.21373507,0.173205081,0.326485712,0.264575131,stimuli/lakes/3090122_left.png,stimuli/lakes/3090122_right.png,,,,0,84,84,122,1,,,,,
,,,,,,$5eaacc906327e802e479969a,2020-07-13_18h43.38.601,fisher_task,2020.1.3,Win32,60,-0.088888889,-0.263888889,1,0,0,1.600315,scale,,,,,,0.302267034,0.244948974,0.2468,0.2,stimuli/lakes/606085_left.png,stimuli/lakes/606085_right.png,,,,0,85,85,85,1,,,,,
,,,,,,$5eaacc906327e802e479969a,2020-07-13_18h43.38.601,fisher_task,2020.1.3,Win32,60,-0.092592593,-0.262962963,1,0,0,2.23249,scale,,,,,,0.326485712,0.264575131,0.21373507,0.173205081,stimuli/lakes/706077_left.png,stimuli/lakes/706077_right.png,,,,0,86,86,77,1,,,,,
,,,,,,$5eaacc906327e802e479969a,2020-07-13_18h43.38.601,fisher_task,2020.1.3,Win32,60,-0.150925926,-0.348148148,1,0,0,1.099545,scale,,,,,,0.326485712,0.264575131,0.21373507,0.173205081,stimuli/lakes/7080117_left.png,stimuli/lakes/7080117_right.png,,,,0,87,87,117,1,,,,,
,,,,,,$5eaacc906327e802e479969a,2020-07-13_18h43.38.601,fisher_task,2020.1.3,Win32,60,0.113888889,-0.362962963,1,0,0,1.783615,scale,,,,,,0.21373507,0.173205081,0.326485712,0.264575131,stimuli/lakes/303034_left.png,stimuli/lakes/303034_right.png,,,space,0,88,88,34,1,1.973915,,,,
,,,,,,$5eaacc906327e802e479969a,2020-07-13_18h43.38.601,fisher_task,2020.1.3,Win32,60,0.14537037,-0.367592593,1,0,0,1.382815,scale,,,,,,0.174513954,0.141421356,0.349027907,0.282842712,stimuli/lakes/204042_left.png,stimuli/lakes/204042_right.png,,,,0,89,89,42,1,,,,,
,,,,,,$5eaacc906327e802e479969a,2020-07-13_18h43.38.601,fisher_task,2020.1.3,Win32,60,0.153703704,-0.412037037,1,0,0,4.76594,scale,,,,,,0.326485712,0.264575131,0.21373507,0.173205081,stimuli/lakes/70108_left.png,stimuli/lakes/70108_right.png,,,,0,90,90,8,1,,,,,
,,,,,,$5eaacc906327e802e479969a,2020-07-13_18h43.38.601,fisher_task,2020.1.3,Win32,60,0.149074074,-0.40462963,1,0,0,1.549735,scale,,,,,,0.302267034,0.244948974,0.2468,0.2,stimuli/lakes/603037_left.png,stimuli/lakes/603037_right.png,,,,0,91,91,37,1,,,,,
,,,,,,$5eaacc906327e802e479969a,2020-07-13_18h43.38.601,fisher_task,2020.1.3,Win32,60,0.162962963,-0.414814815,1,0,0,1.016885,scale,,,,,,0.275930788,0.223606798,0.275930788,0.223606798,stimuli/lakes/502016_left.png,stimuli/lakes/502016_right.png,,,,0,92,92,16,1,,,,,
,,,,,,$5eaacc906327e802e479969a,2020-07-13_18h43.38.601,fisher_task,2020.1.3,Win32,60,-0.125925926,-0.321296296,1,0,0,1.649575,scale,,,,,,0.326485712,0.264575131,0.21373507,0.173205081,stimuli/lakes/7080116_left.png,stimuli/lakes/7080116_right.png,,,,0,93,93,116,1,,,,,
,,,,,,$5eaacc906327e802e479969a,2020-07-13_18h43.38.601,fisher_task,2020.1.3,Win32,60,0.15,-0.349074074,1,0,0,1.732985,scale,,,,,,0.349027907,0.282842712,0.174513954,0.141421356,stimuli/lakes/803039_left.png,stimuli/lakes/803039_right.png,,,,0,94,94,39,1,,,,,
,,,,,,$5eaacc906327e802e479969a,2020-07-13_18h43.38.601,fisher_task,2020.1.3,Win32,60,0.173148148,-0.424074074,1,0,0,1.682845,scale,,,,,,0.326485712,0.264575131,0.21373507,0.173205081,stimuli/lakes/702019_left.png,stimuli/lakes/702019_right.png,,,,0,95,95,19,1,,,,,
,,,,,,$5eaacc906327e802e479969a,2020-07-13_18h43.38.601,fisher_task,2020.1.3,Win32,60,0.009259259,-0.262037037,1,0,0,3.016025,scale,,,,,,0.275930788,0.223606798,0.275930788,0.223606798,stimuli/lakes/506075_left.png,stimuli/lakes/506075_right.png,,,,0,96,96,75,1,,,,,
,,,,,,$5eaacc906327e802e479969a,2020-07-13_18h43.38.601,fisher_task,2020.1.3,Win32,60,-0.171296296,-0.381481481,1,0,0,5.266705,scale,,,,,,0.174513954,0.141421356,0.349027907,0.282842712,stimuli/lakes/2090120_left.png,stimuli/lakes/2090120_right.png,,,,0,97,97,120,1,,,,,
,,,,,,$5eaacc906327e802e479969a,2020-07-13_18h43.38.601,fisher_task,2020.1.3,Win32,60,0.164814815,-0.428703704,1,0,0,1.566385,scale,,,,,,0.302267034,0.244948974,0.2468,0.2,stimuli/lakes/602018_left.png,stimuli/lakes/602018_right.png,,,,0,98,98,18,1,,,,,
,,,,,,$5eaacc906327e802e479969a,2020-07-13_18h43.38.601,fisher_task,2020.1.3,Win32,60,0.135185185,-0.313888889,1,0,0,1.39955,scale,,,,,,0.1234,0.1,0.3702,0.3,stimuli/lakes/103032_left.png,stimuli/lakes/103032_right.png,,,,0,99,99,32,1,,,,,
,,,,,,$5eaacc906327e802e479969a,2020-07-13_18h43.38.601,fisher_task,2020.1.3,Win32,60,-0.097222222,-0.262962963,1,0,0,1.96701,scale,,,,,,0.1234,0.1,0.3702,0.3,stimuli/lakes/107098_left.png,stimuli/lakes/107098_right.png,,,,0,100,100,98,1,,,,,
,,,,,,$5eaacc906327e802e479969a,2020-07-13_18h43.38.601,fisher_task,2020.1.3,Win32,60,-0.119444444,-0.297222222,1,0,0,1.38355,scale,,,,,,0.2468,0.2,0.302267034,0.244948974,stimuli/lakes/407092_left.png,stimuli/lakes/407092_right.png,,,,0,101,101,92,1,,,,,
,,,,,,$5eaacc906327e802e479969a,2020-07-13_18h43.38.601,fisher_task,2020.1.3,Win32,60,-0.15,-0.360185185,1,0,0,0.982895,scale,,,,,,0.302267034,0.244948974,0.2468,0.2,stimuli/lakes/607094_left.png,stimuli/lakes/607094_right.png,,,,0,102,102,94,1,,,,,
,,,,,,$5eaacc906327e802e479969a,2020-07-13_18h43.38.601,fisher_task,2020.1.3,Win32,60,0.17037037,-0.337962963,1,0,0,1.666455,scale,,,,,,0.3702,0.3,0.1234,0.1,stimuli/lakes/903040_left.png,stimuli/lakes/903040_right.png,,,,0,103,103,40,1,,,,,
,,,,,,$5eaacc906327e802e479969a,2020-07-13_18h43.38.601,fisher_task,2020.1.3,Win32,60,0.148148148,-0.330555556,1,0,0,0.75024,scale,,,,,,0.302267034,0.244948974,0.2468,0.2,stimuli/lakes/603028_left.png,stimuli/lakes/603028_right.png,,,,0,104,104,28,1,,,,,
,,,,,,$5eaacc906327e802e479969a,2020-07-13_18h43.38.601,fisher_task,2020.1.3,Win32,60,-0.150925926,-0.337962963,1,0,0,1.28371,scale,,,,,,0.174513954,0.141421356,0.349027907,0.282842712,stimuli/lakes/2080108_left.png,stimuli/lakes/2080108_right.png,,,,0,105,105,108,1,,,,,
,,,,,,$5eaacc906327e802e479969a,2020-07-13_18h43.38.601,fisher_task,2020.1.3,Win32,60,-0.172222222,-0.356481481,1,0,0,1.083575,scale,,,,,,0.1234,0.1,0.3702,0.3,stimuli/lakes/1090119_left.png,stimuli/lakes/1090119_right.png,,,,0,106,106,119,1,,,,,
,,,,,,$5eaacc906327e802e479969a,2020-07-13_18h43.38.601,fisher_task,2020.1.3,Win32,60,0.166666667,-0.414814815,1,0,0,1.98374,scale,,,,,,0.3702,0.3,0.1234,0.1,stimuli/lakes/901010_left.png,stimuli/lakes/901010_right.png,,,,0,107,107,10,1,,,,,
,,,,,,$5eaacc906327e802e479969a,2020-07-13_18h43.38.601,fisher_task,2020.1.3,Win32,60,-0.005555556,-0.263888889,1,0,0,3.033995,scale,,,,,,0.2468,0.2,0.302267034,0.244948974,stimuli/lakes/405064_left.png,stimuli/lakes/405064_right.png,,,,0,108,108,64,1,,,,,
,,,,,,$5eaacc906327e802e479969a,2020-07-13_18h43.38.601,fisher_task,2020.1.3,Win32,60,0,-0.249074074,1,0,0,5.283195,scale,,,,,,0.174513954,0.141421356,0.349027907,0.282842712,stimuli/lakes/206081_left.png,stimuli/lakes/206081_right.png,,,,0,109,109,81,1,,,,,
,,,,,,$5eaacc906327e802e479969a,2020-07-13_18h43.38.601,fisher_task,2020.1.3,Win32,60,0.141666667,-0.425,1,0,0,1.1667,scale,,,,,,0.2468,0.2,0.302267034,0.244948974,stimuli/lakes/40102_left.png,stimuli/lakes/40102_right.png,,,space,0,110,110,2,1,1.163255,,,,
,,,,,,$5eaacc906327e802e479969a,2020-07-13_18h43.38.601,fisher_task,2020.1.3,Win32,60,0.152777778,-0.389814815,1,0,0,1.35003,scale,,,,,,0.2468,0.2,0.302267034,0.244948974,stimuli/lakes/403035_left.png,stimuli/lakes/403035_right.png,,,,0,111,111,35,1,,,,,
,,,,,,$5eaacc906327e802e479969a,2020-07-13_18h43.38.601,fisher_task,2020.1.3,Win32,60,0.021296296,-0.237962963,1,0,0,2.316475,scale,,,,,,0.1234,0.1,0.3702,0.3,stimuli/lakes/106071_left.png,stimuli/lakes/106071_right.png,,,,0,112,112,71,1,,,,,
,,,,,,$5eaacc906327e802e479969a,2020-07-13_18h43.38.601,fisher_task,2020.1.3,Win32,60,-0.007407407,-0.265740741,1,0,0,1.83342,scale,,,,,,0.349027907,0.282842712,0.174513954,0.141421356,stimuli/lakes/805069_left.png,stimuli/lakes/805069_right.png,,,,0,113,113,69,1,,,,,
,,,,,,$5eaacc906327e802e479969a,2020-07-13_18h43.38.601,fisher_task,2020.1.3,Win32,60,-0.157407407,-0.351851852,1,0,0,1.05039,scale,,,,,,0.326485712,0.264575131,0.21373507,0.173205081,stimuli/lakes/707095_left.png,stimuli/lakes/707095_right.png,,,,0,114,114,95,1,,,,,
,,,,,,$5eaacc906327e802e479969a,2020-07-13_18h43.38.601,fisher_task,2020.1.3,Win32,60,-0.159259259,-0.385185185,1,0,0,1.53301,scale,,,,,,0.2468,0.2,0.302267034,0.244948974,stimuli/lakes/4080111_left.png,stimuli/lakes/4080111_right.png,,,,0,115,115,111,1,,,,,
,,,,,,$5eaacc906327e802e479969a,2020-07-13_18h43.38.601,fisher_task,2020.1.3,Win32,60,-0.113888889,-0.290740741,1,0,0,1.46649,scale,,,,,,0.275930788,0.223606798,0.275930788,0.223606798,stimuli/lakes/506084_left.png,stimuli/lakes/506084_right.png,,,,0,116,116,84,1,,,,,
,,,,,,$5eaacc906327e802e479969a,2020-07-13_18h43.38.601,fisher_task,2020.1.3,Win32,60,-0.155555556,-0.372222222,1,0,0,1.00021,scale,,,,,,0.3702,0.3,0.1234,0.1,stimuli/lakes/907097_left.png,stimuli/lakes/907097_right.png,,,,0,117,117,97,1,,,,,
,,,,,,$5eaacc906327e802e479969a,2020-07-13_18h43.38.601,fisher_task,2020.1.3,Win32,60,0.138888889,-0.362962963,1,0,0,1.233105,scale,,,,,,0.1234,0.1,0.3702,0.3,stimuli/lakes/104041_left.png,stimuli/lakes/104041_right.png,,,,0,118,118,41,1,,,,,
,,,,,,$5eaacc906327e802e479969a,2020-07-13_18h43.38.601,fisher_task,2020.1.3,Win32,60,-0.176851852,-0.364814815,1,0,0,2.31692,scale,,,,,,0.21373507,0.173205081,0.326485712,0.264575131,stimuli/lakes/306082_left.png,stimuli/lakes/306082_right.png,,,,0,119,119,82,1,,,,,
,,,,,,$5eaacc906327e802e479969a,2020-07-13_18h43.38.601,fisher_task,2020.1.3,Win32,60,-0.124074074,-0.300925926,1,0,0,2.04989,scale,,,,,,0.1234,0.1,0.3702,0.3,stimuli/lakes/107089_left.png,stimuli/lakes/107089_right.png,,,,0,120,120,89,1,,,,,
,,,,,,$5eaacc906327e802e479969a,2020-07-13_18h43.38.601,fisher_task,2020.1.3,Win32,60,0.140740741,-0.425,1,0,0,1.06722,scale,,,,,,0.21373507,0.173205081,0.326485712,0.264575131,stimuli/lakes/30100_left.png,stimuli/lakes/30100_right.png,,,,0,121,121,0,1,,,,,
,,,,,,$5eaacc906327e802e479969a,2020-07-13_18h43.38.601,fisher_task,2020.1.3,Win32,60,-0.162037037,-0.421296296,1,0,0,1.333055,scale,,,,,,0.349027907,0.282842712,0.174513954,0.141421356,stimuli/lakes/806087_left.png,stimuli/lakes/806087_right.png,,,,0,122,122,87,1,,,,,
,,,,,,$5eaacc906327e802e479969a,2020-07-13_18h43.38.601,fisher_task,2020.1.3,Win32,60,-0.164814815,-0.409259259,1,0,0,1.24991,scale,,,,,,0.302267034,0.244948974,0.2468,0.2,stimuli/lakes/6090127_left.png,stimuli/lakes/6090127_right.png,,,,0,123,123,127,1,,,,,
,,,,,,$5eaacc906327e802e479969a,2020-07-13_18h43.38.601,fisher_task,2020.1.3,Win32,60,0.138888889,-0.323148148,1,0,0,1.349845,scale,,,,,,0.174513954,0.141421356,0.349027907,0.282842712,stimuli/lakes/205060_left.png,stimuli/lakes/205060_right.png,,,,0,124,124,60,1,,,,,
,,,,,,$5eaacc906327e802e479969a,2020-07-13_18h43.38.601,fisher_task,2020.1.3,Win32,60,-0.152777778,-0.419444444,1,0,0,1.18262,scale,,,,,,0.3702,0.3,0.1234,0.1,stimuli/lakes/906088_left.png,stimuli/lakes/906088_right.png,,,,0,125,125,88,1,,,,,
,,,,,,$5eaacc906327e802e479969a,2020-07-13_18h43.38.601,fisher_task,2020.1.3,Win32,60,0.15462963,-0.413888889,1,0,0,1.399945,scale,,,,,,0.1234,0.1,0.3702,0.3,stimuli/lakes/104050_left.png,stimuli/lakes/104050_right.png,,,,0,126,126,50,1,,,,,
,,,,,,$5eaacc906327e802e479969a,2020-07-13_18h43.38.601,fisher_task,2020.1.3,Win32,60,-0.157407407,-0.386111111,1,0,0,1.51692,scale,,,,,,0.349027907,0.282842712,0.174513954,0.141421356,stimuli/lakes/807096_left.png,stimuli/lakes/807096_right.png,,,,0,127,127,96,1,,,,,
,,,,,,$5eaacc906327e802e479969a,2020-07-13_18h43.38.601,fisher_task,2020.1.3,Win32,60,0.119444444,-0.287037037,1,0,0,1.699565,scale,,,,,,0.275930788,0.223606798,0.275930788,0.223606798,stimuli/lakes/504045_left.png,stimuli/lakes/504045_right.png,,,,0,128,128,45,1,,,,,
,,,,,,$5eaacc906327e802e479969a,2020-07-13_18h43.38.601,fisher_task,2020.1.3,Win32,60,0.136111111,-0.338888889,1,0,0,1.49983,scale,,,,,,0.326485712,0.264575131,0.21373507,0.173205081,stimuli/lakes/704047_left.png,stimuli/lakes/704047_right.png,,,,0,129,129,47,1,,,,,
,,,,,,$5eaacc906327e802e479969a,2020-07-13_18h43.38.601,fisher_task,2020.1.3,Win32,60,,,,,,,,,,,,,,,,,,,,,,,,,,,,space,5.06085,space,11.609105
