keySpace.keys,instructions.thisRepN,instructions.thisTrialN,instructions.thisN,instructions.thisIndex,instructions.ran,participant,date,expName,psychopyVersion,OS,frameRate,mouse.x,mouse.y,mouse.leftButton,mouse.midButton,mouse.rightButton,mouse.time,mouse.clicked_name,training.thisRepN,training.thisTrialN,training.thisN,training.thisIndex,training.ran,widthBasketLeft,heightBasketLeft,widthBasketRight,heightBasketRight,leftLake,rightLake,space2.keys,space2.rt,space1.keys,trials.thisRepN,trials.thisTrialN,trials.thisN,trials.thisIndex,trials.ran,space1.rt,finalSpace1.keys,finalSpace1.rt,finalSpace2.keys,finalSpace2.rt
,0,0,0,0,1,$5ecd7c8a5a1fc80f03f1dc0e,2020-07-20_15h48.11.221,fisher_task,2020.1.3,Win32,60,,,,,,,,,,,,,,,,,,,,,,,,,,,,,,,
,,,,,,$5ecd7c8a5a1fc80f03f1dc0e,2020-07-20_15h48.11.221,fisher_task,2020.1.3,Win32,60,0.158203125,-0.385742188,1,0,0,3.698635,scale,0,0,0,0,1,0.275930788,0.223606798,0.275930788,0.223606798,stimuli/training/20_left.png,stimuli/training/20_right.png,,,,,,,,,,,,,
,,,,,,$5ecd7c8a5a1fc80f03f1dc0e,2020-07-20_15h48.11.221,fisher_task,2020.1.3,Win32,60,-0.176757813,-0.407226563,1,0,0,3.498595,scale,0,1,1,1,1,0.275930788,0.223606798,0.275930788,0.223606798,stimuli/training/80_left.png,stimuli/training/80_right.png,,,,,,,,,,,,,
,,,,,,$5ecd7c8a5a1fc80f03f1dc0e,2020-07-20_15h48.11.221,fisher_task,2020.1.3,Win32,60,0.151367188,-0.362304688,1,0,0,2.24913,scale,0,2,2,2,1,0.174513954,0.141421356,0.349027907,0.282842712,stimuli/training/50_left.png,stimuli/training/50_right.png,,,,,,,,,,,,,
,,,,,,$5ecd7c8a5a1fc80f03f1dc0e,2020-07-20_15h48.11.221,fisher_task,2020.1.3,Win32,60,-0.168945313,-0.361328125,1,0,0,2.048915,scale,0,3,3,3,1,0.349027907,0.282842712,0.174513954,0.141421356,stimuli/training/50_left.png,stimuli/training/50_right.png,,,,,,,,,,,,,
,,,,,,$5ecd7c8a5a1fc80f03f1dc0e,2020-07-20_15h48.11.221,fisher_task,2020.1.3,Win32,60,-0.00390625,-0.259765625,1,0,0,2.732185,scale,0,4,4,4,1,0.275930788,0.223606798,0.275930788,0.223606798,stimuli/training/50_left.png,stimuli/training/50_right.png,,,,,,,,,,,,,
,,,,,,$5ecd7c8a5a1fc80f03f1dc0e,2020-07-20_15h48.11.221,fisher_task,2020.1.3,Win32,60,0.16796875,-0.427734375,1,0,0,1.499335,scale,0,5,5,5,1,0.174513954,0.141421356,0.349027907,0.282842712,stimuli/training/20_left.png,stimuli/training/20_right.png,,,,,,,,,,,,,
,,,,,,$5ecd7c8a5a1fc80f03f1dc0e,2020-07-20_15h48.11.221,fisher_task,2020.1.3,Win32,60,-0.166992188,-0.421875,1,0,0,1.26626,scale,0,6,6,6,1,0.349027907,0.282842712,0.174513954,0.141421356,stimuli/training/80_left.png,stimuli/training/80_right.png,,,,,,,,,,,,,
,,,,,,$5ecd7c8a5a1fc80f03f1dc0e,2020-07-20_15h48.11.221,fisher_task,2020.1.3,Win32,60,0.149414063,-0.393554688,1,0,0,1.565885,scale,0,7,7,7,1,0.1234,0.1,0.3702,0.3,stimuli/training/30_left.png,stimuli/training/30_right.png,,,,,,,,,,,,,
,,,,,,$5ecd7c8a5a1fc80f03f1dc0e,2020-07-20_15h48.11.221,fisher_task,2020.1.3,Win32,60,-0.163085938,-0.379882813,1,0,0,1.54918,scale,0,8,8,8,1,0.3702,0.3,0.1234,0.1,stimuli/training/70_left.png,stimuli/training/70_right.png,,,,,,,,,,,,,
,,,,,,$5ecd7c8a5a1fc80f03f1dc0e,2020-07-20_15h48.11.221,fisher_task,2020.1.3,Win32,60,-0.178710938,-0.430664063,1,0,0,1.166205,scale,0,9,9,9,1,0.326485712,0.264575131,0.21373507,0.173205081,stimuli/training/90_left.png,stimuli/training/90_right.png,,,,,,,,,,,,,
,,,,,,$5ecd7c8a5a1fc80f03f1dc0e,2020-07-20_15h48.11.221,fisher_task,2020.1.3,Win32,60,0.168945313,-0.431640625,1,0,0,1.182095,scale,0,10,10,10,1,0.21373507,0.173205081,0.326485712,0.264575131,stimuli/training/10_left.png,stimuli/training/10_right.png,,,,,,,,,,,,,
,,,,,,$5ecd7c8a5a1fc80f03f1dc0e,2020-07-20_15h48.11.221,fisher_task,2020.1.3,Win32,60,0.14453125,-0.385742188,1,0,0,1.21591,scale,,,,,,0.174513954,0.141421356,0.349027907,0.282842712,stimuli/lakes/204051_left.png,stimuli/lakes/204051_right.png,space,8.0376,,0,0,0,51,1,,,,,
,,,,,,$5ecd7c8a5a1fc80f03f1dc0e,2020-07-20_15h48.11.221,fisher_task,2020.1.3,Win32,60,-0.016601563,-0.245117188,1,0,0,1.465835,scale,,,,,,0.302267034,0.244948974,0.2468,0.2,stimuli/lakes/60106_left.png,stimuli/lakes/60106_right.png,,,,0,1,1,6,1,,,,,
,,,,,,$5ecd7c8a5a1fc80f03f1dc0e,2020-07-20_15h48.11.221,fisher_task,2020.1.3,Win32,60,-0.145507813,-0.331054688,1,0,0,1.632675,scale,,,,,,0.302267034,0.244948974,0.2468,0.2,stimuli/lakes/606085_left.png,stimuli/lakes/606085_right.png,,,,0,2,2,85,1,,,,,
,,,,,,$5ecd7c8a5a1fc80f03f1dc0e,2020-07-20_15h48.11.221,fisher_task,2020.1.3,Win32,60,0.139648438,-0.375976563,1,0,0,1.216055,scale,,,,,,0.1234,0.1,0.3702,0.3,stimuli/lakes/104041_left.png,stimuli/lakes/104041_right.png,,,,0,3,3,41,1,,,,,
,,,,,,$5ecd7c8a5a1fc80f03f1dc0e,2020-07-20_15h48.11.221,fisher_task,2020.1.3,Win32,60,-0.098632813,-0.29296875,1,0,0,2.365575,scale,,,,,,0.2468,0.2,0.302267034,0.244948974,stimuli/lakes/4080112_left.png,stimuli/lakes/4080112_right.png,,,,0,4,4,112,1,,,,,
,,,,,,$5ecd7c8a5a1fc80f03f1dc0e,2020-07-20_15h48.11.221,fisher_task,2020.1.3,Win32,60,-0.013671875,-0.262695313,1,0,0,2.26571,scale,,,,,,0.326485712,0.264575131,0.21373507,0.173205081,stimuli/lakes/703029_left.png,stimuli/lakes/703029_right.png,,,,0,5,5,29,1,,,,,
,,,,,,$5ecd7c8a5a1fc80f03f1dc0e,2020-07-20_15h48.11.221,fisher_task,2020.1.3,Win32,60,0.041992188,-0.263671875,1,0,0,1.399145,scale,,,,,,0.3702,0.3,0.1234,0.1,stimuli/lakes/903031_left.png,stimuli/lakes/903031_right.png,,,,0,6,6,31,1,,,,,
,,,,,,$5ecd7c8a5a1fc80f03f1dc0e,2020-07-20_15h48.11.221,fisher_task,2020.1.3,Win32,60,0.166992188,-0.422851563,1,0,0,1.165885,scale,,,,,,0.1234,0.1,0.3702,0.3,stimuli/lakes/103032_left.png,stimuli/lakes/103032_right.png,,,,0,7,7,32,1,,,,,
,,,,,,$5ecd7c8a5a1fc80f03f1dc0e,2020-07-20_15h48.11.221,fisher_task,2020.1.3,Win32,60,-0.064453125,-0.282226563,1,0,0,2.015695,scale,,,,,,0.3702,0.3,0.1234,0.1,stimuli/lakes/904049_left.png,stimuli/lakes/904049_right.png,,,,0,8,8,49,1,,,,,
,,,,,,$5ecd7c8a5a1fc80f03f1dc0e,2020-07-20_15h48.11.221,fisher_task,2020.1.3,Win32,60,-0.095703125,-0.2890625,1,0,0,2.049755,scale,,,,,,0.2468,0.2,0.302267034,0.244948974,stimuli/lakes/407092_left.png,stimuli/lakes/407092_right.png,,,,0,9,9,92,1,,,,,
,,,,,,$5ecd7c8a5a1fc80f03f1dc0e,2020-07-20_15h48.11.221,fisher_task,2020.1.3,Win32,60,-0.134765625,-0.315429688,1,0,0,2.21565,scale,,,,,,0.326485712,0.264575131,0.21373507,0.173205081,stimuli/lakes/704056_left.png,stimuli/lakes/704056_right.png,,,,0,10,10,56,1,,,,,
,,,,,,$5ecd7c8a5a1fc80f03f1dc0e,2020-07-20_15h48.11.221,fisher_task,2020.1.3,Win32,60,-0.151367188,-0.387695313,1,0,0,2.165605,scale,,,,,,0.21373507,0.173205081,0.326485712,0.264575131,stimuli/lakes/3090121_left.png,stimuli/lakes/3090121_right.png,,,,0,11,11,121,1,,,,,
,,,,,,$5ecd7c8a5a1fc80f03f1dc0e,2020-07-20_15h48.11.221,fisher_task,2020.1.3,Win32,60,0.119140625,-0.3359375,1,0,0,3.981725,scale,,,,,,0.326485712,0.264575131,0.21373507,0.173205081,stimuli/lakes/702019_left.png,stimuli/lakes/702019_right.png,,,,0,12,12,19,1,,,,,
,,,,,,$5ecd7c8a5a1fc80f03f1dc0e,2020-07-20_15h48.11.221,fisher_task,2020.1.3,Win32,60,0.174804688,-0.421875,1,0,0,0.94943,scale,,,,,,0.21373507,0.173205081,0.326485712,0.264575131,stimuli/lakes/302012_left.png,stimuli/lakes/302012_right.png,,,,0,13,13,12,1,,,,,
,,,,,,$5ecd7c8a5a1fc80f03f1dc0e,2020-07-20_15h48.11.221,fisher_task,2020.1.3,Win32,60,0.063476563,-0.28125,1,0,0,2.39871,scale,,,,,,0.349027907,0.282842712,0.174513954,0.141421356,stimuli/lakes/803030_left.png,stimuli/lakes/803030_right.png,,,,0,14,14,30,1,,,,,
,,,,,,$5ecd7c8a5a1fc80f03f1dc0e,2020-07-20_15h48.11.221,fisher_task,2020.1.3,Win32,60,-0.01171875,-0.243164063,1,0,0,1.732315,scale,,,,,,0.2468,0.2,0.302267034,0.244948974,stimuli/lakes/405064_left.png,stimuli/lakes/405064_right.png,,,,0,15,15,64,1,,,,,
,,,,,,$5ecd7c8a5a1fc80f03f1dc0e,2020-07-20_15h48.11.221,fisher_task,2020.1.3,Win32,60,0.166992188,-0.381835938,1,0,0,1.93106,scale,,,,,,0.21373507,0.173205081,0.326485712,0.264575131,stimuli/lakes/303025_left.png,stimuli/lakes/303025_right.png,,,,0,16,16,25,1,,,,,
,,,,,,$5ecd7c8a5a1fc80f03f1dc0e,2020-07-20_15h48.11.221,fisher_task,2020.1.3,Win32,60,0.088867188,-0.303710938,1,0,0,1.26596,scale,,,,,,0.174513954,0.141421356,0.349027907,0.282842712,stimuli/lakes/206081_left.png,stimuli/lakes/206081_right.png,,,,0,17,17,81,1,,,,,
,,,,,,$5ecd7c8a5a1fc80f03f1dc0e,2020-07-20_15h48.11.221,fisher_task,2020.1.3,Win32,60,-0.020507813,-0.224609375,1,0,0,1.31595,scale,,,,,,0.275930788,0.223606798,0.275930788,0.223606798,stimuli/lakes/504054_left.png,stimuli/lakes/504054_right.png,,,,0,18,18,54,1,,,,,
,,,,,,$5ecd7c8a5a1fc80f03f1dc0e,2020-07-20_15h48.11.221,fisher_task,2020.1.3,Win32,60,-0.138671875,-0.329101563,1,0,0,1.782475,scale,,,,,,0.326485712,0.264575131,0.21373507,0.173205081,stimuli/lakes/706077_left.png,stimuli/lakes/706077_right.png,,,,0,19,19,77,1,,,,,
,,,,,,$5ecd7c8a5a1fc80f03f1dc0e,2020-07-20_15h48.11.221,fisher_task,2020.1.3,Win32,60,-0.173828125,-0.416992188,1,0,0,0.832925,scale,,,,,,0.3702,0.3,0.1234,0.1,stimuli/lakes/9070106_left.png,stimuli/lakes/9070106_right.png,,,,0,20,20,106,1,,,,,
,,,,,,$5ecd7c8a5a1fc80f03f1dc0e,2020-07-20_15h48.11.221,fisher_task,2020.1.3,Win32,60,-0.176757813,-0.416992188,1,0,0,0.84984,scale,,,,,,0.3702,0.3,0.1234,0.1,stimuli/lakes/907097_left.png,stimuli/lakes/907097_right.png,,,,0,21,21,97,1,,,,,
,,,,,,$5ecd7c8a5a1fc80f03f1dc0e,2020-07-20_15h48.11.221,fisher_task,2020.1.3,Win32,60,-0.063476563,-0.27734375,1,0,0,1.34879,scale,,,,,,0.349027907,0.282842712,0.174513954,0.141421356,stimuli/lakes/804057_left.png,stimuli/lakes/804057_right.png,,,space,0,22,22,57,1,5.767135,,,,
,,,,,,$5ecd7c8a5a1fc80f03f1dc0e,2020-07-20_15h48.11.221,fisher_task,2020.1.3,Win32,60,-0.149414063,-0.361328125,1,0,0,1.01604,scale,,,,,,0.326485712,0.264575131,0.21373507,0.173205081,stimuli/lakes/7080116_left.png,stimuli/lakes/7080116_right.png,,,,0,23,23,116,1,,,,,
,,,,,,$5ecd7c8a5a1fc80f03f1dc0e,2020-07-20_15h48.11.221,fisher_task,2020.1.3,Win32,60,-0.0859375,-0.274414063,1,0,0,2.498905,scale,,,,,,0.302267034,0.244948974,0.2468,0.2,stimuli/lakes/604046_left.png,stimuli/lakes/604046_right.png,,,,0,24,24,46,1,,,,,
,,,,,,$5ecd7c8a5a1fc80f03f1dc0e,2020-07-20_15h48.11.221,fisher_task,2020.1.3,Win32,60,-0.090820313,-0.291015625,1,0,0,1.54924,scale,,,,,,0.302267034,0.244948974,0.2468,0.2,stimuli/lakes/605066_left.png,stimuli/lakes/605066_right.png,,,,0,25,25,66,1,,,,,
,,,,,,$5ecd7c8a5a1fc80f03f1dc0e,2020-07-20_15h48.11.221,fisher_task,2020.1.3,Win32,60,-0.1796875,-0.416992188,1,0,0,0.96602,scale,,,,,,0.326485712,0.264575131,0.21373507,0.173205081,stimuli/lakes/7090129_left.png,stimuli/lakes/7090129_right.png,,,,0,26,26,129,1,,,,,
,,,,,,$5ecd7c8a5a1fc80f03f1dc0e,2020-07-20_15h48.11.221,fisher_task,2020.1.3,Win32,60,0.002929688,-0.26171875,1,0,0,1.84915,scale,,,,,,0.1234,0.1,0.3702,0.3,stimuli/lakes/1080107_left.png,stimuli/lakes/1080107_right.png,,,,0,27,27,107,1,,,,,
,,,,,,$5ecd7c8a5a1fc80f03f1dc0e,2020-07-20_15h48.11.221,fisher_task,2020.1.3,Win32,60,0.051757813,-0.263671875,1,0,0,1.24937,scale,,,,,,0.2468,0.2,0.302267034,0.244948974,stimuli/lakes/404044_left.png,stimuli/lakes/404044_right.png,,,,0,28,28,44,1,,,,,
,,,,,,$5ecd7c8a5a1fc80f03f1dc0e,2020-07-20_15h48.11.221,fisher_task,2020.1.3,Win32,60,0.103515625,-0.3125,1,0,0,1.449285,scale,,,,,,0.326485712,0.264575131,0.21373507,0.173205081,stimuli/lakes/702020_left.png,stimuli/lakes/702020_right.png,,,,0,29,29,20,1,,,,,
,,,,,,$5ecd7c8a5a1fc80f03f1dc0e,2020-07-20_15h48.11.221,fisher_task,2020.1.3,Win32,60,-0.163085938,-0.352539063,1,0,0,2.14907,scale,,,,,,0.349027907,0.282842712,0.174513954,0.141421356,stimuli/lakes/806078_left.png,stimuli/lakes/806078_right.png,,,,0,30,30,78,1,,,,,
,,,,,,$5ecd7c8a5a1fc80f03f1dc0e,2020-07-20_15h48.11.221,fisher_task,2020.1.3,Win32,60,-0.1640625,-0.385742188,1,0,0,1.1328,scale,,,,,,0.302267034,0.244948974,0.2468,0.2,stimuli/lakes/6080114_left.png,stimuli/lakes/6080114_right.png,,,,0,31,31,114,1,,,,,
,,,,,,$5ecd7c8a5a1fc80f03f1dc0e,2020-07-20_15h48.11.221,fisher_task,2020.1.3,Win32,60,0.163085938,-0.401367188,1,0,0,1.399395,scale,,,,,,0.174513954,0.141421356,0.349027907,0.282842712,stimuli/lakes/203033_left.png,stimuli/lakes/203033_right.png,,,,0,32,32,33,1,,,,,
,,,,,,$5ecd7c8a5a1fc80f03f1dc0e,2020-07-20_15h48.11.221,fisher_task,2020.1.3,Win32,60,-0.115234375,-0.3046875,1,0,0,2.33226,scale,,,,,,0.174513954,0.141421356,0.349027907,0.282842712,stimuli/lakes/207090_left.png,stimuli/lakes/207090_right.png,,,,0,33,33,90,1,,,,,
,,,,,,$5ecd7c8a5a1fc80f03f1dc0e,2020-07-20_15h48.11.221,fisher_task,2020.1.3,Win32,60,0.1640625,-0.373046875,1,0,0,1.49991,scale,,,,,,0.174513954,0.141421356,0.349027907,0.282842712,stimuli/lakes/204042_left.png,stimuli/lakes/204042_right.png,,,,0,34,34,42,1,,,,,
,,,,,,$5ecd7c8a5a1fc80f03f1dc0e,2020-07-20_15h48.11.221,fisher_task,2020.1.3,Win32,60,0.161132813,-0.397460938,1,0,0,1.082675,scale,,,,,,0.2468,0.2,0.302267034,0.244948974,stimuli/lakes/40103_left.png,stimuli/lakes/40103_right.png,,,,0,35,35,3,1,,,,,
,,,,,,$5ecd7c8a5a1fc80f03f1dc0e,2020-07-20_15h48.11.221,fisher_task,2020.1.3,Win32,60,0,-0.245117188,1,0,0,1.61572,scale,,,,,,0.275930788,0.223606798,0.275930788,0.223606798,stimuli/lakes/506075_left.png,stimuli/lakes/506075_right.png,,,,0,36,36,75,1,,,,,
,,,,,,$5ecd7c8a5a1fc80f03f1dc0e,2020-07-20_15h48.11.221,fisher_task,2020.1.3,Win32,60,0.090820313,-0.279296875,1,0,0,3.69854,scale,,,,,,0.2468,0.2,0.302267034,0.244948974,stimuli/lakes/405063_left.png,stimuli/lakes/405063_right.png,,,,0,37,37,63,1,,,,,
,,,,,,$5ecd7c8a5a1fc80f03f1dc0e,2020-07-20_15h48.11.221,fisher_task,2020.1.3,Win32,60,-0.004882813,-0.25,1,0,0,2.099035,scale,,,,,,0.275930788,0.223606798,0.275930788,0.223606798,stimuli/lakes/504045_left.png,stimuli/lakes/504045_right.png,,,,0,38,38,45,1,,,,,
,,,,,,$5ecd7c8a5a1fc80f03f1dc0e,2020-07-20_15h48.11.221,fisher_task,2020.1.3,Win32,60,-0.174804688,-0.393554688,1,0,0,1.365485,scale,,,,,,0.302267034,0.244948974,0.2468,0.2,stimuli/lakes/6090127_left.png,stimuli/lakes/6090127_right.png,,,,0,39,39,127,1,,,,,
,,,,,,$5ecd7c8a5a1fc80f03f1dc0e,2020-07-20_15h48.11.221,fisher_task,2020.1.3,Win32,60,0.095703125,-0.295898438,1,0,0,2.94866,scale,,,,,,0.2468,0.2,0.302267034,0.244948974,stimuli/lakes/406083_left.png,stimuli/lakes/406083_right.png,,,,0,40,40,83,1,,,,,
,,,,,,$5ecd7c8a5a1fc80f03f1dc0e,2020-07-20_15h48.11.221,fisher_task,2020.1.3,Win32,60,0.149414063,-0.364257813,1,0,0,1.715815,scale,,,,,,0.275930788,0.223606798,0.275930788,0.223606798,stimuli/lakes/503036_left.png,stimuli/lakes/503036_right.png,,,,0,41,41,36,1,,,,,
,,,,,,$5ecd7c8a5a1fc80f03f1dc0e,2020-07-20_15h48.11.221,fisher_task,2020.1.3,Win32,60,0.162109375,-0.426757813,1,0,0,0.89909,scale,,,,,,0.21373507,0.173205081,0.326485712,0.264575131,stimuli/lakes/30101_left.png,stimuli/lakes/30101_right.png,,,,0,42,42,1,1,,,,,
,,,,,,$5ecd7c8a5a1fc80f03f1dc0e,2020-07-20_15h48.11.221,fisher_task,2020.1.3,Win32,60,-0.131835938,-0.331054688,1,0,0,2.898805,scale,,,,,,0.1234,0.1,0.3702,0.3,stimuli/lakes/1090119_left.png,stimuli/lakes/1090119_right.png,,,,0,43,43,119,1,,,,,
,,,,,,$5ecd7c8a5a1fc80f03f1dc0e,2020-07-20_15h48.11.221,fisher_task,2020.1.3,Win32,60,-0.130859375,-0.323242188,1,0,0,2.565525,scale,,,,,,0.2468,0.2,0.302267034,0.244948974,stimuli/lakes/4080111_left.png,stimuli/lakes/4080111_right.png,,,space,0,44,44,111,1,3.61006,,,,
,,,,,,$5ecd7c8a5a1fc80f03f1dc0e,2020-07-20_15h48.11.221,fisher_task,2020.1.3,Win32,60,0.150390625,-0.365234375,1,0,0,1.39954,scale,,,,,,0.2468,0.2,0.302267034,0.244948974,stimuli/lakes/404053_left.png,stimuli/lakes/404053_right.png,,,,0,45,45,53,1,,,,,
,,,,,,$5ecd7c8a5a1fc80f03f1dc0e,2020-07-20_15h48.11.221,fisher_task,2020.1.3,Win32,60,-0.16796875,-0.393554688,1,0,0,0.99902,scale,,,,,,0.349027907,0.282842712,0.174513954,0.141421356,stimuli/lakes/8070105_left.png,stimuli/lakes/8070105_right.png,,,,0,46,46,105,1,,,,,
,,,,,,$5ecd7c8a5a1fc80f03f1dc0e,2020-07-20_15h48.11.221,fisher_task,2020.1.3,Win32,60,-0.129882813,-0.329101563,1,0,0,2.615525,scale,,,,,,0.3702,0.3,0.1234,0.1,stimuli/lakes/905070_left.png,stimuli/lakes/905070_right.png,,,,0,47,47,70,1,,,,,
,,,,,,$5ecd7c8a5a1fc80f03f1dc0e,2020-07-20_15h48.11.221,fisher_task,2020.1.3,Win32,60,0.0859375,-0.270507813,1,0,0,1.06614,scale,,,,,,0.1234,0.1,0.3702,0.3,stimuli/lakes/106071_left.png,stimuli/lakes/106071_right.png,,,,0,48,48,71,1,,,,,
,,,,,,$5ecd7c8a5a1fc80f03f1dc0e,2020-07-20_15h48.11.221,fisher_task,2020.1.3,Win32,60,0.126953125,-0.310546875,1,0,0,1.41602,scale,,,,,,0.2468,0.2,0.302267034,0.244948974,stimuli/lakes/403035_left.png,stimuli/lakes/403035_right.png,,,,0,49,49,35,1,,,,,
,,,,,,$5ecd7c8a5a1fc80f03f1dc0e,2020-07-20_15h48.11.221,fisher_task,2020.1.3,Win32,60,0.014648438,-0.264648438,1,0,0,4.66461,scale,,,,,,0.302267034,0.244948974,0.2468,0.2,stimuli/lakes/603037_left.png,stimuli/lakes/603037_right.png,,,,0,50,50,37,1,,,,,
,,,,,,$5ecd7c8a5a1fc80f03f1dc0e,2020-07-20_15h48.11.221,fisher_task,2020.1.3,Win32,60,0.126953125,-0.319335938,1,0,0,1.46634,scale,,,,,,0.21373507,0.173205081,0.326485712,0.264575131,stimuli/lakes/304052_left.png,stimuli/lakes/304052_right.png,,,,0,51,51,52,1,,,,,
,,,,,,$5ecd7c8a5a1fc80f03f1dc0e,2020-07-20_15h48.11.221,fisher_task,2020.1.3,Win32,60,0.067382813,-0.249023438,1,0,0,1.282635,scale,,,,,,0.1234,0.1,0.3702,0.3,stimuli/lakes/107089_left.png,stimuli/lakes/107089_right.png,,,,0,52,52,89,1,,,,,
,,,,,,$5ecd7c8a5a1fc80f03f1dc0e,2020-07-20_15h48.11.221,fisher_task,2020.1.3,Win32,60,-0.161132813,-0.368164063,1,0,0,2.065705,scale,,,,,,0.326485712,0.264575131,0.21373507,0.173205081,stimuli/lakes/7080117_left.png,stimuli/lakes/7080117_right.png,,,,0,53,53,117,1,,,,,
,,,,,,$5ecd7c8a5a1fc80f03f1dc0e,2020-07-20_15h48.11.221,fisher_task,2020.1.3,Win32,60,0.139648438,-0.37890625,1,0,0,1.116255,scale,,,,,,0.174513954,0.141421356,0.349027907,0.282842712,stimuli/lakes/203024_left.png,stimuli/lakes/203024_right.png,,,,0,54,54,24,1,,,,,
,,,,,,$5ecd7c8a5a1fc80f03f1dc0e,2020-07-20_15h48.11.221,fisher_task,2020.1.3,Win32,60,-0.172851563,-0.399414063,1,0,0,1.26599,scale,,,,,,0.326485712,0.264575131,0.21373507,0.173205081,stimuli/lakes/707095_left.png,stimuli/lakes/707095_right.png,,,,0,55,55,95,1,,,,,
,,,,,,$5ecd7c8a5a1fc80f03f1dc0e,2020-07-20_15h48.11.221,fisher_task,2020.1.3,Win32,60,-0.166992188,-0.385742188,1,0,0,1.782615,scale,,,,,,0.302267034,0.244948974,0.2468,0.2,stimuli/lakes/607094_left.png,stimuli/lakes/607094_right.png,,,,0,56,56,94,1,,,,,
,,,,,,$5ecd7c8a5a1fc80f03f1dc0e,2020-07-20_15h48.11.221,fisher_task,2020.1.3,Win32,60,-0.143554688,-0.338867188,1,0,0,1.58272,scale,,,,,,0.326485712,0.264575131,0.21373507,0.173205081,stimuli/lakes/705067_left.png,stimuli/lakes/705067_right.png,,,,0,57,57,67,1,,,,,
,,,,,,$5ecd7c8a5a1fc80f03f1dc0e,2020-07-20_15h48.11.221,fisher_task,2020.1.3,Win32,60,0.162109375,-0.412109375,1,0,0,1.166075,scale,,,,,,0.2468,0.2,0.302267034,0.244948974,stimuli/lakes/40102_left.png,stimuli/lakes/40102_right.png,,,,0,58,58,2,1,,,,,
,,,,,,$5ecd7c8a5a1fc80f03f1dc0e,2020-07-20_15h48.11.221,fisher_task,2020.1.3,Win32,60,-0.081054688,-0.286132813,1,0,0,2.99798,scale,,,,,,0.302267034,0.244948974,0.2468,0.2,stimuli/lakes/604055_left.png,stimuli/lakes/604055_right.png,,,,0,59,59,55,1,,,,,
,,,,,,$5ecd7c8a5a1fc80f03f1dc0e,2020-07-20_15h48.11.221,fisher_task,2020.1.3,Win32,60,-0.171875,-0.419921875,1,0,0,1.1495,scale,,,,,,0.302267034,0.244948974,0.2468,0.2,stimuli/lakes/6080115_left.png,stimuli/lakes/6080115_right.png,,,,0,60,60,115,1,,,,,
,,,,,,$5ecd7c8a5a1fc80f03f1dc0e,2020-07-20_15h48.11.221,fisher_task,2020.1.3,Win32,60,-0.168945313,-0.389648438,1,0,0,2.6988,scale,,,,,,0.2468,0.2,0.302267034,0.244948974,stimuli/lakes/4090124_left.png,stimuli/lakes/4090124_right.png,,,,0,61,61,124,1,,,,,
,,,,,,$5ecd7c8a5a1fc80f03f1dc0e,2020-07-20_15h48.11.221,fisher_task,2020.1.3,Win32,60,-0.123046875,-0.297851563,1,0,0,1.93248,scale,,,,,,0.326485712,0.264575131,0.21373507,0.173205081,stimuli/lakes/704047_left.png,stimuli/lakes/704047_right.png,,,,0,62,62,47,1,,,,,
,,,,,,$5ecd7c8a5a1fc80f03f1dc0e,2020-07-20_15h48.11.221,fisher_task,2020.1.3,Win32,60,0.125976563,-0.31640625,1,0,0,1.449595,scale,,,,,,0.3702,0.3,0.1234,0.1,stimuli/lakes/902022_left.png,stimuli/lakes/902022_right.png,,,,0,63,63,22,1,,,,,
,,,,,,$5ecd7c8a5a1fc80f03f1dc0e,2020-07-20_15h48.11.221,fisher_task,2020.1.3,Win32,60,0.07421875,-0.275390625,1,0,0,2.448875,scale,,,,,,0.326485712,0.264575131,0.21373507,0.173205081,stimuli/lakes/703038_left.png,stimuli/lakes/703038_right.png,,,,0,64,64,38,1,,,,,
,,,,,,$5ecd7c8a5a1fc80f03f1dc0e,2020-07-20_15h48.11.221,fisher_task,2020.1.3,Win32,60,0,-0.247070313,1,0,0,1.782555,scale,,,,,,0.2468,0.2,0.302267034,0.244948974,stimuli/lakes/406074_left.png,stimuli/lakes/406074_right.png,,,,0,65,65,74,1,,,,,
,,,,,,$5ecd7c8a5a1fc80f03f1dc0e,2020-07-20_15h48.11.221,fisher_task,2020.1.3,Win32,60,-0.150390625,-0.37109375,1,0,0,2.84872,scale,,,,,,0.174513954,0.141421356,0.349027907,0.282842712,stimuli/lakes/2080108_left.png,stimuli/lakes/2080108_right.png,,,space,0,66,66,108,1,18.40805,,,,
,,,,,,$5ecd7c8a5a1fc80f03f1dc0e,2020-07-20_15h48.11.221,fisher_task,2020.1.3,Win32,60,-0.161132813,-0.395507813,1,0,0,1.2328,scale,,,,,,0.326485712,0.264575131,0.21373507,0.173205081,stimuli/lakes/7070104_left.png,stimuli/lakes/7070104_right.png,,,,0,67,67,104,1,,,,,
,,,,,,$5ecd7c8a5a1fc80f03f1dc0e,2020-07-20_15h48.11.221,fisher_task,2020.1.3,Win32,60,-0.140625,-0.338867188,1,0,0,2.2656,scale,,,,,,0.174513954,0.141421356,0.349027907,0.282842712,stimuli/lakes/2090120_left.png,stimuli/lakes/2090120_right.png,,,,0,68,68,120,1,,,,,
,,,,,,$5ecd7c8a5a1fc80f03f1dc0e,2020-07-20_15h48.11.221,fisher_task,2020.1.3,Win32,60,0.08984375,-0.272460938,1,0,0,3.898475,scale,,,,,,0.349027907,0.282842712,0.174513954,0.141421356,stimuli/lakes/803039_left.png,stimuli/lakes/803039_right.png,,,,0,69,69,39,1,,,,,
,,,,,,$5ecd7c8a5a1fc80f03f1dc0e,2020-07-20_15h48.11.221,fisher_task,2020.1.3,Win32,60,0.125976563,-0.30859375,1,0,0,1.41583,scale,,,,,,0.1234,0.1,0.3702,0.3,stimuli/lakes/106080_left.png,stimuli/lakes/106080_right.png,,,,0,70,70,80,1,,,,,
,,,,,,$5ecd7c8a5a1fc80f03f1dc0e,2020-07-20_15h48.11.221,fisher_task,2020.1.3,Win32,60,0.084960938,-0.282226563,1,0,0,1.19939,scale,,,,,,0.2468,0.2,0.302267034,0.244948974,stimuli/lakes/402015_left.png,stimuli/lakes/402015_right.png,,,,0,71,71,15,1,,,,,
,,,,,,$5ecd7c8a5a1fc80f03f1dc0e,2020-07-20_15h48.11.221,fisher_task,2020.1.3,Win32,60,0.145507813,-0.360351563,1,0,0,1.749165,scale,,,,,,0.326485712,0.264575131,0.21373507,0.173205081,stimuli/lakes/70107_left.png,stimuli/lakes/70107_right.png,,,,0,72,72,7,1,,,,,
,,,,,,$5ecd7c8a5a1fc80f03f1dc0e,2020-07-20_15h48.11.221,fisher_task,2020.1.3,Win32,60,0.141601563,-0.361328125,1,0,0,2.848705,scale,,,,,,0.3702,0.3,0.1234,0.1,stimuli/lakes/901010_left.png,stimuli/lakes/901010_right.png,,,,0,73,73,10,1,,,,,
,,,,,,$5ecd7c8a5a1fc80f03f1dc0e,2020-07-20_15h48.11.221,fisher_task,2020.1.3,Win32,60,-0.178710938,-0.419921875,1,0,0,1.416115,scale,,,,,,0.302267034,0.244948974,0.2468,0.2,stimuli/lakes/6090126_left.png,stimuli/lakes/6090126_right.png,,,,0,74,74,126,1,,,,,
,,,,,,$5ecd7c8a5a1fc80f03f1dc0e,2020-07-20_15h48.11.221,fisher_task,2020.1.3,Win32,60,0.140625,-0.353515625,1,0,0,1.13285,scale,,,,,,0.275930788,0.223606798,0.275930788,0.223606798,stimuli/lakes/502016_left.png,stimuli/lakes/502016_right.png,,,,0,75,75,16,1,,,,,
,,,,,,$5ecd7c8a5a1fc80f03f1dc0e,2020-07-20_15h48.11.221,fisher_task,2020.1.3,Win32,60,-0.092773438,-0.293945313,1,0,0,3.048795,scale,,,,,,0.1234,0.1,0.3702,0.3,stimuli/lakes/107098_left.png,stimuli/lakes/107098_right.png,,,,0,76,76,98,1,,,,,
,,,,,,$5ecd7c8a5a1fc80f03f1dc0e,2020-07-20_15h48.11.221,fisher_task,2020.1.3,Win32,60,-0.045898438,-0.255859375,1,0,0,3.848385,scale,,,,,,0.174513954,0.141421356,0.349027907,0.282842712,stimuli/lakes/206072_left.png,stimuli/lakes/206072_right.png,,,,0,77,77,72,1,,,,,
,,,,,,$5ecd7c8a5a1fc80f03f1dc0e,2020-07-20_15h48.11.221,fisher_task,2020.1.3,Win32,60,0.154296875,-0.375976563,1,0,0,1.799185,scale,,,,,,0.174513954,0.141421356,0.349027907,0.282842712,stimuli/lakes/202011_left.png,stimuli/lakes/202011_right.png,,,,0,78,78,11,1,,,,,
,,,,,,$5ecd7c8a5a1fc80f03f1dc0e,2020-07-20_15h48.11.221,fisher_task,2020.1.3,Win32,60,0.135742188,-0.338867188,1,0,0,1.615875,scale,,,,,,0.326485712,0.264575131,0.21373507,0.173205081,stimuli/lakes/70108_left.png,stimuli/lakes/70108_right.png,,,,0,79,79,8,1,,,,,
,,,,,,$5ecd7c8a5a1fc80f03f1dc0e,2020-07-20_15h48.11.221,fisher_task,2020.1.3,Win32,60,-0.12890625,-0.33984375,1,0,0,1.449425,scale,,,,,,0.275930788,0.223606798,0.275930788,0.223606798,stimuli/lakes/5070102_left.png,stimuli/lakes/5070102_right.png,,,,0,80,80,102,1,,,,,
,,,,,,$5ecd7c8a5a1fc80f03f1dc0e,2020-07-20_15h48.11.221,fisher_task,2020.1.3,Win32,60,-0.158203125,-0.388671875,1,0,0,1.56589,scale,,,,,,0.275930788,0.223606798,0.275930788,0.223606798,stimuli/lakes/507093_left.png,stimuli/lakes/507093_right.png,,,,0,81,81,93,1,,,,,
,,,,,,$5ecd7c8a5a1fc80f03f1dc0e,2020-07-20_15h48.11.221,fisher_task,2020.1.3,Win32,60,-0.131835938,-0.348632813,1,0,0,2.51616,scale,,,,,,0.174513954,0.141421356,0.349027907,0.282842712,stimuli/lakes/207099_left.png,stimuli/lakes/207099_right.png,,,,0,82,82,99,1,,,,,
,,,,,,$5ecd7c8a5a1fc80f03f1dc0e,2020-07-20_15h48.11.221,fisher_task,2020.1.3,Win32,60,0.112304688,-0.2890625,1,0,0,1.73251,scale,,,,,,0.1234,0.1,0.3702,0.3,stimuli/lakes/104050_left.png,stimuli/lakes/104050_right.png,,,,0,83,83,50,1,,,,,
,,,,,,$5ecd7c8a5a1fc80f03f1dc0e,2020-07-20_15h48.11.221,fisher_task,2020.1.3,Win32,60,0.120117188,-0.327148438,1,0,0,2.96549,scale,,,,,,0.21373507,0.173205081,0.326485712,0.264575131,stimuli/lakes/306082_left.png,stimuli/lakes/306082_right.png,,,,0,84,84,82,1,,,,,
,,,,,,$5ecd7c8a5a1fc80f03f1dc0e,2020-07-20_15h48.11.221,fisher_task,2020.1.3,Win32,60,-0.079101563,-0.272460938,1,0,0,1.732515,scale,,,,,,0.21373507,0.173205081,0.326485712,0.264575131,stimuli/lakes/3080109_left.png,stimuli/lakes/3080109_right.png,,,,0,85,85,109,1,,,,,
,,,,,,$5ecd7c8a5a1fc80f03f1dc0e,2020-07-20_15h48.11.221,fisher_task,2020.1.3,Win32,60,-0.108398438,-0.283203125,1,0,0,1.282695,scale,,,,,,0.275930788,0.223606798,0.275930788,0.223606798,stimuli/lakes/506084_left.png,stimuli/lakes/506084_right.png,,,,0,86,86,84,1,,,,,
,,,,,,$5ecd7c8a5a1fc80f03f1dc0e,2020-07-20_15h48.11.221,fisher_task,2020.1.3,Win32,60,-0.1171875,-0.291015625,1,0,0,1.132755,scale,,,,,,0.302267034,0.244948974,0.2468,0.2,stimuli/lakes/605065_left.png,stimuli/lakes/605065_right.png,,,,0,87,87,65,1,,,,,
,,,,,,$5ecd7c8a5a1fc80f03f1dc0e,2020-07-20_15h48.11.221,fisher_task,2020.1.3,Win32,60,-0.11328125,-0.294921875,1,0,0,2.698635,scale,,,,,,0.302267034,0.244948974,0.2468,0.2,stimuli/lakes/6070103_left.png,stimuli/lakes/6070103_right.png,,,space,0,88,88,103,1,3.70538,,,,
,,,,,,$5ecd7c8a5a1fc80f03f1dc0e,2020-07-20_15h48.11.221,fisher_task,2020.1.3,Win32,60,0.084960938,-0.2890625,1,0,0,1.282725,scale,,,,,,0.275930788,0.223606798,0.275930788,0.223606798,stimuli/lakes/503027_left.png,stimuli/lakes/503027_right.png,,,,0,89,89,27,1,,,,,
,,,,,,$5ecd7c8a5a1fc80f03f1dc0e,2020-07-20_15h48.11.221,fisher_task,2020.1.3,Win32,60,-0.147460938,-0.336914063,1,0,0,1.049435,scale,,,,,,0.349027907,0.282842712,0.174513954,0.141421356,stimuli/lakes/806087_left.png,stimuli/lakes/806087_right.png,,,,0,90,90,87,1,,,,,
,,,,,,$5ecd7c8a5a1fc80f03f1dc0e,2020-07-20_15h48.11.221,fisher_task,2020.1.3,Win32,60,-0.084960938,-0.291992188,1,0,0,1.19931,scale,,,,,,0.21373507,0.173205081,0.326485712,0.264575131,stimuli/lakes/3070100_left.png,stimuli/lakes/3070100_right.png,,,,0,91,91,100,1,,,,,
,,,,,,$5ecd7c8a5a1fc80f03f1dc0e,2020-07-20_15h48.11.221,fisher_task,2020.1.3,Win32,60,-0.1328125,-0.32421875,1,0,0,1.26592,scale,,,,,,0.3702,0.3,0.1234,0.1,stimuli/lakes/906088_left.png,stimuli/lakes/906088_right.png,,,,0,92,92,88,1,,,,,
,,,,,,$5ecd7c8a5a1fc80f03f1dc0e,2020-07-20_15h48.11.221,fisher_task,2020.1.3,Win32,60,0.131835938,-0.331054688,1,0,0,1.16581,scale,,,,,,0.174513954,0.141421356,0.349027907,0.282842712,stimuli/lakes/205060_left.png,stimuli/lakes/205060_right.png,,,,0,93,93,60,1,,,,,
,,,,,,$5ecd7c8a5a1fc80f03f1dc0e,2020-07-20_15h48.11.221,fisher_task,2020.1.3,Win32,60,-0.17578125,-0.373046875,1,0,0,1.233135,scale,,,,,,0.275930788,0.223606798,0.275930788,0.223606798,stimuli/lakes/5080113_left.png,stimuli/lakes/5080113_right.png,,,,0,94,94,113,1,,,,,
,,,,,,$5ecd7c8a5a1fc80f03f1dc0e,2020-07-20_15h48.11.221,fisher_task,2020.1.3,Win32,60,0.116210938,-0.310546875,1,0,0,2.365615,scale,,,,,,0.2468,0.2,0.302267034,0.244948974,stimuli/lakes/403026_left.png,stimuli/lakes/403026_right.png,,,,0,95,95,26,1,,,,,
,,,,,,$5ecd7c8a5a1fc80f03f1dc0e,2020-07-20_15h48.11.221,fisher_task,2020.1.3,Win32,60,0.108398438,-0.334960938,1,0,0,1.7658,scale,,,,,,0.21373507,0.173205081,0.326485712,0.264575131,stimuli/lakes/305061_left.png,stimuli/lakes/305061_right.png,,,,0,96,96,61,1,,,,,
,,,,,,$5ecd7c8a5a1fc80f03f1dc0e,2020-07-20_15h48.11.221,fisher_task,2020.1.3,Win32,60,0.149414063,-0.334960938,1,0,0,1.23267,scale,,,,,,0.302267034,0.244948974,0.2468,0.2,stimuli/lakes/602018_left.png,stimuli/lakes/602018_right.png,,,,0,97,97,18,1,,,,,
,,,,,,$5ecd7c8a5a1fc80f03f1dc0e,2020-07-20_15h48.11.221,fisher_task,2020.1.3,Win32,60,-0.095703125,-0.293945313,1,0,0,1.43277,scale,,,,,,0.2468,0.2,0.302267034,0.244948974,stimuli/lakes/4070101_left.png,stimuli/lakes/4070101_right.png,,,,0,98,98,101,1,,,,,
,,,,,,$5ecd7c8a5a1fc80f03f1dc0e,2020-07-20_15h48.11.221,fisher_task,2020.1.3,Win32,60,-0.139648438,-0.3359375,1,0,0,1.48268,scale,,,,,,0.21373507,0.173205081,0.326485712,0.264575131,stimuli/lakes/307091_left.png,stimuli/lakes/307091_right.png,,,,0,99,99,91,1,,,,,
,,,,,,$5ecd7c8a5a1fc80f03f1dc0e,2020-07-20_15h48.11.221,fisher_task,2020.1.3,Win32,60,0.142578125,-0.353515625,1,0,0,1.38264,scale,,,,,,0.21373507,0.173205081,0.326485712,0.264575131,stimuli/lakes/304043_left.png,stimuli/lakes/304043_right.png,,,,0,100,100,43,1,,,,,
,,,,,,$5ecd7c8a5a1fc80f03f1dc0e,2020-07-20_15h48.11.221,fisher_task,2020.1.3,Win32,60,-0.180664063,-0.416992188,1,0,0,1.28266,scale,,,,,,0.326485712,0.264575131,0.21373507,0.173205081,stimuli/lakes/7090128_left.png,stimuli/lakes/7090128_right.png,,,,0,101,101,128,1,,,,,
,,,,,,$5ecd7c8a5a1fc80f03f1dc0e,2020-07-20_15h48.11.221,fisher_task,2020.1.3,Win32,60,0.16015625,-0.388671875,1,0,0,2.13241,scale,,,,,,0.275930788,0.223606798,0.275930788,0.223606798,stimuli/lakes/50104_left.png,stimuli/lakes/50104_right.png,,,,0,102,102,4,1,,,,,
,,,,,,$5ecd7c8a5a1fc80f03f1dc0e,2020-07-20_15h48.11.221,fisher_task,2020.1.3,Win32,60,0.177734375,-0.3984375,1,0,0,2.04965,scale,,,,,,0.1234,0.1,0.3702,0.3,stimuli/lakes/103023_left.png,stimuli/lakes/103023_right.png,,,,0,103,103,23,1,,,,,
,,,,,,$5ecd7c8a5a1fc80f03f1dc0e,2020-07-20_15h48.11.221,fisher_task,2020.1.3,Win32,60,0.146484375,-0.340820313,1,0,0,1.33268,scale,,,,,,0.302267034,0.244948974,0.2468,0.2,stimuli/lakes/602017_left.png,stimuli/lakes/602017_right.png,,,,0,104,104,17,1,,,,,
,,,,,,$5ecd7c8a5a1fc80f03f1dc0e,2020-07-20_15h48.11.221,fisher_task,2020.1.3,Win32,60,0.129882813,-0.3125,1,0,0,1.23264,scale,,,,,,0.349027907,0.282842712,0.174513954,0.141421356,stimuli/lakes/802021_left.png,stimuli/lakes/802021_right.png,,,,0,105,105,21,1,,,,,
,,,,,,$5ecd7c8a5a1fc80f03f1dc0e,2020-07-20_15h48.11.221,fisher_task,2020.1.3,Win32,60,0.151367188,-0.372070313,1,0,0,4.648225,scale,,,,,,0.302267034,0.244948974,0.2468,0.2,stimuli/lakes/603028_left.png,stimuli/lakes/603028_right.png,,,,0,106,106,28,1,,,,,
,,,,,,$5ecd7c8a5a1fc80f03f1dc0e,2020-07-20_15h48.11.221,fisher_task,2020.1.3,Win32,60,-0.170898438,-0.392578125,1,0,0,1.93233,scale,,,,,,0.349027907,0.282842712,0.174513954,0.141421356,stimuli/lakes/807096_left.png,stimuli/lakes/807096_right.png,,,,0,107,107,96,1,,,,,
,,,,,,$5ecd7c8a5a1fc80f03f1dc0e,2020-07-20_15h48.11.221,fisher_task,2020.1.3,Win32,60,-0.146484375,-0.356445313,1,0,0,2.348845,scale,,,,,,0.275930788,0.223606798,0.275930788,0.223606798,stimuli/lakes/5090125_left.png,stimuli/lakes/5090125_right.png,,,,0,108,108,125,1,,,,,
,,,,,,$5ecd7c8a5a1fc80f03f1dc0e,2020-07-20_15h48.11.221,fisher_task,2020.1.3,Win32,60,-0.171875,-0.380859375,1,0,0,1.232705,scale,,,,,,0.326485712,0.264575131,0.21373507,0.173205081,stimuli/lakes/706086_left.png,stimuli/lakes/706086_right.png,,,,0,109,109,86,1,,,,,
,,,,,,$5ecd7c8a5a1fc80f03f1dc0e,2020-07-20_15h48.11.221,fisher_task,2020.1.3,Win32,60,0.166992188,-0.41015625,1,0,0,1.082595,scale,,,,,,0.21373507,0.173205081,0.326485712,0.264575131,stimuli/lakes/30100_left.png,stimuli/lakes/30100_right.png,,,space,0,110,110,0,1,1.300415,,,,
,,,,,,$5ecd7c8a5a1fc80f03f1dc0e,2020-07-20_15h48.11.221,fisher_task,2020.1.3,Win32,60,0.100585938,-0.287109375,1,0,0,3.39851,scale,,,,,,0.21373507,0.173205081,0.326485712,0.264575131,stimuli/lakes/306073_left.png,stimuli/lakes/306073_right.png,,,,0,111,111,73,1,,,,,
,,,,,,$5ecd7c8a5a1fc80f03f1dc0e,2020-07-20_15h48.11.221,fisher_task,2020.1.3,Win32,60,-0.120117188,-0.286132813,1,0,0,1.349285,scale,,,,,,0.3702,0.3,0.1234,0.1,stimuli/lakes/906079_left.png,stimuli/lakes/906079_right.png,,,,0,112,112,79,1,,,,,
,,,,,,$5ecd7c8a5a1fc80f03f1dc0e,2020-07-20_15h48.11.221,fisher_task,2020.1.3,Win32,60,0.1640625,-0.387695313,1,0,0,1.09875,scale,,,,,,0.21373507,0.173205081,0.326485712,0.264575131,stimuli/lakes/302013_left.png,stimuli/lakes/302013_right.png,,,,0,113,113,13,1,,,,,
,,,,,,$5ecd7c8a5a1fc80f03f1dc0e,2020-07-20_15h48.11.221,fisher_task,2020.1.3,Win32,60,-0.150390625,-0.337890625,1,0,0,2.682295,scale,,,,,,0.2468,0.2,0.302267034,0.244948974,stimuli/lakes/4090123_left.png,stimuli/lakes/4090123_right.png,,,,0,114,114,123,1,,,,,
,,,,,,$5ecd7c8a5a1fc80f03f1dc0e,2020-07-20_15h48.11.221,fisher_task,2020.1.3,Win32,60,0.120117188,-0.299804688,1,0,0,1.61632,scale,,,,,,0.1234,0.1,0.3702,0.3,stimuli/lakes/105059_left.png,stimuli/lakes/105059_right.png,,,,0,115,115,59,1,,,,,
,,,,,,$5ecd7c8a5a1fc80f03f1dc0e,2020-07-20_15h48.11.221,fisher_task,2020.1.3,Win32,60,-0.08984375,-0.291992188,1,0,0,1.649435,scale,,,,,,0.302267034,0.244948974,0.2468,0.2,stimuli/lakes/606076_left.png,stimuli/lakes/606076_right.png,,,,0,116,116,76,1,,,,,
,,,,,,$5ecd7c8a5a1fc80f03f1dc0e,2020-07-20_15h48.11.221,fisher_task,2020.1.3,Win32,60,-0.12890625,-0.331054688,1,0,0,1.849035,scale,,,,,,0.3702,0.3,0.1234,0.1,stimuli/lakes/904058_left.png,stimuli/lakes/904058_right.png,,,,0,117,117,58,1,,,,,
,,,,,,$5ecd7c8a5a1fc80f03f1dc0e,2020-07-20_15h48.11.221,fisher_task,2020.1.3,Win32,60,-0.155273438,-0.372070313,1,0,0,2.18203,scale,,,,,,0.21373507,0.173205081,0.326485712,0.264575131,stimuli/lakes/3090122_left.png,stimuli/lakes/3090122_right.png,,,,0,118,118,122,1,,,,,
,,,,,,$5ecd7c8a5a1fc80f03f1dc0e,2020-07-20_15h48.11.221,fisher_task,2020.1.3,Win32,60,0.15625,-0.35546875,1,0,0,2.265695,scale,,,,,,0.302267034,0.244948974,0.2468,0.2,stimuli/lakes/60105_left.png,stimuli/lakes/60105_right.png,,,,0,119,119,5,1,,,,,
,,,,,,$5ecd7c8a5a1fc80f03f1dc0e,2020-07-20_15h48.11.221,fisher_task,2020.1.3,Win32,60,-0.072265625,-0.27734375,1,0,0,1.599235,scale,,,,,,0.349027907,0.282842712,0.174513954,0.141421356,stimuli/lakes/804048_left.png,stimuli/lakes/804048_right.png,,,,0,120,120,48,1,,,,,
,,,,,,$5ecd7c8a5a1fc80f03f1dc0e,2020-07-20_15h48.11.221,fisher_task,2020.1.3,Win32,60,0.135742188,-0.31640625,1,0,0,1.599185,scale,,,,,,0.3702,0.3,0.1234,0.1,stimuli/lakes/903040_left.png,stimuli/lakes/903040_right.png,,,,0,121,121,40,1,,,,,
,,,,,,$5ecd7c8a5a1fc80f03f1dc0e,2020-07-20_15h48.11.221,fisher_task,2020.1.3,Win32,60,0.155273438,-0.37109375,1,0,0,2.46557,scale,,,,,,0.349027907,0.282842712,0.174513954,0.141421356,stimuli/lakes/80109_left.png,stimuli/lakes/80109_right.png,,,,0,122,122,9,1,,,,,
,,,,,,$5ecd7c8a5a1fc80f03f1dc0e,2020-07-20_15h48.11.221,fisher_task,2020.1.3,Win32,60,0.115234375,-0.299804688,1,0,0,1.515685,scale,,,,,,0.21373507,0.173205081,0.326485712,0.264575131,stimuli/lakes/305062_left.png,stimuli/lakes/305062_right.png,,,,0,123,123,62,1,,,,,
,,,,,,$5ecd7c8a5a1fc80f03f1dc0e,2020-07-20_15h48.11.221,fisher_task,2020.1.3,Win32,60,-0.118164063,-0.295898438,1,0,0,2.098885,scale,,,,,,0.349027907,0.282842712,0.174513954,0.141421356,stimuli/lakes/805069_left.png,stimuli/lakes/805069_right.png,,,,0,124,124,69,1,,,,,
,,,,,,$5ecd7c8a5a1fc80f03f1dc0e,2020-07-20_15h48.11.221,fisher_task,2020.1.3,Win32,60,-0.086914063,-0.280273438,1,0,0,3.614635,scale,,,,,,0.21373507,0.173205081,0.326485712,0.264575131,stimuli/lakes/3080110_left.png,stimuli/lakes/3080110_right.png,,,,0,125,125,110,1,,,,,
,,,,,,$5ecd7c8a5a1fc80f03f1dc0e,2020-07-20_15h48.11.221,fisher_task,2020.1.3,Win32,60,-0.1796875,-0.38671875,1,0,0,1.33268,scale,,,,,,0.349027907,0.282842712,0.174513954,0.141421356,stimuli/lakes/8080118_left.png,stimuli/lakes/8080118_right.png,,,,0,126,126,118,1,,,,,
,,,,,,$5ecd7c8a5a1fc80f03f1dc0e,2020-07-20_15h48.11.221,fisher_task,2020.1.3,Win32,60,-0.122070313,-0.31640625,1,0,0,2.398915,scale,,,,,,0.326485712,0.264575131,0.21373507,0.173205081,stimuli/lakes/705068_left.png,stimuli/lakes/705068_right.png,,,,0,127,127,68,1,,,,,
,,,,,,$5ecd7c8a5a1fc80f03f1dc0e,2020-07-20_15h48.11.221,fisher_task,2020.1.3,Win32,60,0.158203125,-0.342773438,1,0,0,2.382205,scale,,,,,,0.21373507,0.173205081,0.326485712,0.264575131,stimuli/lakes/303034_left.png,stimuli/lakes/303034_right.png,,,,0,128,128,34,1,,,,,
,,,,,,$5ecd7c8a5a1fc80f03f1dc0e,2020-07-20_15h48.11.221,fisher_task,2020.1.3,Win32,60,0.150390625,-0.393554688,1,0,0,1.399515,scale,,,,,,0.2468,0.2,0.302267034,0.244948974,stimuli/lakes/402014_left.png,stimuli/lakes/402014_right.png,,,,0,129,129,14,1,,,,,
,,,,,,$5ecd7c8a5a1fc80f03f1dc0e,2020-07-20_15h48.11.221,fisher_task,2020.1.3,Win32,60,,,,,,,,,,,,,,,,,,,,,,,,,,,,space,7.4126,space,41.09662
