keySpace.keys,instructions.thisRepN,instructions.thisTrialN,instructions.thisN,instructions.thisIndex,instructions.ran,participant,date,expName,psychopyVersion,OS,frameRate,mouse.x,mouse.y,mouse.leftButton,mouse.midButton,mouse.rightButton,mouse.time,mouse.clicked_name,training.thisRepN,training.thisTrialN,training.thisN,training.thisIndex,training.ran,widthBasketLeft,heightBasketLeft,widthBasketRight,heightBasketRight,leftLake,rightLake,space2.keys,space2.rt,space1.keys,trials.thisRepN,trials.thisTrialN,trials.thisN,trials.thisIndex,trials.ran,space1.rt,finalSpace1.keys,finalSpace1.rt,finalSpace2.keys,finalSpace2.rt
,0,0,0,0,1,$5cfa8766825511000129d41e,2020-07-21_15h23.45.120,fisher_task,2020.1.3,Win32,60,,,,,,,,,,,,,,,,,,,,,,,,,,,,,,,
,,,,,,$5cfa8766825511000129d41e,2020-07-21_15h23.45.120,fisher_task,2020.1.3,Win32,60,0.165364583,-0.423177083,1,0,0,3.183505,scale,0,0,0,0,1,0.275930788,0.223606798,0.275930788,0.223606798,stimuli/training/20_left.png,stimuli/training/20_right.png,,,,,,,,,,,,,
,,,,,,$5cfa8766825511000129d41e,2020-07-21_15h23.45.120,fisher_task,2020.1.3,Win32,60,-0.161458333,-0.404947917,1,0,0,1.48329,scale,0,1,1,1,1,0.275930788,0.223606798,0.275930788,0.223606798,stimuli/training/80_left.png,stimuli/training/80_right.png,,,,,,,,,,,,,
,,,,,,$5cfa8766825511000129d41e,2020-07-21_15h23.45.120,fisher_task,2020.1.3,Win32,60,0.149739583,-0.352864583,1,0,0,2.283305,scale,0,2,2,2,1,0.174513954,0.141421356,0.349027907,0.282842712,stimuli/training/50_left.png,stimuli/training/50_right.png,,,,,,,,,,,,,
,,,,,,$5cfa8766825511000129d41e,2020-07-21_15h23.45.120,fisher_task,2020.1.3,Win32,60,-0.138020833,-0.345052083,1,0,0,1.6997,scale,0,3,3,3,1,0.349027907,0.282842712,0.174513954,0.141421356,stimuli/training/50_left.png,stimuli/training/50_right.png,,,,,,,,,,,,,
,,,,,,$5cfa8766825511000129d41e,2020-07-21_15h23.45.120,fisher_task,2020.1.3,Win32,60,0.001302083,-0.247395833,1,0,0,2.20004,scale,0,4,4,4,1,0.275930788,0.223606798,0.275930788,0.223606798,stimuli/training/50_left.png,stimuli/training/50_right.png,,,,,,,,,,,,,
,,,,,,$5cfa8766825511000129d41e,2020-07-21_15h23.45.120,fisher_task,2020.1.3,Win32,60,0.157552083,-0.423177083,1,0,0,1.632635,scale,0,5,5,5,1,0.174513954,0.141421356,0.349027907,0.282842712,stimuli/training/20_left.png,stimuli/training/20_right.png,,,,,,,,,,,,,
,,,,,,$5cfa8766825511000129d41e,2020-07-21_15h23.45.120,fisher_task,2020.1.3,Win32,60,-0.1484375,-0.420572917,1,0,0,1.38318,scale,0,6,6,6,1,0.349027907,0.282842712,0.174513954,0.141421356,stimuli/training/80_left.png,stimuli/training/80_right.png,,,,,,,,,,,,,
,,,,,,$5cfa8766825511000129d41e,2020-07-21_15h23.45.120,fisher_task,2020.1.3,Win32,60,0.161458333,-0.393229167,1,0,0,1.5826,scale,0,7,7,7,1,0.1234,0.1,0.3702,0.3,stimuli/training/30_left.png,stimuli/training/30_right.png,,,,,,,,,,,,,
,,,,,,$5cfa8766825511000129d41e,2020-07-21_15h23.45.120,fisher_task,2020.1.3,Win32,60,-0.151041667,-0.385416667,1,0,0,1.21678,scale,0,8,8,8,1,0.3702,0.3,0.1234,0.1,stimuli/training/70_left.png,stimuli/training/70_right.png,,,,,,,,,,,,,
,,,,,,$5cfa8766825511000129d41e,2020-07-21_15h23.45.120,fisher_task,2020.1.3,Win32,60,-0.154947917,-0.42578125,1,0,0,1.649335,scale,0,9,9,9,1,0.326485712,0.264575131,0.21373507,0.173205081,stimuli/training/90_left.png,stimuli/training/90_right.png,,,,,,,,,,,,,
,,,,,,$5cfa8766825511000129d41e,2020-07-21_15h23.45.120,fisher_task,2020.1.3,Win32,60,0.16015625,-0.421875,1,0,0,1.472585,scale,0,10,10,10,1,0.21373507,0.173205081,0.326485712,0.264575131,stimuli/training/10_left.png,stimuli/training/10_right.png,,,,,,,,,,,,,
,,,,,,$5cfa8766825511000129d41e,2020-07-21_15h23.45.120,fisher_task,2020.1.3,Win32,60,0.141927083,-0.34765625,1,0,0,3.349515,scale,,,,,,0.302267034,0.244948974,0.2468,0.2,stimuli/lakes/603028_left.png,stimuli/lakes/603028_right.png,space,3.339745,,0,0,0,28,1,,,,,
,,,,,,$5cfa8766825511000129d41e,2020-07-21_15h23.45.120,fisher_task,2020.1.3,Win32,60,0.154947917,-0.41015625,1,0,0,1.284185,scale,,,,,,0.2468,0.2,0.302267034,0.244948974,stimuli/lakes/404044_left.png,stimuli/lakes/404044_right.png,,,,0,1,1,44,1,,,,,
,,,,,,$5cfa8766825511000129d41e,2020-07-21_15h23.45.120,fisher_task,2020.1.3,Win32,60,-0.149739583,-0.416666667,1,0,0,1.45002,scale,,,,,,0.3702,0.3,0.1234,0.1,stimuli/lakes/9070106_left.png,stimuli/lakes/9070106_right.png,,,,0,2,2,106,1,,,,,
,,,,,,$5cfa8766825511000129d41e,2020-07-21_15h23.45.120,fisher_task,2020.1.3,Win32,60,0.126302083,-0.337239583,1,0,0,1.350865,scale,,,,,,0.275930788,0.223606798,0.275930788,0.223606798,stimuli/lakes/503027_left.png,stimuli/lakes/503027_right.png,,,,0,3,3,27,1,,,,,
,,,,,,$5cfa8766825511000129d41e,2020-07-21_15h23.45.120,fisher_task,2020.1.3,Win32,60,-0.0859375,-0.29296875,1,0,0,1.96717,scale,,,,,,0.21373507,0.173205081,0.326485712,0.264575131,stimuli/lakes/306082_left.png,stimuli/lakes/306082_right.png,,,,0,4,4,82,1,,,,,
,,,,,,$5cfa8766825511000129d41e,2020-07-21_15h23.45.120,fisher_task,2020.1.3,Win32,60,0.161458333,-0.390625,1,0,0,1.115125,scale,,,,,,0.21373507,0.173205081,0.326485712,0.264575131,stimuli/lakes/303025_left.png,stimuli/lakes/303025_right.png,,,,0,5,5,25,1,,,,,
,,,,,,$5cfa8766825511000129d41e,2020-07-21_15h23.45.120,fisher_task,2020.1.3,Win32,60,-0.154947917,-0.393229167,1,0,0,1.29985,scale,,,,,,0.3702,0.3,0.1234,0.1,stimuli/lakes/907097_left.png,stimuli/lakes/907097_right.png,,,,0,6,6,97,1,,,,,
,,,,,,$5cfa8766825511000129d41e,2020-07-21_15h23.45.120,fisher_task,2020.1.3,Win32,60,0.15625,-0.395833333,1,0,0,1.349505,scale,,,,,,0.21373507,0.173205081,0.326485712,0.264575131,stimuli/lakes/303034_left.png,stimuli/lakes/303034_right.png,,,,0,7,7,34,1,,,,,
,,,,,,$5cfa8766825511000129d41e,2020-07-21_15h23.45.120,fisher_task,2020.1.3,Win32,60,-0.134114583,-0.337239583,1,0,0,1.200825,scale,,,,,,0.275930788,0.223606798,0.275930788,0.223606798,stimuli/lakes/5070102_left.png,stimuli/lakes/5070102_right.png,,,,0,8,8,102,1,,,,,
,,,,,,$5cfa8766825511000129d41e,2020-07-21_15h23.45.120,fisher_task,2020.1.3,Win32,60,-0.154947917,-0.39453125,1,0,0,1.18355,scale,,,,,,0.326485712,0.264575131,0.21373507,0.173205081,stimuli/lakes/7080116_left.png,stimuli/lakes/7080116_right.png,,,,0,9,9,116,1,,,,,
,,,,,,$5cfa8766825511000129d41e,2020-07-21_15h23.45.120,fisher_task,2020.1.3,Win32,60,-0.157552083,-0.37109375,1,0,0,1.06527,scale,,,,,,0.302267034,0.244948974,0.2468,0.2,stimuli/lakes/606076_left.png,stimuli/lakes/606076_right.png,,,,0,10,10,76,1,,,,,
,,,,,,$5cfa8766825511000129d41e,2020-07-21_15h23.45.120,fisher_task,2020.1.3,Win32,60,0.111979167,-0.313802083,1,0,0,1.49991,scale,,,,,,0.349027907,0.282842712,0.174513954,0.141421356,stimuli/lakes/80109_left.png,stimuli/lakes/80109_right.png,,,,0,11,11,9,1,,,,,
,,,,,,$5cfa8766825511000129d41e,2020-07-21_15h23.45.120,fisher_task,2020.1.3,Win32,60,-0.104166667,-0.296875,1,0,0,1.801,scale,,,,,,0.1234,0.1,0.3702,0.3,stimuli/lakes/1080107_left.png,stimuli/lakes/1080107_right.png,,,,0,12,12,107,1,,,,,
,,,,,,$5cfa8766825511000129d41e,2020-07-21_15h23.45.120,fisher_task,2020.1.3,Win32,60,-0.09765625,-0.30859375,1,0,0,1.583105,scale,,,,,,0.349027907,0.282842712,0.174513954,0.141421356,stimuli/lakes/804048_left.png,stimuli/lakes/804048_right.png,,,,0,13,13,48,1,,,,,
,,,,,,$5cfa8766825511000129d41e,2020-07-21_15h23.45.120,fisher_task,2020.1.3,Win32,60,-0.162760417,-0.415364583,1,0,0,1.350425,scale,,,,,,0.3702,0.3,0.1234,0.1,stimuli/lakes/906079_left.png,stimuli/lakes/906079_right.png,,,,0,14,14,79,1,,,,,
,,,,,,$5cfa8766825511000129d41e,2020-07-21_15h23.45.120,fisher_task,2020.1.3,Win32,60,0.061197917,-0.25390625,1,0,0,2.116795,scale,,,,,,0.349027907,0.282842712,0.174513954,0.141421356,stimuli/lakes/803039_left.png,stimuli/lakes/803039_right.png,,,,0,15,15,39,1,,,,,
,,,,,,$5cfa8766825511000129d41e,2020-07-21_15h23.45.120,fisher_task,2020.1.3,Win32,60,-0.048177083,-0.248697917,1,0,0,1.36515,scale,,,,,,0.174513954,0.141421356,0.349027907,0.282842712,stimuli/lakes/2080108_left.png,stimuli/lakes/2080108_right.png,,,,0,16,16,108,1,,,,,
,,,,,,$5cfa8766825511000129d41e,2020-07-21_15h23.45.120,fisher_task,2020.1.3,Win32,60,0.157552083,-0.40234375,1,0,0,1.76678,scale,,,,,,0.1234,0.1,0.3702,0.3,stimuli/lakes/104041_left.png,stimuli/lakes/104041_right.png,,,,0,17,17,41,1,,,,,
,,,,,,$5cfa8766825511000129d41e,2020-07-21_15h23.45.120,fisher_task,2020.1.3,Win32,60,0.140625,-0.341145833,1,0,0,1.48406,scale,,,,,,0.302267034,0.244948974,0.2468,0.2,stimuli/lakes/603037_left.png,stimuli/lakes/603037_right.png,,,,0,18,18,37,1,,,,,
,,,,,,$5cfa8766825511000129d41e,2020-07-21_15h23.45.120,fisher_task,2020.1.3,Win32,60,-0.11328125,-0.313802083,1,0,0,1.48438,scale,,,,,,0.326485712,0.264575131,0.21373507,0.173205081,stimuli/lakes/705068_left.png,stimuli/lakes/705068_right.png,,,,0,19,19,68,1,,,,,
,,,,,,$5cfa8766825511000129d41e,2020-07-21_15h23.45.120,fisher_task,2020.1.3,Win32,60,-0.119791667,-0.329427083,1,0,0,1.7676,scale,,,,,,0.275930788,0.223606798,0.275930788,0.223606798,stimuli/lakes/506075_left.png,stimuli/lakes/506075_right.png,,,,0,20,20,75,1,,,,,
,,,,,,$5cfa8766825511000129d41e,2020-07-21_15h23.45.120,fisher_task,2020.1.3,Win32,60,0.119791667,-0.319010417,1,0,0,1.317755,scale,,,,,,0.3702,0.3,0.1234,0.1,stimuli/lakes/903040_left.png,stimuli/lakes/903040_right.png,,,,0,21,21,40,1,,,,,
,,,,,,$5cfa8766825511000129d41e,2020-07-21_15h23.45.120,fisher_task,2020.1.3,Win32,60,-0.12890625,-0.325520833,1,0,0,1.48308,scale,,,,,,0.302267034,0.244948974,0.2468,0.2,stimuli/lakes/605066_left.png,stimuli/lakes/605066_right.png,,,space,0,22,22,66,1,3.38606,,,,
,,,,,,$5cfa8766825511000129d41e,2020-07-21_15h23.45.120,fisher_task,2020.1.3,Win32,60,-0.111979167,-0.313802083,1,0,0,1.479265,scale,,,,,,0.174513954,0.141421356,0.349027907,0.282842712,stimuli/lakes/2090120_left.png,stimuli/lakes/2090120_right.png,,,,0,23,23,120,1,,,,,
,,,,,,$5cfa8766825511000129d41e,2020-07-21_15h23.45.120,fisher_task,2020.1.3,Win32,60,0,-0.263020833,1,0,0,2.915355,scale,,,,,,0.21373507,0.173205081,0.326485712,0.264575131,stimuli/lakes/305061_left.png,stimuli/lakes/305061_right.png,,,,0,24,24,61,1,,,,,
,,,,,,$5cfa8766825511000129d41e,2020-07-21_15h23.45.120,fisher_task,2020.1.3,Win32,60,0.15625,-0.389322917,1,0,0,1.383205,scale,,,,,,0.174513954,0.141421356,0.349027907,0.282842712,stimuli/lakes/203033_left.png,stimuli/lakes/203033_right.png,,,,0,25,25,33,1,,,,,
,,,,,,$5cfa8766825511000129d41e,2020-07-21_15h23.45.120,fisher_task,2020.1.3,Win32,60,-0.14453125,-0.376302083,1,0,0,1.233605,scale,,,,,,0.349027907,0.282842712,0.174513954,0.141421356,stimuli/lakes/8070105_left.png,stimuli/lakes/8070105_right.png,,,,0,26,26,105,1,,,,,
,,,,,,$5cfa8766825511000129d41e,2020-07-21_15h23.45.120,fisher_task,2020.1.3,Win32,60,0.106770833,-0.319010417,1,0,0,1.532935,scale,,,,,,0.326485712,0.264575131,0.21373507,0.173205081,stimuli/lakes/703029_left.png,stimuli/lakes/703029_right.png,,,,0,27,27,29,1,,,,,
,,,,,,$5cfa8766825511000129d41e,2020-07-21_15h23.45.120,fisher_task,2020.1.3,Win32,60,-0.098958333,-0.28125,1,0,0,1.25007,scale,,,,,,0.1234,0.1,0.3702,0.3,stimuli/lakes/106071_left.png,stimuli/lakes/106071_right.png,,,,0,28,28,71,1,,,,,
,,,,,,$5cfa8766825511000129d41e,2020-07-21_15h23.45.120,fisher_task,2020.1.3,Win32,60,-0.1015625,-0.296875,1,0,0,1.766435,scale,,,,,,0.326485712,0.264575131,0.21373507,0.173205081,stimuli/lakes/706077_left.png,stimuli/lakes/706077_right.png,,,,0,29,29,77,1,,,,,
,,,,,,$5cfa8766825511000129d41e,2020-07-21_15h23.45.120,fisher_task,2020.1.3,Win32,60,-0.098958333,-0.2890625,1,0,0,1.315765,scale,,,,,,0.21373507,0.173205081,0.326485712,0.264575131,stimuli/lakes/3070100_left.png,stimuli/lakes/3070100_right.png,,,,0,30,30,100,1,,,,,
,,,,,,$5cfa8766825511000129d41e,2020-07-21_15h23.45.120,fisher_task,2020.1.3,Win32,60,0.15234375,-0.3671875,1,0,0,1.8501,scale,,,,,,0.3702,0.3,0.1234,0.1,stimuli/lakes/904058_left.png,stimuli/lakes/904058_right.png,,,,0,31,31,58,1,,,,,
,,,,,,$5cfa8766825511000129d41e,2020-07-21_15h23.45.120,fisher_task,2020.1.3,Win32,60,-0.157552083,-0.416666667,1,0,0,1.716945,scale,,,,,,0.302267034,0.244948974,0.2468,0.2,stimuli/lakes/6090126_left.png,stimuli/lakes/6090126_right.png,,,,0,32,32,126,1,,,,,
,,,,,,$5cfa8766825511000129d41e,2020-07-21_15h23.45.120,fisher_task,2020.1.3,Win32,60,0.083333333,-0.265625,1,0,0,1.649045,scale,,,,,,0.302267034,0.244948974,0.2468,0.2,stimuli/lakes/602017_left.png,stimuli/lakes/602017_right.png,,,,0,33,33,17,1,,,,,
,,,,,,$5cfa8766825511000129d41e,2020-07-21_15h23.45.120,fisher_task,2020.1.3,Win32,60,0.162760417,-0.380208333,1,0,0,1.385045,scale,,,,,,0.2468,0.2,0.302267034,0.244948974,stimuli/lakes/403035_left.png,stimuli/lakes/403035_right.png,,,,0,34,34,35,1,,,,,
,,,,,,$5cfa8766825511000129d41e,2020-07-21_15h23.45.120,fisher_task,2020.1.3,Win32,60,0.1640625,-0.427083333,1,0,0,1.20054,scale,,,,,,0.21373507,0.173205081,0.326485712,0.264575131,stimuli/lakes/302013_left.png,stimuli/lakes/302013_right.png,,,,0,35,35,13,1,,,,,
,,,,,,$5cfa8766825511000129d41e,2020-07-21_15h23.45.120,fisher_task,2020.1.3,Win32,60,-0.052083333,-0.283854167,1,0,0,2.335165,scale,,,,,,0.275930788,0.223606798,0.275930788,0.223606798,stimuli/lakes/503036_left.png,stimuli/lakes/503036_right.png,,,,0,36,36,36,1,,,,,
,,,,,,$5cfa8766825511000129d41e,2020-07-21_15h23.45.120,fisher_task,2020.1.3,Win32,60,0.111979167,-0.322916667,1,0,0,1.94889,scale,,,,,,0.21373507,0.173205081,0.326485712,0.264575131,stimuli/lakes/302012_left.png,stimuli/lakes/302012_right.png,,,,0,37,37,12,1,,,,,
,,,,,,$5cfa8766825511000129d41e,2020-07-21_15h23.45.120,fisher_task,2020.1.3,Win32,60,0.158854167,-0.415364583,1,0,0,1.049615,scale,,,,,,0.21373507,0.173205081,0.326485712,0.264575131,stimuli/lakes/304052_left.png,stimuli/lakes/304052_right.png,,,,0,38,38,52,1,,,,,
,,,,,,$5cfa8766825511000129d41e,2020-07-21_15h23.45.120,fisher_task,2020.1.3,Win32,60,-0.16015625,-0.419270833,1,0,0,1.216695,scale,,,,,,0.326485712,0.264575131,0.21373507,0.173205081,stimuli/lakes/7090128_left.png,stimuli/lakes/7090128_right.png,,,,0,39,39,128,1,,,,,
,,,,,,$5cfa8766825511000129d41e,2020-07-21_15h23.45.120,fisher_task,2020.1.3,Win32,60,-0.108072917,-0.295572917,1,0,0,2.649915,scale,,,,,,0.2468,0.2,0.302267034,0.244948974,stimuli/lakes/407092_left.png,stimuli/lakes/407092_right.png,,,,0,40,40,92,1,,,,,
,,,,,,$5cfa8766825511000129d41e,2020-07-21_15h23.45.120,fisher_task,2020.1.3,Win32,60,-0.084635417,-0.286458333,1,0,0,1.81696,scale,,,,,,0.1234,0.1,0.3702,0.3,stimuli/lakes/106080_left.png,stimuli/lakes/106080_right.png,,,,0,41,41,80,1,,,,,
,,,,,,$5cfa8766825511000129d41e,2020-07-21_15h23.45.120,fisher_task,2020.1.3,Win32,60,-0.1484375,-0.389322917,1,0,0,1.305025,scale,,,,,,0.275930788,0.223606798,0.275930788,0.223606798,stimuli/lakes/5080113_left.png,stimuli/lakes/5080113_right.png,,,,0,42,42,113,1,,,,,
,,,,,,$5cfa8766825511000129d41e,2020-07-21_15h23.45.120,fisher_task,2020.1.3,Win32,60,0.083333333,-0.282552083,1,0,0,2.40031,scale,,,,,,0.349027907,0.282842712,0.174513954,0.141421356,stimuli/lakes/804057_left.png,stimuli/lakes/804057_right.png,,,,0,43,43,57,1,,,,,
,,,,,,$5cfa8766825511000129d41e,2020-07-21_15h23.45.120,fisher_task,2020.1.3,Win32,60,0.16015625,-0.40625,1,0,0,1.332265,scale,,,,,,0.2468,0.2,0.302267034,0.244948974,stimuli/lakes/40103_left.png,stimuli/lakes/40103_right.png,,,space,0,44,44,3,1,2.806785,,,,
,,,,,,$5cfa8766825511000129d41e,2020-07-21_15h23.45.120,fisher_task,2020.1.3,Win32,60,-0.09765625,-0.298177083,1,0,0,1.59937,scale,,,,,,0.2468,0.2,0.302267034,0.244948974,stimuli/lakes/4090124_left.png,stimuli/lakes/4090124_right.png,,,,0,45,45,124,1,,,,,
,,,,,,$5cfa8766825511000129d41e,2020-07-21_15h23.45.120,fisher_task,2020.1.3,Win32,60,-0.08984375,-0.296875,1,0,0,1.65018,scale,,,,,,0.349027907,0.282842712,0.174513954,0.141421356,stimuli/lakes/805069_left.png,stimuli/lakes/805069_right.png,,,,0,46,46,69,1,,,,,
,,,,,,$5cfa8766825511000129d41e,2020-07-21_15h23.45.120,fisher_task,2020.1.3,Win32,60,0.091145833,-0.286458333,1,0,0,1.66732,scale,,,,,,0.326485712,0.264575131,0.21373507,0.173205081,stimuli/lakes/702019_left.png,stimuli/lakes/702019_right.png,,,,0,47,47,19,1,,,,,
,,,,,,$5cfa8766825511000129d41e,2020-07-21_15h23.45.120,fisher_task,2020.1.3,Win32,60,0.141927083,-0.361979167,1,0,0,1.23772,scale,,,,,,0.2468,0.2,0.302267034,0.244948974,stimuli/lakes/402014_left.png,stimuli/lakes/402014_right.png,,,,0,48,48,14,1,,,,,
,,,,,,$5cfa8766825511000129d41e,2020-07-21_15h23.45.120,fisher_task,2020.1.3,Win32,60,-0.154947917,-0.375,1,0,0,1.299025,scale,,,,,,0.349027907,0.282842712,0.174513954,0.141421356,stimuli/lakes/806087_left.png,stimuli/lakes/806087_right.png,,,,0,49,49,87,1,,,,,
,,,,,,$5cfa8766825511000129d41e,2020-07-21_15h23.45.120,fisher_task,2020.1.3,Win32,60,0.084635417,-0.282552083,1,0,0,1.99972,scale,,,,,,0.326485712,0.264575131,0.21373507,0.173205081,stimuli/lakes/704056_left.png,stimuli/lakes/704056_right.png,,,,0,50,50,56,1,,,,,
,,,,,,$5cfa8766825511000129d41e,2020-07-21_15h23.45.120,fisher_task,2020.1.3,Win32,60,0.157552083,-0.385416667,1,0,0,1.01659,scale,,,,,,0.174513954,0.141421356,0.349027907,0.282842712,stimuli/lakes/204042_left.png,stimuli/lakes/204042_right.png,,,,0,51,51,42,1,,,,,
,,,,,,$5cfa8766825511000129d41e,2020-07-21_15h23.45.120,fisher_task,2020.1.3,Win32,60,-0.08203125,-0.294270833,1,0,0,1.616625,scale,,,,,,0.2468,0.2,0.302267034,0.244948974,stimuli/lakes/406074_left.png,stimuli/lakes/406074_right.png,,,,0,52,52,74,1,,,,,
,,,,,,$5cfa8766825511000129d41e,2020-07-21_15h23.45.120,fisher_task,2020.1.3,Win32,60,0.10546875,-0.29296875,1,0,0,1.883745,scale,,,,,,0.326485712,0.264575131,0.21373507,0.173205081,stimuli/lakes/704047_left.png,stimuli/lakes/704047_right.png,,,,0,53,53,47,1,,,,,
,,,,,,$5cfa8766825511000129d41e,2020-07-21_15h23.45.120,fisher_task,2020.1.3,Win32,60,-0.125,-0.311197917,1,0,0,1.430005,scale,,,,,,0.3702,0.3,0.1234,0.1,stimuli/lakes/905070_left.png,stimuli/lakes/905070_right.png,,,,0,54,54,70,1,,,,,
,,,,,,$5cfa8766825511000129d41e,2020-07-21_15h23.45.120,fisher_task,2020.1.3,Win32,60,0.177083333,-0.399739583,1,0,0,1.16409,scale,,,,,,0.2468,0.2,0.302267034,0.244948974,stimuli/lakes/40102_left.png,stimuli/lakes/40102_right.png,,,,0,55,55,2,1,,,,,
,,,,,,$5cfa8766825511000129d41e,2020-07-21_15h23.45.120,fisher_task,2020.1.3,Win32,60,0.125,-0.321614583,1,0,0,2.168375,scale,,,,,,0.3702,0.3,0.1234,0.1,stimuli/lakes/902022_left.png,stimuli/lakes/902022_right.png,,,,0,56,56,22,1,,,,,
,,,,,,$5cfa8766825511000129d41e,2020-07-21_15h23.45.120,fisher_task,2020.1.3,Win32,60,0.108072917,-0.287760417,1,0,0,1.883845,scale,,,,,,0.3702,0.3,0.1234,0.1,stimuli/lakes/904049_left.png,stimuli/lakes/904049_right.png,,,,0,57,57,49,1,,,,,
,,,,,,$5cfa8766825511000129d41e,2020-07-21_15h23.45.120,fisher_task,2020.1.3,Win32,60,0.14453125,-0.369791667,1,0,0,1.303255,scale,,,,,,0.1234,0.1,0.3702,0.3,stimuli/lakes/103023_left.png,stimuli/lakes/103023_right.png,,,,0,58,58,23,1,,,,,
,,,,,,$5cfa8766825511000129d41e,2020-07-21_15h23.45.120,fisher_task,2020.1.3,Win32,60,0.12890625,-0.309895833,1,0,0,1.46677,scale,,,,,,0.3702,0.3,0.1234,0.1,stimuli/lakes/901010_left.png,stimuli/lakes/901010_right.png,,,,0,59,59,10,1,,,,,
,,,,,,$5cfa8766825511000129d41e,2020-07-21_15h23.45.120,fisher_task,2020.1.3,Win32,60,0.123697917,-0.3046875,1,0,0,1.2499,scale,,,,,,0.3702,0.3,0.1234,0.1,stimuli/lakes/903031_left.png,stimuli/lakes/903031_right.png,,,,0,60,60,31,1,,,,,
,,,,,,$5cfa8766825511000129d41e,2020-07-21_15h23.45.120,fisher_task,2020.1.3,Win32,60,-0.095052083,-0.295572917,1,0,0,1.483335,scale,,,,,,0.2468,0.2,0.302267034,0.244948974,stimuli/lakes/4080111_left.png,stimuli/lakes/4080111_right.png,,,,0,61,61,111,1,,,,,
,,,,,,$5cfa8766825511000129d41e,2020-07-21_15h23.45.120,fisher_task,2020.1.3,Win32,60,0.013020833,-0.268229167,1,0,0,1.648525,scale,,,,,,0.302267034,0.244948974,0.2468,0.2,stimuli/lakes/605065_left.png,stimuli/lakes/605065_right.png,,,,0,62,62,65,1,,,,,
,,,,,,$5cfa8766825511000129d41e,2020-07-21_15h23.45.120,fisher_task,2020.1.3,Win32,60,-0.075520833,-0.27734375,1,0,0,1.76595,scale,,,,,,0.2468,0.2,0.302267034,0.244948974,stimuli/lakes/406083_left.png,stimuli/lakes/406083_right.png,,,,0,63,63,83,1,,,,,
,,,,,,$5cfa8766825511000129d41e,2020-07-21_15h23.45.120,fisher_task,2020.1.3,Win32,60,0.096354167,-0.295572917,1,0,0,1.365645,scale,,,,,,0.349027907,0.282842712,0.174513954,0.141421356,stimuli/lakes/802021_left.png,stimuli/lakes/802021_right.png,,,,0,64,64,21,1,,,,,
,,,,,,$5cfa8766825511000129d41e,2020-07-21_15h23.45.120,fisher_task,2020.1.3,Win32,60,-0.0625,-0.28125,1,0,0,1.34774,scale,,,,,,0.326485712,0.264575131,0.21373507,0.173205081,stimuli/lakes/707095_left.png,stimuli/lakes/707095_right.png,,,,0,65,65,95,1,,,,,
,,,,,,$5cfa8766825511000129d41e,2020-07-21_15h23.45.120,fisher_task,2020.1.3,Win32,60,-0.095052083,-0.287760417,1,0,0,1.365785,scale,,,,,,0.2468,0.2,0.302267034,0.244948974,stimuli/lakes/4070101_left.png,stimuli/lakes/4070101_right.png,,,space,0,66,66,101,1,3.15534,,,,
,,,,,,$5cfa8766825511000129d41e,2020-07-21_15h23.45.120,fisher_task,2020.1.3,Win32,60,-0.12109375,-0.2890625,1,0,0,1.364425,scale,,,,,,0.326485712,0.264575131,0.21373507,0.173205081,stimuli/lakes/705067_left.png,stimuli/lakes/705067_right.png,,,,0,67,67,67,1,,,,,
,,,,,,$5cfa8766825511000129d41e,2020-07-21_15h23.45.120,fisher_task,2020.1.3,Win32,60,0.126302083,-0.298177083,1,0,0,1.21782,scale,,,,,,0.326485712,0.264575131,0.21373507,0.173205081,stimuli/lakes/703038_left.png,stimuli/lakes/703038_right.png,,,,0,68,68,38,1,,,,,
,,,,,,$5cfa8766825511000129d41e,2020-07-21_15h23.45.120,fisher_task,2020.1.3,Win32,60,-0.147135417,-0.3515625,1,0,0,1.01663,scale,,,,,,0.326485712,0.264575131,0.21373507,0.173205081,stimuli/lakes/7070104_left.png,stimuli/lakes/7070104_right.png,,,,0,69,69,104,1,,,,,
,,,,,,$5cfa8766825511000129d41e,2020-07-21_15h23.45.120,fisher_task,2020.1.3,Win32,60,-0.075520833,-0.28515625,1,0,0,1.11762,scale,,,,,,0.21373507,0.173205081,0.326485712,0.264575131,stimuli/lakes/3090122_left.png,stimuli/lakes/3090122_right.png,,,,0,70,70,122,1,,,,,
,,,,,,$5cfa8766825511000129d41e,2020-07-21_15h23.45.120,fisher_task,2020.1.3,Win32,60,0.09375,-0.3125,1,0,0,1.3824,scale,,,,,,0.302267034,0.244948974,0.2468,0.2,stimuli/lakes/60105_left.png,stimuli/lakes/60105_right.png,,,,0,71,71,5,1,,,,,
,,,,,,$5cfa8766825511000129d41e,2020-07-21_15h23.45.120,fisher_task,2020.1.3,Win32,60,0.095052083,-0.3125,1,0,0,1.333375,scale,,,,,,0.2468,0.2,0.302267034,0.244948974,stimuli/lakes/405063_left.png,stimuli/lakes/405063_right.png,,,,0,72,72,63,1,,,,,
,,,,,,$5cfa8766825511000129d41e,2020-07-21_15h23.45.120,fisher_task,2020.1.3,Win32,60,-0.09765625,-0.295572917,1,0,0,1.249995,scale,,,,,,0.21373507,0.173205081,0.326485712,0.264575131,stimuli/lakes/3090121_left.png,stimuli/lakes/3090121_right.png,,,,0,73,73,121,1,,,,,
,,,,,,$5cfa8766825511000129d41e,2020-07-21_15h23.45.120,fisher_task,2020.1.3,Win32,60,0.135416667,-0.330729167,1,0,0,1.633175,scale,,,,,,0.174513954,0.141421356,0.349027907,0.282842712,stimuli/lakes/205060_left.png,stimuli/lakes/205060_right.png,,,,0,74,74,60,1,,,,,
,,,,,,$5cfa8766825511000129d41e,2020-07-21_15h23.45.120,fisher_task,2020.1.3,Win32,60,-0.11328125,-0.30859375,1,0,0,1.316585,scale,,,,,,0.302267034,0.244948974,0.2468,0.2,stimuli/lakes/606085_left.png,stimuli/lakes/606085_right.png,,,,0,75,75,85,1,,,,,
,,,,,,$5cfa8766825511000129d41e,2020-07-21_15h23.45.120,fisher_task,2020.1.3,Win32,60,-0.158854167,-0.403645833,1,0,0,1.01685,scale,,,,,,0.349027907,0.282842712,0.174513954,0.141421356,stimuli/lakes/8080118_left.png,stimuli/lakes/8080118_right.png,,,,0,76,76,118,1,,,,,
,,,,,,$5cfa8766825511000129d41e,2020-07-21_15h23.45.120,fisher_task,2020.1.3,Win32,60,-0.125,-0.30859375,1,0,0,1.568155,scale,,,,,,0.349027907,0.282842712,0.174513954,0.141421356,stimuli/lakes/807096_left.png,stimuli/lakes/807096_right.png,,,,0,77,77,96,1,,,,,
,,,,,,$5cfa8766825511000129d41e,2020-07-21_15h23.45.120,fisher_task,2020.1.3,Win32,60,0.098958333,-0.29296875,1,0,0,1.567155,scale,,,,,,0.326485712,0.264575131,0.21373507,0.173205081,stimuli/lakes/70107_left.png,stimuli/lakes/70107_right.png,,,,0,78,78,7,1,,,,,
,,,,,,$5cfa8766825511000129d41e,2020-07-21_15h23.45.120,fisher_task,2020.1.3,Win32,60,0.100260417,-0.28515625,1,0,0,2.135465,scale,,,,,,0.326485712,0.264575131,0.21373507,0.173205081,stimuli/lakes/70108_left.png,stimuli/lakes/70108_right.png,,,,0,79,79,8,1,,,,,
,,,,,,$5cfa8766825511000129d41e,2020-07-21_15h23.45.120,fisher_task,2020.1.3,Win32,60,-0.1015625,-0.30078125,1,0,0,2.9002,scale,,,,,,0.2468,0.2,0.302267034,0.244948974,stimuli/lakes/4090123_left.png,stimuli/lakes/4090123_right.png,,,,0,80,80,123,1,,,,,
,,,,,,$5cfa8766825511000129d41e,2020-07-21_15h23.45.120,fisher_task,2020.1.3,Win32,60,-0.109375,-0.307291667,1,0,0,1.31698,scale,,,,,,0.302267034,0.244948974,0.2468,0.2,stimuli/lakes/607094_left.png,stimuli/lakes/607094_right.png,,,,0,81,81,94,1,,,,,
,,,,,,$5cfa8766825511000129d41e,2020-07-21_15h23.45.120,fisher_task,2020.1.3,Win32,60,-0.109375,-0.307291667,1,0,0,1.7338,scale,,,,,,0.21373507,0.173205081,0.326485712,0.264575131,stimuli/lakes/306073_left.png,stimuli/lakes/306073_right.png,,,,0,82,82,73,1,,,,,
,,,,,,$5cfa8766825511000129d41e,2020-07-21_15h23.45.120,fisher_task,2020.1.3,Win32,60,-0.0859375,-0.295572917,1,0,0,1.38451,scale,,,,,,0.1234,0.1,0.3702,0.3,stimuli/lakes/107098_left.png,stimuli/lakes/107098_right.png,,,,0,83,83,98,1,,,,,
,,,,,,$5cfa8766825511000129d41e,2020-07-21_15h23.45.120,fisher_task,2020.1.3,Win32,60,0.067708333,-0.286458333,1,0,0,2.08208,scale,,,,,,0.302267034,0.244948974,0.2468,0.2,stimuli/lakes/604046_left.png,stimuli/lakes/604046_right.png,,,,0,84,84,46,1,,,,,
,,,,,,$5cfa8766825511000129d41e,2020-07-21_15h23.45.120,fisher_task,2020.1.3,Win32,60,-0.084635417,-0.283854167,1,0,0,1.4326,scale,,,,,,0.21373507,0.173205081,0.326485712,0.264575131,stimuli/lakes/307091_left.png,stimuli/lakes/307091_right.png,,,,0,85,85,91,1,,,,,
,,,,,,$5cfa8766825511000129d41e,2020-07-21_15h23.45.120,fisher_task,2020.1.3,Win32,60,-0.1328125,-0.32421875,1,0,0,1.299815,scale,,,,,,0.302267034,0.244948974,0.2468,0.2,stimuli/lakes/6070103_left.png,stimuli/lakes/6070103_right.png,,,,0,86,86,103,1,,,,,
,,,,,,$5cfa8766825511000129d41e,2020-07-21_15h23.45.120,fisher_task,2020.1.3,Win32,60,-0.13671875,-0.34375,1,0,0,1.499365,scale,,,,,,0.275930788,0.223606798,0.275930788,0.223606798,stimuli/lakes/506084_left.png,stimuli/lakes/506084_right.png,,,,0,87,87,84,1,,,,,
,,,,,,$5cfa8766825511000129d41e,2020-07-21_15h23.45.120,fisher_task,2020.1.3,Win32,60,-0.076822917,-0.276041667,1,0,0,1.416215,scale,,,,,,0.21373507,0.173205081,0.326485712,0.264575131,stimuli/lakes/3080110_left.png,stimuli/lakes/3080110_right.png,,,space,0,88,88,110,1,2.070545,,,,
,,,,,,$5cfa8766825511000129d41e,2020-07-21_15h23.45.120,fisher_task,2020.1.3,Win32,60,0.110677083,-0.294270833,1,0,0,1.54946,scale,,,,,,0.21373507,0.173205081,0.326485712,0.264575131,stimuli/lakes/304043_left.png,stimuli/lakes/304043_right.png,,,,0,89,89,43,1,,,,,
,,,,,,$5cfa8766825511000129d41e,2020-07-21_15h23.45.120,fisher_task,2020.1.3,Win32,60,-0.08984375,-0.2890625,1,0,0,1.382055,scale,,,,,,0.174513954,0.141421356,0.349027907,0.282842712,stimuli/lakes/206072_left.png,stimuli/lakes/206072_right.png,,,,0,90,90,72,1,,,,,
,,,,,,$5cfa8766825511000129d41e,2020-07-21_15h23.45.120,fisher_task,2020.1.3,Win32,60,0.147135417,-0.359375,1,0,0,1.61605,scale,,,,,,0.174513954,0.141421356,0.349027907,0.282842712,stimuli/lakes/202011_left.png,stimuli/lakes/202011_right.png,,,,0,91,91,11,1,,,,,
,,,,,,$5cfa8766825511000129d41e,2020-07-21_15h23.45.120,fisher_task,2020.1.3,Win32,60,0.12109375,-0.30078125,1,0,0,1.483245,scale,,,,,,0.174513954,0.141421356,0.349027907,0.282842712,stimuli/lakes/204051_left.png,stimuli/lakes/204051_right.png,,,,0,92,92,51,1,,,,,
,,,,,,$5cfa8766825511000129d41e,2020-07-21_15h23.45.120,fisher_task,2020.1.3,Win32,60,0.092447917,-0.303385417,1,0,0,1.433975,scale,,,,,,0.326485712,0.264575131,0.21373507,0.173205081,stimuli/lakes/702020_left.png,stimuli/lakes/702020_right.png,,,,0,93,93,20,1,,,,,
,,,,,,$5cfa8766825511000129d41e,2020-07-21_15h23.45.120,fisher_task,2020.1.3,Win32,60,0.005208333,-0.276041667,1,0,0,1.699545,scale,,,,,,0.21373507,0.173205081,0.326485712,0.264575131,stimuli/lakes/305062_left.png,stimuli/lakes/305062_right.png,,,,0,94,94,62,1,,,,,
,,,,,,$5cfa8766825511000129d41e,2020-07-21_15h23.45.120,fisher_task,2020.1.3,Win32,60,-0.145833333,-0.358072917,1,0,0,1.498915,scale,,,,,,0.326485712,0.264575131,0.21373507,0.173205081,stimuli/lakes/7090129_left.png,stimuli/lakes/7090129_right.png,,,,0,95,95,129,1,,,,,
,,,,,,$5cfa8766825511000129d41e,2020-07-21_15h23.45.120,fisher_task,2020.1.3,Win32,60,-0.084635417,-0.295572917,1,0,0,1.253065,scale,,,,,,0.1234,0.1,0.3702,0.3,stimuli/lakes/107089_left.png,stimuli/lakes/107089_right.png,,,,0,96,96,89,1,,,,,
,,,,,,$5cfa8766825511000129d41e,2020-07-21_15h23.45.120,fisher_task,2020.1.3,Win32,60,-0.11328125,-0.3046875,1,0,0,2.251405,scale,,,,,,0.1234,0.1,0.3702,0.3,stimuli/lakes/1090119_left.png,stimuli/lakes/1090119_right.png,,,,0,97,97,119,1,,,,,
,,,,,,$5cfa8766825511000129d41e,2020-07-21_15h23.45.120,fisher_task,2020.1.3,Win32,60,0.0859375,-0.302083333,1,0,0,1.2843,scale,,,,,,0.2468,0.2,0.302267034,0.244948974,stimuli/lakes/402015_left.png,stimuli/lakes/402015_right.png,,,,0,98,98,15,1,,,,,
,,,,,,$5cfa8766825511000129d41e,2020-07-21_15h23.45.120,fisher_task,2020.1.3,Win32,60,-0.134114583,-0.359375,1,0,0,1.253515,scale,,,,,,0.349027907,0.282842712,0.174513954,0.141421356,stimuli/lakes/806078_left.png,stimuli/lakes/806078_right.png,,,,0,99,99,78,1,,,,,
,,,,,,$5cfa8766825511000129d41e,2020-07-21_15h23.45.120,fisher_task,2020.1.3,Win32,60,0.1171875,-0.299479167,1,0,0,1.61638,scale,,,,,,0.21373507,0.173205081,0.326485712,0.264575131,stimuli/lakes/30101_left.png,stimuli/lakes/30101_right.png,,,,0,100,100,1,1,,,,,
,,,,,,$5cfa8766825511000129d41e,2020-07-21_15h23.45.120,fisher_task,2020.1.3,Win32,60,-0.106770833,-0.286458333,1,0,0,1.39865,scale,,,,,,0.174513954,0.141421356,0.349027907,0.282842712,stimuli/lakes/207090_left.png,stimuli/lakes/207090_right.png,,,,0,101,101,90,1,,,,,
,,,,,,$5cfa8766825511000129d41e,2020-07-21_15h23.45.120,fisher_task,2020.1.3,Win32,60,0.134114583,-0.346354167,1,0,0,1.565895,scale,,,,,,0.21373507,0.173205081,0.326485712,0.264575131,stimuli/lakes/30100_left.png,stimuli/lakes/30100_right.png,,,,0,102,102,0,1,,,,,
,,,,,,$5cfa8766825511000129d41e,2020-07-21_15h23.45.120,fisher_task,2020.1.3,Win32,60,-0.078125,-0.2890625,1,0,0,1.100185,scale,,,,,,0.302267034,0.244948974,0.2468,0.2,stimuli/lakes/6090127_left.png,stimuli/lakes/6090127_right.png,,,,0,103,103,127,1,,,,,
,,,,,,$5cfa8766825511000129d41e,2020-07-21_15h23.45.120,fisher_task,2020.1.3,Win32,60,0.1328125,-0.32421875,1,0,0,1.76566,scale,,,,,,0.275930788,0.223606798,0.275930788,0.223606798,stimuli/lakes/502016_left.png,stimuli/lakes/502016_right.png,,,,0,104,104,16,1,,,,,
,,,,,,$5cfa8766825511000129d41e,2020-07-21_15h23.45.120,fisher_task,2020.1.3,Win32,60,-0.092447917,-0.299479167,1,0,0,1.315735,scale,,,,,,0.302267034,0.244948974,0.2468,0.2,stimuli/lakes/6080114_left.png,stimuli/lakes/6080114_right.png,,,,0,105,105,114,1,,,,,
,,,,,,$5cfa8766825511000129d41e,2020-07-21_15h23.45.120,fisher_task,2020.1.3,Win32,60,0.110677083,-0.30859375,1,0,0,1.5308,scale,,,,,,0.349027907,0.282842712,0.174513954,0.141421356,stimuli/lakes/803030_left.png,stimuli/lakes/803030_right.png,,,,0,106,106,30,1,,,,,
,,,,,,$5cfa8766825511000129d41e,2020-07-21_15h23.45.120,fisher_task,2020.1.3,Win32,60,0.115885417,-0.315104167,1,0,0,1.384545,scale,,,,,,0.2468,0.2,0.302267034,0.244948974,stimuli/lakes/404053_left.png,stimuli/lakes/404053_right.png,,,,0,107,107,53,1,,,,,
,,,,,,$5cfa8766825511000129d41e,2020-07-21_15h23.45.120,fisher_task,2020.1.3,Win32,60,-0.122395833,-0.299479167,1,0,0,1.63329,scale,,,,,,0.174513954,0.141421356,0.349027907,0.282842712,stimuli/lakes/206081_left.png,stimuli/lakes/206081_right.png,,,,0,108,108,81,1,,,,,
,,,,,,$5cfa8766825511000129d41e,2020-07-21_15h23.45.120,fisher_task,2020.1.3,Win32,60,0.114583333,-0.311197917,1,0,0,1.63341,scale,,,,,,0.2468,0.2,0.302267034,0.244948974,stimuli/lakes/403026_left.png,stimuli/lakes/403026_right.png,,,,0,109,109,26,1,,,,,
,,,,,,$5cfa8766825511000129d41e,2020-07-21_15h23.45.120,fisher_task,2020.1.3,Win32,60,0.162760417,-0.420572917,1,0,0,0.982715,scale,,,,,,0.275930788,0.223606798,0.275930788,0.223606798,stimuli/lakes/50104_left.png,stimuli/lakes/50104_right.png,,,space,0,110,110,4,1,2.016115,,,,
,,,,,,$5cfa8766825511000129d41e,2020-07-21_15h23.45.120,fisher_task,2020.1.3,Win32,60,0.12890625,-0.3125,1,0,0,1.51721,scale,,,,,,0.275930788,0.223606798,0.275930788,0.223606798,stimuli/lakes/504045_left.png,stimuli/lakes/504045_right.png,,,,0,111,111,45,1,,,,,
,,,,,,$5cfa8766825511000129d41e,2020-07-21_15h23.45.120,fisher_task,2020.1.3,Win32,60,0.141927083,-0.33203125,1,0,0,1.032215,scale,,,,,,0.302267034,0.244948974,0.2468,0.2,stimuli/lakes/60106_left.png,stimuli/lakes/60106_right.png,,,,0,112,112,6,1,,,,,
,,,,,,$5cfa8766825511000129d41e,2020-07-21_15h23.45.120,fisher_task,2020.1.3,Win32,60,-0.078125,-0.282552083,1,0,0,1.317145,scale,,,,,,0.21373507,0.173205081,0.326485712,0.264575131,stimuli/lakes/3080109_left.png,stimuli/lakes/3080109_right.png,,,,0,113,113,109,1,,,,,
,,,,,,$5cfa8766825511000129d41e,2020-07-21_15h23.45.120,fisher_task,2020.1.3,Win32,60,-0.0859375,-0.28515625,1,0,0,1.27059,scale,,,,,,0.174513954,0.141421356,0.349027907,0.282842712,stimuli/lakes/207099_left.png,stimuli/lakes/207099_right.png,,,,0,114,114,99,1,,,,,
,,,,,,$5cfa8766825511000129d41e,2020-07-21_15h23.45.120,fisher_task,2020.1.3,Win32,60,0.1328125,-0.33203125,1,0,0,1.56679,scale,,,,,,0.1234,0.1,0.3702,0.3,stimuli/lakes/103032_left.png,stimuli/lakes/103032_right.png,,,,0,115,115,32,1,,,,,
,,,,,,$5cfa8766825511000129d41e,2020-07-21_15h23.45.120,fisher_task,2020.1.3,Win32,60,-0.1640625,-0.384114583,1,0,0,1.249745,scale,,,,,,0.326485712,0.264575131,0.21373507,0.173205081,stimuli/lakes/7080117_left.png,stimuli/lakes/7080117_right.png,,,,0,116,116,117,1,,,,,
,,,,,,$5cfa8766825511000129d41e,2020-07-21_15h23.45.120,fisher_task,2020.1.3,Win32,60,-0.114583333,-0.3046875,1,0,0,1.18333,scale,,,,,,0.275930788,0.223606798,0.275930788,0.223606798,stimuli/lakes/507093_left.png,stimuli/lakes/507093_right.png,,,,0,117,117,93,1,,,,,
,,,,,,$5cfa8766825511000129d41e,2020-07-21_15h23.45.120,fisher_task,2020.1.3,Win32,60,-0.131510417,-0.330729167,1,0,0,1.40076,scale,,,,,,0.302267034,0.244948974,0.2468,0.2,stimuli/lakes/6080115_left.png,stimuli/lakes/6080115_right.png,,,,0,118,118,115,1,,,,,
,,,,,,$5cfa8766825511000129d41e,2020-07-21_15h23.45.120,fisher_task,2020.1.3,Win32,60,0.1171875,-0.309895833,1,0,0,1.56657,scale,,,,,,0.2468,0.2,0.302267034,0.244948974,stimuli/lakes/405064_left.png,stimuli/lakes/405064_right.png,,,,0,119,119,64,1,,,,,
,,,,,,$5cfa8766825511000129d41e,2020-07-21_15h23.45.120,fisher_task,2020.1.3,Win32,60,-0.161458333,-0.37109375,1,0,0,0.96461,scale,,,,,,0.3702,0.3,0.1234,0.1,stimuli/lakes/906088_left.png,stimuli/lakes/906088_right.png,,,,0,120,120,88,1,,,,,
,,,,,,$5cfa8766825511000129d41e,2020-07-21_15h23.45.120,fisher_task,2020.1.3,Win32,60,0.083333333,-0.283854167,1,0,0,2.10472,scale,,,,,,0.302267034,0.244948974,0.2468,0.2,stimuli/lakes/604055_left.png,stimuli/lakes/604055_right.png,,,,0,121,121,55,1,,,,,
,,,,,,$5cfa8766825511000129d41e,2020-07-21_15h23.45.120,fisher_task,2020.1.3,Win32,60,-0.115885417,-0.298177083,1,0,0,1.38265,scale,,,,,,0.2468,0.2,0.302267034,0.244948974,stimuli/lakes/4080112_left.png,stimuli/lakes/4080112_right.png,,,,0,122,122,112,1,,,,,
,,,,,,$5cfa8766825511000129d41e,2020-07-21_15h23.45.120,fisher_task,2020.1.3,Win32,60,-0.115885417,-0.298177083,1,0,0,1.084275,scale,,,,,,0.326485712,0.264575131,0.21373507,0.173205081,stimuli/lakes/706086_left.png,stimuli/lakes/706086_right.png,,,,0,123,123,86,1,,,,,
,,,,,,$5cfa8766825511000129d41e,2020-07-21_15h23.45.120,fisher_task,2020.1.3,Win32,60,0.169270833,-0.390625,1,0,0,1.215495,scale,,,,,,0.1234,0.1,0.3702,0.3,stimuli/lakes/104050_left.png,stimuli/lakes/104050_right.png,,,,0,124,124,50,1,,,,,
,,,,,,$5cfa8766825511000129d41e,2020-07-21_15h23.45.120,fisher_task,2020.1.3,Win32,60,0.145833333,-0.32421875,1,0,0,1.28361,scale,,,,,,0.1234,0.1,0.3702,0.3,stimuli/lakes/105059_left.png,stimuli/lakes/105059_right.png,,,,0,125,125,59,1,,,,,
,,,,,,$5cfa8766825511000129d41e,2020-07-21_15h23.45.120,fisher_task,2020.1.3,Win32,60,-0.15234375,-0.390625,1,0,0,1.233715,scale,,,,,,0.275930788,0.223606798,0.275930788,0.223606798,stimuli/lakes/5090125_left.png,stimuli/lakes/5090125_right.png,,,,0,126,126,125,1,,,,,
,,,,,,$5cfa8766825511000129d41e,2020-07-21_15h23.45.120,fisher_task,2020.1.3,Win32,60,0.115885417,-0.290364583,1,0,0,1.49888,scale,,,,,,0.275930788,0.223606798,0.275930788,0.223606798,stimuli/lakes/504054_left.png,stimuli/lakes/504054_right.png,,,,0,127,127,54,1,,,,,
,,,,,,$5cfa8766825511000129d41e,2020-07-21_15h23.45.120,fisher_task,2020.1.3,Win32,60,0.157552083,-0.415364583,1,0,0,1.116135,scale,,,,,,0.174513954,0.141421356,0.349027907,0.282842712,stimuli/lakes/203024_left.png,stimuli/lakes/203024_right.png,,,,0,128,128,24,1,,,,,
,,,,,,$5cfa8766825511000129d41e,2020-07-21_15h23.45.120,fisher_task,2020.1.3,Win32,60,0.10546875,-0.305989583,1,0,0,1.216515,scale,,,,,,0.302267034,0.244948974,0.2468,0.2,stimuli/lakes/602018_left.png,stimuli/lakes/602018_right.png,,,,0,129,129,18,1,,,,,
,,,,,,$5cfa8766825511000129d41e,2020-07-21_15h23.45.120,fisher_task,2020.1.3,Win32,60,,,,,,,,,,,,,,,,,,,,,,,,,,,,space,3.86985,space,16.141825
