keySpace.keys,instructions.thisRepN,instructions.thisTrialN,instructions.thisN,instructions.thisIndex,instructions.ran,participant,date,expName,psychopyVersion,OS,frameRate,mouse.x,mouse.y,mouse.leftButton,mouse.midButton,mouse.rightButton,mouse.time,mouse.clicked_name,training.thisRepN,training.thisTrialN,training.thisN,training.thisIndex,training.ran,widthBasketLeft,heightBasketLeft,widthBasketRight,heightBasketRight,leftLake,rightLake,space2.keys,space2.rt,space1.keys,trials.thisRepN,trials.thisTrialN,trials.thisN,trials.thisIndex,trials.ran,space1.rt,finalSpace1.keys,finalSpace1.rt,finalSpace2.keys,finalSpace2.rt
,0,0,0,0,1,$5efe37abda112713870433a4,2020-07-21_16h30.05.992,fisher_task,2020.1.3,Win32,60,,,,,,,,,,,,,,,,,,,,,,,,,,,,,,,
,,,,,,$5efe37abda112713870433a4,2020-07-21_16h30.05.992,fisher_task,2020.1.3,Win32,60,0.15462963,-0.373148148,1,0,0,2.34743,scale,0,0,0,0,1,0.275930788,0.223606798,0.275930788,0.223606798,stimuli/training/20_left.png,stimuli/training/20_right.png,,,,,,,,,,,,,
,,,,,,$5efe37abda112713870433a4,2020-07-21_16h30.05.992,fisher_task,2020.1.3,Win32,60,-0.152777778,-0.410185185,1,0,0,1.874595,scale,0,1,1,1,1,0.275930788,0.223606798,0.275930788,0.223606798,stimuli/training/80_left.png,stimuli/training/80_right.png,,,,,,,,,,,,,
,,,,,,$5efe37abda112713870433a4,2020-07-21_16h30.05.992,fisher_task,2020.1.3,Win32,60,-0.127777778,-0.313888889,1,0,0,5.65268,scale,0,2,2,2,1,0.174513954,0.141421356,0.349027907,0.282842712,stimuli/training/50_left.png,stimuli/training/50_right.png,,,,,,,,,,,,,
,,,,,,$5efe37abda112713870433a4,2020-07-21_16h30.05.992,fisher_task,2020.1.3,Win32,60,-0.108333333,-0.3,1,0,0,2.94432,scale,0,3,3,3,1,0.349027907,0.282842712,0.174513954,0.141421356,stimuli/training/50_left.png,stimuli/training/50_right.png,,,,,,,,,,,,,
,,,,,,$5efe37abda112713870433a4,2020-07-21_16h30.05.992,fisher_task,2020.1.3,Win32,60,0.052777778,-0.264814815,1,0,0,2.15279,scale,0,4,4,4,1,0.275930788,0.223606798,0.275930788,0.223606798,stimuli/training/50_left.png,stimuli/training/50_right.png,,,,,,,,,,,,,
,,,,,,$5efe37abda112713870433a4,2020-07-21_16h30.05.992,fisher_task,2020.1.3,Win32,60,0.163888889,-0.407407407,1,0,0,1.597175,scale,0,5,5,5,1,0.174513954,0.141421356,0.349027907,0.282842712,stimuli/training/20_left.png,stimuli/training/20_right.png,,,,,,,,,,,,,
,,,,,,$5efe37abda112713870433a4,2020-07-21_16h30.05.992,fisher_task,2020.1.3,Win32,60,-0.164814815,-0.398148148,1,0,0,1.749735,scale,0,6,6,6,1,0.349027907,0.282842712,0.174513954,0.141421356,stimuli/training/80_left.png,stimuli/training/80_right.png,,,,,,,,,,,,,
,,,,,,$5efe37abda112713870433a4,2020-07-21_16h30.05.992,fisher_task,2020.1.3,Win32,60,0.175,-0.413888889,1,0,0,1.652375,scale,0,7,7,7,1,0.1234,0.1,0.3702,0.3,stimuli/training/30_left.png,stimuli/training/30_right.png,,,,,,,,,,,,,
,,,,,,$5efe37abda112713870433a4,2020-07-21_16h30.05.992,fisher_task,2020.1.3,Win32,60,-0.15462963,-0.39537037,1,0,0,1.763445,scale,0,8,8,8,1,0.3702,0.3,0.1234,0.1,stimuli/training/70_left.png,stimuli/training/70_right.png,,,,,,,,,,,,,
,,,,,,$5efe37abda112713870433a4,2020-07-21_16h30.05.992,fisher_task,2020.1.3,Win32,60,-0.150925926,-0.411111111,1,0,0,1.56915,scale,0,9,9,9,1,0.326485712,0.264575131,0.21373507,0.173205081,stimuli/training/90_left.png,stimuli/training/90_right.png,,,,,,,,,,,,,
,,,,,,$5efe37abda112713870433a4,2020-07-21_16h30.05.992,fisher_task,2020.1.3,Win32,60,0.137962963,-0.374074074,1,0,0,1.61066,scale,0,10,10,10,1,0.21373507,0.173205081,0.326485712,0.264575131,stimuli/training/10_left.png,stimuli/training/10_right.png,,,,,,,,,,,,,
,,,,,,$5efe37abda112713870433a4,2020-07-21_16h30.05.992,fisher_task,2020.1.3,Win32,60,0.069444444,-0.281481481,1,0,0,3.567945,scale,,,,,,0.3702,0.3,0.1234,0.1,stimuli/lakes/904058_left.png,stimuli/lakes/904058_right.png,space,4.827045,,0,0,0,58,1,,,,,
,,,,,,$5efe37abda112713870433a4,2020-07-21_16h30.05.992,fisher_task,2020.1.3,Win32,60,0.128703704,-0.315740741,1,0,0,1.707675,scale,,,,,,0.2468,0.2,0.302267034,0.244948974,stimuli/lakes/404053_left.png,stimuli/lakes/404053_right.png,,,,0,1,1,53,1,,,,,
,,,,,,$5efe37abda112713870433a4,2020-07-21_16h30.05.992,fisher_task,2020.1.3,Win32,60,0.155555556,-0.37962963,1,0,0,1.194505,scale,,,,,,0.2468,0.2,0.302267034,0.244948974,stimuli/lakes/402014_left.png,stimuli/lakes/402014_right.png,,,,0,2,2,14,1,,,,,
,,,,,,$5efe37abda112713870433a4,2020-07-21_16h30.05.992,fisher_task,2020.1.3,Win32,60,0.087037037,-0.271296296,1,0,0,2.860685,scale,,,,,,0.2468,0.2,0.302267034,0.244948974,stimuli/lakes/405064_left.png,stimuli/lakes/405064_right.png,,,,0,3,3,64,1,,,,,
,,,,,,$5efe37abda112713870433a4,2020-07-21_16h30.05.992,fisher_task,2020.1.3,Win32,60,0.127777778,-0.317592593,1,0,0,2.222165,scale,,,,,,0.21373507,0.173205081,0.326485712,0.264575131,stimuli/lakes/305061_left.png,stimuli/lakes/305061_right.png,,,,0,4,4,61,1,,,,,
,,,,,,$5efe37abda112713870433a4,2020-07-21_16h30.05.992,fisher_task,2020.1.3,Win32,60,0.110185185,-0.299074074,1,0,0,4.16609,scale,,,,,,0.302267034,0.244948974,0.2468,0.2,stimuli/lakes/60106_left.png,stimuli/lakes/60106_right.png,,,,0,5,5,6,1,,,,,
,,,,,,$5efe37abda112713870433a4,2020-07-21_16h30.05.992,fisher_task,2020.1.3,Win32,60,0.136111111,-0.347222222,1,0,0,1.528195,scale,,,,,,0.174513954,0.141421356,0.349027907,0.282842712,stimuli/lakes/204042_left.png,stimuli/lakes/204042_right.png,,,,0,6,6,42,1,,,,,
,,,,,,$5efe37abda112713870433a4,2020-07-21_16h30.05.992,fisher_task,2020.1.3,Win32,60,-0.118518519,-0.308333333,1,0,0,2.31963,scale,,,,,,0.275930788,0.223606798,0.275930788,0.223606798,stimuli/lakes/506084_left.png,stimuli/lakes/506084_right.png,,,,0,7,7,84,1,,,,,
,,,,,,$5efe37abda112713870433a4,2020-07-21_16h30.05.992,fisher_task,2020.1.3,Win32,60,0.002777778,-0.265740741,1,0,0,2.180255,scale,,,,,,0.2468,0.2,0.302267034,0.244948974,stimuli/lakes/406074_left.png,stimuli/lakes/406074_right.png,,,,0,8,8,74,1,,,,,
,,,,,,$5efe37abda112713870433a4,2020-07-21_16h30.05.992,fisher_task,2020.1.3,Win32,60,0.106481481,-0.299074074,1,0,0,1.721845,scale,,,,,,0.275930788,0.223606798,0.275930788,0.223606798,stimuli/lakes/503027_left.png,stimuli/lakes/503027_right.png,,,,0,9,9,27,1,,,,,
,,,,,,$5efe37abda112713870433a4,2020-07-21_16h30.05.992,fisher_task,2020.1.3,Win32,60,-0.090740741,-0.291666667,1,0,0,3.62496,scale,,,,,,0.2468,0.2,0.302267034,0.244948974,stimuli/lakes/4080111_left.png,stimuli/lakes/4080111_right.png,,,,0,10,10,111,1,,,,,
,,,,,,$5efe37abda112713870433a4,2020-07-21_16h30.05.992,fisher_task,2020.1.3,Win32,60,0.086111111,-0.282407407,1,0,0,2.22175,scale,,,,,,0.302267034,0.244948974,0.2468,0.2,stimuli/lakes/603028_left.png,stimuli/lakes/603028_right.png,,,,0,11,11,28,1,,,,,
,,,,,,$5efe37abda112713870433a4,2020-07-21_16h30.05.992,fisher_task,2020.1.3,Win32,60,-0.133333333,-0.334259259,1,0,0,3.5971,scale,,,,,,0.174513954,0.141421356,0.349027907,0.282842712,stimuli/lakes/2090120_left.png,stimuli/lakes/2090120_right.png,,,,0,12,12,120,1,,,,,
,,,,,,$5efe37abda112713870433a4,2020-07-21_16h30.05.992,fisher_task,2020.1.3,Win32,60,-0.15462963,-0.380555556,1,0,0,2.38883,scale,,,,,,0.326485712,0.264575131,0.21373507,0.173205081,stimuli/lakes/706086_left.png,stimuli/lakes/706086_right.png,,,,0,13,13,86,1,,,,,
,,,,,,$5efe37abda112713870433a4,2020-07-21_16h30.05.992,fisher_task,2020.1.3,Win32,60,-0.14537037,-0.349074074,1,0,0,1.652235,scale,,,,,,0.21373507,0.173205081,0.326485712,0.264575131,stimuli/lakes/3090121_left.png,stimuli/lakes/3090121_right.png,,,,0,14,14,121,1,,,,,
,,,,,,$5efe37abda112713870433a4,2020-07-21_16h30.05.992,fisher_task,2020.1.3,Win32,60,0.139814815,-0.351851852,1,0,0,2.458005,scale,,,,,,0.21373507,0.173205081,0.326485712,0.264575131,stimuli/lakes/30101_left.png,stimuli/lakes/30101_right.png,,,,0,15,15,1,1,,,,,
,,,,,,$5efe37abda112713870433a4,2020-07-21_16h30.05.992,fisher_task,2020.1.3,Win32,60,-0.086111111,-0.284259259,1,0,0,2.58302,scale,,,,,,0.21373507,0.173205081,0.326485712,0.264575131,stimuli/lakes/306082_left.png,stimuli/lakes/306082_right.png,,,,0,16,16,82,1,,,,,
,,,,,,$5efe37abda112713870433a4,2020-07-21_16h30.05.992,fisher_task,2020.1.3,Win32,60,0.107407407,-0.30462963,1,0,0,2.6528,scale,,,,,,0.326485712,0.264575131,0.21373507,0.173205081,stimuli/lakes/702020_left.png,stimuli/lakes/702020_right.png,,,,0,17,17,20,1,,,,,
,,,,,,$5efe37abda112713870433a4,2020-07-21_16h30.05.992,fisher_task,2020.1.3,Win32,60,-0.074074074,-0.275925926,1,0,0,3.05502,scale,,,,,,0.3702,0.3,0.1234,0.1,stimuli/lakes/903031_left.png,stimuli/lakes/903031_right.png,,,,0,18,18,31,1,,,,,
,,,,,,$5efe37abda112713870433a4,2020-07-21_16h30.05.992,fisher_task,2020.1.3,Win32,60,-0.114814815,-0.313888889,1,0,0,2.027675,scale,,,,,,0.275930788,0.223606798,0.275930788,0.223606798,stimuli/lakes/5070102_left.png,stimuli/lakes/5070102_right.png,,,,0,19,19,102,1,,,,,
,,,,,,$5efe37abda112713870433a4,2020-07-21_16h30.05.992,fisher_task,2020.1.3,Win32,60,-0.164814815,-0.421296296,1,0,0,1.444185,scale,,,,,,0.302267034,0.244948974,0.2468,0.2,stimuli/lakes/6090127_left.png,stimuli/lakes/6090127_right.png,,,,0,20,20,127,1,,,,,
,,,,,,$5efe37abda112713870433a4,2020-07-21_16h30.05.992,fisher_task,2020.1.3,Win32,60,0.037962963,-0.262037037,1,0,0,4.06933,scale,,,,,,0.302267034,0.244948974,0.2468,0.2,stimuli/lakes/603037_left.png,stimuli/lakes/603037_right.png,,,,0,21,21,37,1,,,,,
,,,,,,$5efe37abda112713870433a4,2020-07-21_16h30.05.992,fisher_task,2020.1.3,Win32,60,0.135185185,-0.334259259,1,0,0,2.2079,scale,,,,,,0.21373507,0.173205081,0.326485712,0.264575131,stimuli/lakes/302013_left.png,stimuli/lakes/302013_right.png,,,space,0,22,22,13,1,5.74771,,,,
,,,,,,$5efe37abda112713870433a4,2020-07-21_16h30.05.992,fisher_task,2020.1.3,Win32,60,0.136111111,-0.348148148,1,0,0,1.37502,scale,,,,,,0.2468,0.2,0.302267034,0.244948974,stimuli/lakes/40103_left.png,stimuli/lakes/40103_right.png,,,,0,23,23,3,1,,,,,
,,,,,,$5efe37abda112713870433a4,2020-07-21_16h30.05.992,fisher_task,2020.1.3,Win32,60,-0.114814815,-0.294444444,1,0,0,2.152695,scale,,,,,,0.326485712,0.264575131,0.21373507,0.173205081,stimuli/lakes/705067_left.png,stimuli/lakes/705067_right.png,,,,0,24,24,67,1,,,,,
,,,,,,$5efe37abda112713870433a4,2020-07-21_16h30.05.992,fisher_task,2020.1.3,Win32,60,-0.060185185,-0.266666667,1,0,0,1.651855,scale,,,,,,0.174513954,0.141421356,0.349027907,0.282842712,stimuli/lakes/2080108_left.png,stimuli/lakes/2080108_right.png,,,,0,25,25,108,1,,,,,
,,,,,,$5efe37abda112713870433a4,2020-07-21_16h30.05.992,fisher_task,2020.1.3,Win32,60,-0.102777778,-0.300925926,1,0,0,1.638555,scale,,,,,,0.2468,0.2,0.302267034,0.244948974,stimuli/lakes/4090124_left.png,stimuli/lakes/4090124_right.png,,,,0,26,26,124,1,,,,,
,,,,,,$5efe37abda112713870433a4,2020-07-21_16h30.05.992,fisher_task,2020.1.3,Win32,60,0.117592593,-0.314814815,1,0,0,1.930415,scale,,,,,,0.21373507,0.173205081,0.326485712,0.264575131,stimuli/lakes/304052_left.png,stimuli/lakes/304052_right.png,,,,0,27,27,52,1,,,,,
,,,,,,$5efe37abda112713870433a4,2020-07-21_16h30.05.992,fisher_task,2020.1.3,Win32,60,0.067592593,-0.274074074,1,0,0,2.0833,scale,,,,,,0.1234,0.1,0.3702,0.3,stimuli/lakes/107098_left.png,stimuli/lakes/107098_right.png,,,,0,28,28,98,1,,,,,
,,,,,,$5efe37abda112713870433a4,2020-07-21_16h30.05.992,fisher_task,2020.1.3,Win32,60,0.042592593,-0.269444444,1,0,0,1.95818,scale,,,,,,0.326485712,0.264575131,0.21373507,0.173205081,stimuli/lakes/702019_left.png,stimuli/lakes/702019_right.png,,,,0,29,29,19,1,,,,,
,,,,,,$5efe37abda112713870433a4,2020-07-21_16h30.05.992,fisher_task,2020.1.3,Win32,60,0.000925926,-0.256481481,1,0,0,1.861015,scale,,,,,,0.302267034,0.244948974,0.2468,0.2,stimuli/lakes/604055_left.png,stimuli/lakes/604055_right.png,,,,0,30,30,55,1,,,,,
,,,,,,$5efe37abda112713870433a4,2020-07-21_16h30.05.992,fisher_task,2020.1.3,Win32,60,0.009259259,-0.257407407,1,0,0,3.029055,scale,,,,,,0.1234,0.1,0.3702,0.3,stimuli/lakes/1080107_left.png,stimuli/lakes/1080107_right.png,,,,0,31,31,107,1,,,,,
,,,,,,$5efe37abda112713870433a4,2020-07-21_16h30.05.992,fisher_task,2020.1.3,Win32,60,-0.146296296,-0.360185185,1,0,0,1.652565,scale,,,,,,0.326485712,0.264575131,0.21373507,0.173205081,stimuli/lakes/7090129_left.png,stimuli/lakes/7090129_right.png,,,,0,32,32,129,1,,,,,
,,,,,,$5efe37abda112713870433a4,2020-07-21_16h30.05.992,fisher_task,2020.1.3,Win32,60,-0.083333333,-0.285185185,1,0,0,2.68012,scale,,,,,,0.3702,0.3,0.1234,0.1,stimuli/lakes/904049_left.png,stimuli/lakes/904049_right.png,,,,0,33,33,49,1,,,,,
,,,,,,$5efe37abda112713870433a4,2020-07-21_16h30.05.992,fisher_task,2020.1.3,Win32,60,0.107407407,-0.309259259,1,0,0,1.735965,scale,,,,,,0.275930788,0.223606798,0.275930788,0.223606798,stimuli/lakes/502016_left.png,stimuli/lakes/502016_right.png,,,,0,34,34,16,1,,,,,
,,,,,,$5efe37abda112713870433a4,2020-07-21_16h30.05.992,fisher_task,2020.1.3,Win32,60,-0.055555556,-0.266666667,1,0,0,3.138855,scale,,,,,,0.21373507,0.173205081,0.326485712,0.264575131,stimuli/lakes/307091_left.png,stimuli/lakes/307091_right.png,,,,0,35,35,91,1,,,,,
,,,,,,$5efe37abda112713870433a4,2020-07-21_16h30.05.992,fisher_task,2020.1.3,Win32,60,0.125,-0.325,1,0,0,1.91631,scale,,,,,,0.1234,0.1,0.3702,0.3,stimuli/lakes/105059_left.png,stimuli/lakes/105059_right.png,,,,0,36,36,59,1,,,,,
,,,,,,$5efe37abda112713870433a4,2020-07-21_16h30.05.992,fisher_task,2020.1.3,Win32,60,0.047222222,-0.266666667,1,0,0,1.569295,scale,,,,,,0.2468,0.2,0.302267034,0.244948974,stimuli/lakes/404044_left.png,stimuli/lakes/404044_right.png,,,,0,37,37,44,1,,,,,
,,,,,,$5efe37abda112713870433a4,2020-07-21_16h30.05.992,fisher_task,2020.1.3,Win32,60,-0.061111111,-0.275925926,1,0,0,3.791505,scale,,,,,,0.174513954,0.141421356,0.349027907,0.282842712,stimuli/lakes/206081_left.png,stimuli/lakes/206081_right.png,,,,0,38,38,81,1,,,,,
,,,,,,$5efe37abda112713870433a4,2020-07-21_16h30.05.992,fisher_task,2020.1.3,Win32,60,-0.117592593,-0.325925926,1,0,0,2.931365,scale,,,,,,0.275930788,0.223606798,0.275930788,0.223606798,stimuli/lakes/507093_left.png,stimuli/lakes/507093_right.png,,,,0,39,39,93,1,,,,,
,,,,,,$5efe37abda112713870433a4,2020-07-21_16h30.05.992,fisher_task,2020.1.3,Win32,60,0.132407407,-0.339814815,1,0,0,1.902765,scale,,,,,,0.174513954,0.141421356,0.349027907,0.282842712,stimuli/lakes/203024_left.png,stimuli/lakes/203024_right.png,,,,0,40,40,24,1,,,,,
,,,,,,$5efe37abda112713870433a4,2020-07-21_16h30.05.992,fisher_task,2020.1.3,Win32,60,0.161111111,-0.422222222,1,0,0,1.888585,scale,,,,,,0.275930788,0.223606798,0.275930788,0.223606798,stimuli/lakes/50104_left.png,stimuli/lakes/50104_right.png,,,,0,41,41,4,1,,,,,
,,,,,,$5efe37abda112713870433a4,2020-07-21_16h30.05.992,fisher_task,2020.1.3,Win32,60,-0.118518519,-0.309259259,1,0,0,1.97141,scale,,,,,,0.326485712,0.264575131,0.21373507,0.173205081,stimuli/lakes/706077_left.png,stimuli/lakes/706077_right.png,,,,0,42,42,77,1,,,,,
,,,,,,$5efe37abda112713870433a4,2020-07-21_16h30.05.992,fisher_task,2020.1.3,Win32,60,0.077777778,-0.289814815,1,0,0,2.15268,scale,,,,,,0.21373507,0.173205081,0.326485712,0.264575131,stimuli/lakes/305062_left.png,stimuli/lakes/305062_right.png,,,,0,43,43,62,1,,,,,
,,,,,,$5efe37abda112713870433a4,2020-07-21_16h30.05.992,fisher_task,2020.1.3,Win32,60,-0.158333333,-0.391666667,1,0,0,1.971795,scale,,,,,,0.2468,0.2,0.302267034,0.244948974,stimuli/lakes/4090123_left.png,stimuli/lakes/4090123_right.png,,,space,0,44,44,123,1,2.088835,,,,
,,,,,,$5efe37abda112713870433a4,2020-07-21_16h30.05.992,fisher_task,2020.1.3,Win32,60,0.137962963,-0.351851852,1,0,0,1.722025,scale,,,,,,0.1234,0.1,0.3702,0.3,stimuli/lakes/103023_left.png,stimuli/lakes/103023_right.png,,,,0,45,45,23,1,,,,,
,,,,,,$5efe37abda112713870433a4,2020-07-21_16h30.05.992,fisher_task,2020.1.3,Win32,60,0.075925926,-0.275925926,1,0,0,3.069605,scale,,,,,,0.275930788,0.223606798,0.275930788,0.223606798,stimuli/lakes/504054_left.png,stimuli/lakes/504054_right.png,,,,0,46,46,54,1,,,,,
,,,,,,$5efe37abda112713870433a4,2020-07-21_16h30.05.992,fisher_task,2020.1.3,Win32,60,-0.126851852,-0.333333333,1,0,0,1.485905,scale,,,,,,0.326485712,0.264575131,0.21373507,0.173205081,stimuli/lakes/7070104_left.png,stimuli/lakes/7070104_right.png,,,,0,47,47,104,1,,,,,
,,,,,,$5efe37abda112713870433a4,2020-07-21_16h30.05.992,fisher_task,2020.1.3,Win32,60,-0.103703704,-0.298148148,1,0,0,2.18026,scale,,,,,,0.21373507,0.173205081,0.326485712,0.264575131,stimuli/lakes/3080110_left.png,stimuli/lakes/3080110_right.png,,,,0,48,48,110,1,,,,,
,,,,,,$5efe37abda112713870433a4,2020-07-21_16h30.05.992,fisher_task,2020.1.3,Win32,60,0.126851852,-0.321296296,1,0,0,1.74986,scale,,,,,,0.275930788,0.223606798,0.275930788,0.223606798,stimuli/lakes/503036_left.png,stimuli/lakes/503036_right.png,,,,0,49,49,36,1,,,,,
,,,,,,$5efe37abda112713870433a4,2020-07-21_16h30.05.992,fisher_task,2020.1.3,Win32,60,0.108333333,-0.307407407,1,0,0,1.805925,scale,,,,,,0.275930788,0.223606798,0.275930788,0.223606798,stimuli/lakes/504045_left.png,stimuli/lakes/504045_right.png,,,,0,50,50,45,1,,,,,
,,,,,,$5efe37abda112713870433a4,2020-07-21_16h30.05.992,fisher_task,2020.1.3,Win32,60,-0.144444444,-0.369444444,1,0,0,3.47187,scale,,,,,,0.3702,0.3,0.1234,0.1,stimuli/lakes/905070_left.png,stimuli/lakes/905070_right.png,,,,0,51,51,70,1,,,,,
,,,,,,$5efe37abda112713870433a4,2020-07-21_16h30.05.992,fisher_task,2020.1.3,Win32,60,-0.068518519,-0.273148148,1,0,0,2.305125,scale,,,,,,0.174513954,0.141421356,0.349027907,0.282842712,stimuli/lakes/207090_left.png,stimuli/lakes/207090_right.png,,,,0,52,52,90,1,,,,,
,,,,,,$5efe37abda112713870433a4,2020-07-21_16h30.05.992,fisher_task,2020.1.3,Win32,60,-0.110185185,-0.312037037,0,0,1,2.01361,scale,,,,,,0.302267034,0.244948974,0.2468,0.2,stimuli/lakes/606085_left.png,stimuli/lakes/606085_right.png,,,,0,53,53,85,1,,,,,
,,,,,,$5efe37abda112713870433a4,2020-07-21_16h30.05.992,fisher_task,2020.1.3,Win32,60,-0.139814815,-0.337037037,1,0,0,1.80447,scale,,,,,,0.326485712,0.264575131,0.21373507,0.173205081,stimuli/lakes/7080117_left.png,stimuli/lakes/7080117_right.png,,,,0,54,54,117,1,,,,,
,,,,,,$5efe37abda112713870433a4,2020-07-21_16h30.05.992,fisher_task,2020.1.3,Win32,60,0.062962963,-0.276851852,1,0,0,1.97213,scale,,,,,,0.3702,0.3,0.1234,0.1,stimuli/lakes/902022_left.png,stimuli/lakes/902022_right.png,,,,0,55,55,22,1,,,,,
,,,,,,$5efe37abda112713870433a4,2020-07-21_16h30.05.992,fisher_task,2020.1.3,Win32,60,-0.00462963,-0.255555556,1,0,0,2.23612,scale,,,,,,0.174513954,0.141421356,0.349027907,0.282842712,stimuli/lakes/206072_left.png,stimuli/lakes/206072_right.png,,,,0,56,56,72,1,,,,,
,,,,,,$5efe37abda112713870433a4,2020-07-21_16h30.05.992,fisher_task,2020.1.3,Win32,60,-0.075,-0.278703704,1,0,0,2.04141,scale,,,,,,0.1234,0.1,0.3702,0.3,stimuli/lakes/106071_left.png,stimuli/lakes/106071_right.png,,,,0,57,57,71,1,,,,,
,,,,,,$5efe37abda112713870433a4,2020-07-21_16h30.05.992,fisher_task,2020.1.3,Win32,60,0.134259259,-0.347222222,1,0,0,1.707815,scale,,,,,,0.174513954,0.141421356,0.349027907,0.282842712,stimuli/lakes/202011_left.png,stimuli/lakes/202011_right.png,,,,0,58,58,11,1,,,,,
,,,,,,$5efe37abda112713870433a4,2020-07-21_16h30.05.992,fisher_task,2020.1.3,Win32,60,-0.151851852,-0.369444444,1,0,0,1.833165,scale,,,,,,0.302267034,0.244948974,0.2468,0.2,stimuli/lakes/6080115_left.png,stimuli/lakes/6080115_right.png,,,,0,59,59,115,1,,,,,
,,,,,,$5efe37abda112713870433a4,2020-07-21_16h30.05.992,fisher_task,2020.1.3,Win32,60,-0.153703704,-0.387962963,1,0,0,1.49861,scale,,,,,,0.275930788,0.223606798,0.275930788,0.223606798,stimuli/lakes/5090125_left.png,stimuli/lakes/5090125_right.png,,,,0,60,60,125,1,,,,,
,,,,,,$5efe37abda112713870433a4,2020-07-21_16h30.05.992,fisher_task,2020.1.3,Win32,60,-0.125925926,-0.324074074,1,0,0,1.291315,scale,,,,,,0.302267034,0.244948974,0.2468,0.2,stimuli/lakes/607094_left.png,stimuli/lakes/607094_right.png,,,,0,61,61,94,1,,,,,
,,,,,,$5efe37abda112713870433a4,2020-07-21_16h30.05.992,fisher_task,2020.1.3,Win32,60,0.071296296,-0.275925926,1,0,0,8.374565,scale,,,,,,0.3702,0.3,0.1234,0.1,stimuli/lakes/901010_left.png,stimuli/lakes/901010_right.png,,,,0,62,62,10,1,,,,,
,,,,,,$5efe37abda112713870433a4,2020-07-21_16h30.05.992,fisher_task,2020.1.3,Win32,60,0.15462963,-0.384259259,1,0,0,3.34681,scale,,,,,,0.302267034,0.244948974,0.2468,0.2,stimuli/lakes/60105_left.png,stimuli/lakes/60105_right.png,,,,0,63,63,5,1,,,,,
,,,,,,$5efe37abda112713870433a4,2020-07-21_16h30.05.992,fisher_task,2020.1.3,Win32,60,-0.097222222,-0.297222222,1,0,0,2.972115,scale,,,,,,0.1234,0.1,0.3702,0.3,stimuli/lakes/1090119_left.png,stimuli/lakes/1090119_right.png,,,,0,64,64,119,1,,,,,
,,,,,,$5efe37abda112713870433a4,2020-07-21_16h30.05.992,fisher_task,2020.1.3,Win32,60,-0.001851852,-0.262962963,1,0,0,1.80538,scale,,,,,,0.326485712,0.264575131,0.21373507,0.173205081,stimuli/lakes/704047_left.png,stimuli/lakes/704047_right.png,,,,0,65,65,47,1,,,,,
,,,,,,$5efe37abda112713870433a4,2020-07-21_16h30.05.992,fisher_task,2020.1.3,Win32,60,-0.143518519,-0.362962963,1,0,0,2.805535,scale,,,,,,0.275930788,0.223606798,0.275930788,0.223606798,stimuli/lakes/5080113_left.png,stimuli/lakes/5080113_right.png,,,space,0,66,66,113,1,1.40726,,,,
,,,,,,$5efe37abda112713870433a4,2020-07-21_16h30.05.992,fisher_task,2020.1.3,Win32,60,0.136111111,-0.349074074,1,0,0,1.582775,scale,,,,,,0.2468,0.2,0.302267034,0.244948974,stimuli/lakes/402015_left.png,stimuli/lakes/402015_right.png,,,,0,67,67,15,1,,,,,
,,,,,,$5efe37abda112713870433a4,2020-07-21_16h30.05.992,fisher_task,2020.1.3,Win32,60,-0.049074074,-0.272222222,1,0,0,1.623715,scale,,,,,,0.21373507,0.173205081,0.326485712,0.264575131,stimuli/lakes/3090122_left.png,stimuli/lakes/3090122_right.png,,,,0,68,68,122,1,,,,,
,,,,,,$5efe37abda112713870433a4,2020-07-21_16h30.05.992,fisher_task,2020.1.3,Win32,60,-0.075,-0.286111111,1,0,0,1.72211,scale,,,,,,0.302267034,0.244948974,0.2468,0.2,stimuli/lakes/605065_left.png,stimuli/lakes/605065_right.png,,,,0,69,69,65,1,,,,,
,,,,,,$5efe37abda112713870433a4,2020-07-21_16h30.05.992,fisher_task,2020.1.3,Win32,60,0.123148148,-0.323148148,1,0,0,1.874915,scale,,,,,,0.1234,0.1,0.3702,0.3,stimuli/lakes/104041_left.png,stimuli/lakes/104041_right.png,,,,0,70,70,41,1,,,,,
,,,,,,$5efe37abda112713870433a4,2020-07-21_16h30.05.992,fisher_task,2020.1.3,Win32,60,-0.050925926,-0.263888889,1,0,0,1.307315,scale,,,,,,0.302267034,0.244948974,0.2468,0.2,stimuli/lakes/605066_left.png,stimuli/lakes/605066_right.png,,,,0,71,71,66,1,,,,,
,,,,,,$5efe37abda112713870433a4,2020-07-21_16h30.05.992,fisher_task,2020.1.3,Win32,60,-0.107407407,-0.307407407,1,0,0,1.47209,scale,,,,,,0.349027907,0.282842712,0.174513954,0.141421356,stimuli/lakes/806087_left.png,stimuli/lakes/806087_right.png,,,,0,72,72,87,1,,,,,
,,,,,,$5efe37abda112713870433a4,2020-07-21_16h30.05.992,fisher_task,2020.1.3,Win32,60,-0.137962963,-0.334259259,1,0,0,1.43036,scale,,,,,,0.3702,0.3,0.1234,0.1,stimuli/lakes/906079_left.png,stimuli/lakes/906079_right.png,,,,0,73,73,79,1,,,,,
,,,,,,$5efe37abda112713870433a4,2020-07-21_16h30.05.992,fisher_task,2020.1.3,Win32,60,0.097222222,-0.301851852,1,0,0,1.263695,scale,,,,,,0.2468,0.2,0.302267034,0.244948974,stimuli/lakes/403026_left.png,stimuli/lakes/403026_right.png,,,,0,74,74,26,1,,,,,
,,,,,,$5efe37abda112713870433a4,2020-07-21_16h30.05.992,fisher_task,2020.1.3,Win32,60,-0.138888889,-0.337962963,1,0,0,1.748795,scale,,,,,,0.3702,0.3,0.1234,0.1,stimuli/lakes/906088_left.png,stimuli/lakes/906088_right.png,,,,0,75,75,88,1,,,,,
,,,,,,$5efe37abda112713870433a4,2020-07-21_16h30.05.992,fisher_task,2020.1.3,Win32,60,-0.112037037,-0.311111111,1,0,0,2.0136,scale,,,,,,0.21373507,0.173205081,0.326485712,0.264575131,stimuli/lakes/306073_left.png,stimuli/lakes/306073_right.png,,,,0,76,76,73,1,,,,,
,,,,,,$5efe37abda112713870433a4,2020-07-21_16h30.05.992,fisher_task,2020.1.3,Win32,60,-0.003703704,-0.260185185,1,0,0,3.26342,scale,,,,,,0.326485712,0.264575131,0.21373507,0.173205081,stimuli/lakes/703038_left.png,stimuli/lakes/703038_right.png,,,,0,77,77,38,1,,,,,
,,,,,,$5efe37abda112713870433a4,2020-07-21_16h30.05.992,fisher_task,2020.1.3,Win32,60,0.113888889,-0.308333333,1,0,0,1.554795,scale,,,,,,0.302267034,0.244948974,0.2468,0.2,stimuli/lakes/602018_left.png,stimuli/lakes/602018_right.png,,,,0,78,78,18,1,,,,,
,,,,,,$5efe37abda112713870433a4,2020-07-21_16h30.05.992,fisher_task,2020.1.3,Win32,60,0.04537037,-0.269444444,0,0,1,1.708255,scale,,,,,,0.2468,0.2,0.302267034,0.244948974,stimuli/lakes/405063_left.png,stimuli/lakes/405063_right.png,,,,0,79,79,63,1,,,,,
,,,,,,$5efe37abda112713870433a4,2020-07-21_16h30.05.992,fisher_task,2020.1.3,Win32,60,-0.15462963,-0.413888889,1,0,0,2.321025,scale,,,,,,0.326485712,0.264575131,0.21373507,0.173205081,stimuli/lakes/7090128_left.png,stimuli/lakes/7090128_right.png,,,,0,80,80,128,1,,,,,
,,,,,,$5efe37abda112713870433a4,2020-07-21_16h30.05.992,fisher_task,2020.1.3,Win32,60,-0.164814815,-0.432407407,1,0,0,1.63851,scale,,,,,,0.302267034,0.244948974,0.2468,0.2,stimuli/lakes/6090126_left.png,stimuli/lakes/6090126_right.png,,,,0,81,81,126,1,,,,,
,,,,,,$5efe37abda112713870433a4,2020-07-21_16h30.05.992,fisher_task,2020.1.3,Win32,60,0.121296296,-0.323148148,1,0,0,2.096325,scale,,,,,,0.1234,0.1,0.3702,0.3,stimuli/lakes/106080_left.png,stimuli/lakes/106080_right.png,,,,0,82,82,80,1,,,,,
,,,,,,$5efe37abda112713870433a4,2020-07-21_16h30.05.992,fisher_task,2020.1.3,Win32,60,-0.075925926,-0.284259259,1,0,0,1.540775,scale,,,,,,0.21373507,0.173205081,0.326485712,0.264575131,stimuli/lakes/3080109_left.png,stimuli/lakes/3080109_right.png,,,,0,83,83,109,1,,,,,
,,,,,,$5efe37abda112713870433a4,2020-07-21_16h30.05.992,fisher_task,2020.1.3,Win32,60,-0.086111111,-0.288888889,1,0,0,1.61101,scale,,,,,,0.21373507,0.173205081,0.326485712,0.264575131,stimuli/lakes/3070100_left.png,stimuli/lakes/3070100_right.png,,,,0,84,84,100,1,,,,,
,,,,,,$5efe37abda112713870433a4,2020-07-21_16h30.05.992,fisher_task,2020.1.3,Win32,60,0.122222222,-0.32962963,1,0,0,2.041275,scale,,,,,,0.21373507,0.173205081,0.326485712,0.264575131,stimuli/lakes/303025_left.png,stimuli/lakes/303025_right.png,,,,0,85,85,25,1,,,,,
,,,,,,$5efe37abda112713870433a4,2020-07-21_16h30.05.992,fisher_task,2020.1.3,Win32,60,0.127777778,-0.331481481,1,0,0,1.736055,scale,,,,,,0.302267034,0.244948974,0.2468,0.2,stimuli/lakes/602017_left.png,stimuli/lakes/602017_right.png,,,,0,86,86,17,1,,,,,
,,,,,,$5efe37abda112713870433a4,2020-07-21_16h30.05.992,fisher_task,2020.1.3,Win32,60,0.147222222,-0.361111111,1,0,0,1.91647,scale,,,,,,0.21373507,0.173205081,0.326485712,0.264575131,stimuli/lakes/30100_left.png,stimuli/lakes/30100_right.png,,,,0,87,87,0,1,,,,,
,,,,,,$5efe37abda112713870433a4,2020-07-21_16h30.05.992,fisher_task,2020.1.3,Win32,60,0.132407407,-0.341666667,1,0,0,0.972095,scale,,,,,,0.21373507,0.173205081,0.326485712,0.264575131,stimuli/lakes/302012_left.png,stimuli/lakes/302012_right.png,,,space,0,88,88,12,1,2.076915,,,,
,,,,,,$5efe37abda112713870433a4,2020-07-21_16h30.05.992,fisher_task,2020.1.3,Win32,60,0.117592593,-0.305555556,1,0,0,1.70823,scale,,,,,,0.21373507,0.173205081,0.326485712,0.264575131,stimuli/lakes/304043_left.png,stimuli/lakes/304043_right.png,,,,0,89,89,43,1,,,,,
,,,,,,$5efe37abda112713870433a4,2020-07-21_16h30.05.992,fisher_task,2020.1.3,Win32,60,-0.12037037,-0.313888889,1,0,0,1.43012,scale,,,,,,0.2468,0.2,0.302267034,0.244948974,stimuli/lakes/4080112_left.png,stimuli/lakes/4080112_right.png,,,,0,90,90,112,1,,,,,
,,,,,,$5efe37abda112713870433a4,2020-07-21_16h30.05.992,fisher_task,2020.1.3,Win32,60,-0.116666667,-0.316666667,1,0,0,1.985375,scale,,,,,,0.275930788,0.223606798,0.275930788,0.223606798,stimuli/lakes/506075_left.png,stimuli/lakes/506075_right.png,,,,0,91,91,75,1,,,,,
,,,,,,$5efe37abda112713870433a4,2020-07-21_16h30.05.992,fisher_task,2020.1.3,Win32,60,0.131481481,-0.35,0,0,1,1.458205,scale,,,,,,0.174513954,0.141421356,0.349027907,0.282842712,stimuli/lakes/203033_left.png,stimuli/lakes/203033_right.png,,,,0,92,92,33,1,,,,,
,,,,,,$5efe37abda112713870433a4,2020-07-21_16h30.05.992,fisher_task,2020.1.3,Win32,60,0.125,-0.362962963,1,0,0,1.44386,scale,,,,,,0.2468,0.2,0.302267034,0.244948974,stimuli/lakes/40102_left.png,stimuli/lakes/40102_right.png,,,,0,93,93,2,1,,,,,
,,,,,,$5efe37abda112713870433a4,2020-07-21_16h30.05.992,fisher_task,2020.1.3,Win32,60,0.059259259,-0.27037037,1,0,0,3.403065,scale,,,,,,0.349027907,0.282842712,0.174513954,0.141421356,stimuli/lakes/802021_left.png,stimuli/lakes/802021_right.png,,,,0,94,94,21,1,,,,,
,,,,,,$5efe37abda112713870433a4,2020-07-21_16h30.05.992,fisher_task,2020.1.3,Win32,60,0.075925926,-0.27962963,1,0,0,2.110715,scale,,,,,,0.349027907,0.282842712,0.174513954,0.141421356,stimuli/lakes/804048_left.png,stimuli/lakes/804048_right.png,,,,0,95,95,48,1,,,,,
,,,,,,$5efe37abda112713870433a4,2020-07-21_16h30.05.992,fisher_task,2020.1.3,Win32,60,-0.150925926,-0.35462963,1,0,0,1.74949,scale,,,,,,0.302267034,0.244948974,0.2468,0.2,stimuli/lakes/6080114_left.png,stimuli/lakes/6080114_right.png,,,,0,96,96,114,1,,,,,
,,,,,,$5efe37abda112713870433a4,2020-07-21_16h30.05.992,fisher_task,2020.1.3,Win32,60,0.126851852,-0.32962963,1,0,0,1.763515,scale,,,,,,0.326485712,0.264575131,0.21373507,0.173205081,stimuli/lakes/70108_left.png,stimuli/lakes/70108_right.png,,,,0,97,97,8,1,,,,,
,,,,,,$5efe37abda112713870433a4,2020-07-21_16h30.05.992,fisher_task,2020.1.3,Win32,60,0.127777778,-0.347222222,1,0,0,1.63779,scale,,,,,,0.1234,0.1,0.3702,0.3,stimuli/lakes/104050_left.png,stimuli/lakes/104050_right.png,,,,0,98,98,50,1,,,,,
,,,,,,$5efe37abda112713870433a4,2020-07-21_16h30.05.992,fisher_task,2020.1.3,Win32,60,-0.087962963,-0.280555556,1,0,0,2.22177,scale,,,,,,0.349027907,0.282842712,0.174513954,0.141421356,stimuli/lakes/804057_left.png,stimuli/lakes/804057_right.png,,,,0,99,99,57,1,,,,,
,,,,,,$5efe37abda112713870433a4,2020-07-21_16h30.05.992,fisher_task,2020.1.3,Win32,60,0.075925926,-0.281481481,1,0,0,4.110945,scale,,,,,,0.174513954,0.141421356,0.349027907,0.282842712,stimuli/lakes/205060_left.png,stimuli/lakes/205060_right.png,,,,0,100,100,60,1,,,,,
,,,,,,$5efe37abda112713870433a4,2020-07-21_16h30.05.992,fisher_task,2020.1.3,Win32,60,-0.144444444,-0.37962963,1,0,0,2.458025,scale,,,,,,0.326485712,0.264575131,0.21373507,0.173205081,stimuli/lakes/7080116_left.png,stimuli/lakes/7080116_right.png,,,,0,101,101,116,1,,,,,
,,,,,,$5efe37abda112713870433a4,2020-07-21_16h30.05.992,fisher_task,2020.1.3,Win32,60,0.144444444,-0.373148148,1,0,0,1.38841,scale,,,,,,0.1234,0.1,0.3702,0.3,stimuli/lakes/103032_left.png,stimuli/lakes/103032_right.png,,,,0,102,102,32,1,,,,,
,,,,,,$5efe37abda112713870433a4,2020-07-21_16h30.05.992,fisher_task,2020.1.3,Win32,60,-0.105555556,-0.299074074,1,0,0,1.2072,scale,,,,,,0.2468,0.2,0.302267034,0.244948974,stimuli/lakes/406083_left.png,stimuli/lakes/406083_right.png,,,,0,103,103,83,1,,,,,
,,,,,,$5efe37abda112713870433a4,2020-07-21_16h30.05.992,fisher_task,2020.1.3,Win32,60,-0.15,-0.383333333,1,0,0,2.31941,scale,,,,,,0.3702,0.3,0.1234,0.1,stimuli/lakes/9070106_left.png,stimuli/lakes/9070106_right.png,,,,0,104,104,106,1,,,,,
,,,,,,$5efe37abda112713870433a4,2020-07-21_16h30.05.992,fisher_task,2020.1.3,Win32,60,0.009259259,-0.272222222,1,0,0,1.736105,scale,,,,,,0.349027907,0.282842712,0.174513954,0.141421356,stimuli/lakes/803030_left.png,stimuli/lakes/803030_right.png,,,,0,105,105,30,1,,,,,
,,,,,,$5efe37abda112713870433a4,2020-07-21_16h30.05.992,fisher_task,2020.1.3,Win32,60,-0.127777778,-0.319444444,1,0,0,1.764145,scale,,,,,,0.349027907,0.282842712,0.174513954,0.141421356,stimuli/lakes/806078_left.png,stimuli/lakes/806078_right.png,,,,0,106,106,78,1,,,,,
,,,,,,$5efe37abda112713870433a4,2020-07-21_16h30.05.992,fisher_task,2020.1.3,Win32,60,-0.127777778,-0.319444444,1,0,0,1.360785,scale,,,,,,0.326485712,0.264575131,0.21373507,0.173205081,stimuli/lakes/705068_left.png,stimuli/lakes/705068_right.png,,,,0,107,107,68,1,,,,,
,,,,,,$5efe37abda112713870433a4,2020-07-21_16h30.05.992,fisher_task,2020.1.3,Win32,60,-0.142592593,-0.347222222,1,0,0,1.610985,scale,,,,,,0.349027907,0.282842712,0.174513954,0.141421356,stimuli/lakes/807096_left.png,stimuli/lakes/807096_right.png,,,,0,108,108,96,1,,,,,
,,,,,,$5efe37abda112713870433a4,2020-07-21_16h30.05.992,fisher_task,2020.1.3,Win32,60,0.052777778,-0.262037037,1,0,0,1.763655,scale,,,,,,0.3702,0.3,0.1234,0.1,stimuli/lakes/903040_left.png,stimuli/lakes/903040_right.png,,,,0,109,109,40,1,,,,,
,,,,,,$5efe37abda112713870433a4,2020-07-21_16h30.05.992,fisher_task,2020.1.3,Win32,60,0.135185185,-0.322222222,1,0,0,1.500005,scale,,,,,,0.349027907,0.282842712,0.174513954,0.141421356,stimuli/lakes/80109_left.png,stimuli/lakes/80109_right.png,,,space,0,110,110,9,1,1.643145,,,,
,,,,,,$5efe37abda112713870433a4,2020-07-21_16h30.05.992,fisher_task,2020.1.3,Win32,60,-0.085185185,-0.281481481,1,0,0,1.34718,scale,,,,,,0.1234,0.1,0.3702,0.3,stimuli/lakes/107089_left.png,stimuli/lakes/107089_right.png,,,,0,111,111,89,1,,,,,
,,,,,,$5efe37abda112713870433a4,2020-07-21_16h30.05.992,fisher_task,2020.1.3,Win32,60,0.130555556,-0.337962963,1,0,0,1.45817,scale,,,,,,0.21373507,0.173205081,0.326485712,0.264575131,stimuli/lakes/303034_left.png,stimuli/lakes/303034_right.png,,,,0,112,112,34,1,,,,,
,,,,,,$5efe37abda112713870433a4,2020-07-21_16h30.05.992,fisher_task,2020.1.3,Win32,60,-0.089814815,-0.285185185,1,0,0,1.332425,scale,,,,,,0.302267034,0.244948974,0.2468,0.2,stimuli/lakes/606076_left.png,stimuli/lakes/606076_right.png,,,,0,113,113,76,1,,,,,
,,,,,,$5efe37abda112713870433a4,2020-07-21_16h30.05.992,fisher_task,2020.1.3,Win32,60,0.003703704,-0.255555556,1,0,0,1.486055,scale,,,,,,0.2468,0.2,0.302267034,0.244948974,stimuli/lakes/4070101_left.png,stimuli/lakes/4070101_right.png,,,,0,114,114,101,1,,,,,
,,,,,,$5efe37abda112713870433a4,2020-07-21_16h30.05.992,fisher_task,2020.1.3,Win32,60,-0.149074074,-0.359259259,1,0,0,1.333255,scale,,,,,,0.3702,0.3,0.1234,0.1,stimuli/lakes/907097_left.png,stimuli/lakes/907097_right.png,,,,0,115,115,97,1,,,,,
,,,,,,$5efe37abda112713870433a4,2020-07-21_16h30.05.992,fisher_task,2020.1.3,Win32,60,0.136111111,-0.325925926,1,0,0,1.263885,scale,,,,,,0.2468,0.2,0.302267034,0.244948974,stimuli/lakes/403035_left.png,stimuli/lakes/403035_right.png,,,,0,116,116,35,1,,,,,
,,,,,,$5efe37abda112713870433a4,2020-07-21_16h30.05.992,fisher_task,2020.1.3,Win32,60,0.001851852,-0.255555556,1,0,0,1.664695,scale,,,,,,0.349027907,0.282842712,0.174513954,0.141421356,stimuli/lakes/803039_left.png,stimuli/lakes/803039_right.png,,,,0,117,117,39,1,,,,,
,,,,,,$5efe37abda112713870433a4,2020-07-21_16h30.05.992,fisher_task,2020.1.3,Win32,60,0.124074074,-0.319444444,1,0,0,1.652495,scale,,,,,,0.174513954,0.141421356,0.349027907,0.282842712,stimuli/lakes/204051_left.png,stimuli/lakes/204051_right.png,,,,0,118,118,51,1,,,,,
,,,,,,$5efe37abda112713870433a4,2020-07-21_16h30.05.992,fisher_task,2020.1.3,Win32,60,-0.02962963,-0.265740741,1,0,0,3.790705,scale,,,,,,0.174513954,0.141421356,0.349027907,0.282842712,stimuli/lakes/207099_left.png,stimuli/lakes/207099_right.png,,,,0,119,119,99,1,,,,,
,,,,,,$5efe37abda112713870433a4,2020-07-21_16h30.05.992,fisher_task,2020.1.3,Win32,60,0.148148148,-0.365740741,1,0,0,2.12477,scale,,,,,,0.326485712,0.264575131,0.21373507,0.173205081,stimuli/lakes/70107_left.png,stimuli/lakes/70107_right.png,,,,0,120,120,7,1,,,,,
,,,,,,$5efe37abda112713870433a4,2020-07-21_16h30.05.992,fisher_task,2020.1.3,Win32,60,0.107407407,-0.294444444,1,0,0,1.791355,scale,,,,,,0.326485712,0.264575131,0.21373507,0.173205081,stimuli/lakes/704056_left.png,stimuli/lakes/704056_right.png,,,,0,121,121,56,1,,,,,
,,,,,,$5efe37abda112713870433a4,2020-07-21_16h30.05.992,fisher_task,2020.1.3,Win32,60,-0.127777778,-0.331481481,1,0,0,1.360785,scale,,,,,,0.326485712,0.264575131,0.21373507,0.173205081,stimuli/lakes/707095_left.png,stimuli/lakes/707095_right.png,,,,0,122,122,95,1,,,,,
,,,,,,$5efe37abda112713870433a4,2020-07-21_16h30.05.992,fisher_task,2020.1.3,Win32,60,-0.142592593,-0.358333333,1,0,0,1.10978,scale,,,,,,0.349027907,0.282842712,0.174513954,0.141421356,stimuli/lakes/8070105_left.png,stimuli/lakes/8070105_right.png,,,,0,123,123,105,1,,,,,
,,,,,,$5efe37abda112713870433a4,2020-07-21_16h30.05.992,fisher_task,2020.1.3,Win32,60,-0.064814815,-0.281481481,1,0,0,1.6802,scale,,,,,,0.2468,0.2,0.302267034,0.244948974,stimuli/lakes/407092_left.png,stimuli/lakes/407092_right.png,,,,0,124,124,92,1,,,,,
,,,,,,$5efe37abda112713870433a4,2020-07-21_16h30.05.992,fisher_task,2020.1.3,Win32,60,0.074074074,-0.292592593,1,0,0,1.48589,scale,,,,,,0.302267034,0.244948974,0.2468,0.2,stimuli/lakes/604046_left.png,stimuli/lakes/604046_right.png,,,,0,125,125,46,1,,,,,
,,,,,,$5efe37abda112713870433a4,2020-07-21_16h30.05.992,fisher_task,2020.1.3,Win32,60,-0.135185185,-0.35,1,0,0,1.180215,scale,,,,,,0.349027907,0.282842712,0.174513954,0.141421356,stimuli/lakes/8080118_left.png,stimuli/lakes/8080118_right.png,,,,0,126,126,118,1,,,,,
,,,,,,$5efe37abda112713870433a4,2020-07-21_16h30.05.992,fisher_task,2020.1.3,Win32,60,-0.098148148,-0.287962963,1,0,0,1.555205,scale,,,,,,0.349027907,0.282842712,0.174513954,0.141421356,stimuli/lakes/805069_left.png,stimuli/lakes/805069_right.png,,,,0,127,127,69,1,,,,,
,,,,,,$5efe37abda112713870433a4,2020-07-21_16h30.05.992,fisher_task,2020.1.3,Win32,60,0.105555556,-0.294444444,1,0,0,1.263925,scale,,,,,,0.326485712,0.264575131,0.21373507,0.173205081,stimuli/lakes/703029_left.png,stimuli/lakes/703029_right.png,,,,0,128,128,29,1,,,,,
,,,,,,$5efe37abda112713870433a4,2020-07-21_16h30.05.992,fisher_task,2020.1.3,Win32,60,-0.111111111,-0.311111111,1,0,0,1.194245,scale,,,,,,0.302267034,0.244948974,0.2468,0.2,stimuli/lakes/6070103_left.png,stimuli/lakes/6070103_right.png,,,,0,129,129,103,1,,,,,
,,,,,,$5efe37abda112713870433a4,2020-07-21_16h30.05.992,fisher_task,2020.1.3,Win32,60,,,,,,,,,,,,,,,,,,,,,,,,,,,,space,5.56994,space,30.508665
