keySpace.keys,instructions.thisRepN,instructions.thisTrialN,instructions.thisN,instructions.thisIndex,instructions.ran,participant,date,expName,psychopyVersion,OS,frameRate,mouse.x,mouse.y,mouse.leftButton,mouse.midButton,mouse.rightButton,mouse.time,mouse.clicked_name,training.thisRepN,training.thisTrialN,training.thisN,training.thisIndex,training.ran,widthBasketLeft,heightBasketLeft,widthBasketRight,heightBasketRight,leftLake,rightLake,space2.keys,space2.rt,space1.keys,trials.thisRepN,trials.thisTrialN,trials.thisN,trials.thisIndex,trials.ran,space1.rt,finalSpace1.keys,finalSpace1.rt,finalSpace2.keys,finalSpace2.rt
,0,0,0,0,1,$5eb2b1561cfc10024113ee5e,2020-07-21_17h37.21.004,fisher_task,2020.1.3,Win32,60,,,,,,,,,,,,,,,,,,,,,,,,,,,,,,,
,,,,,,$5eb2b1561cfc10024113ee5e,2020-07-21_17h37.21.004,fisher_task,2020.1.3,Win32,60,0.153333333,-0.425555556,1,0,0,4.59739,scale,0,0,0,0,1,0.275930788,0.223606798,0.275930788,0.223606798,stimuli/training/20_left.png,stimuli/training/20_right.png,,,,,,,,,,,,,
,,,,,,$5eb2b1561cfc10024113ee5e,2020-07-21_17h37.21.004,fisher_task,2020.1.3,Win32,60,-0.158888889,-0.432222222,1,0,0,2.58168,scale,0,1,1,1,1,0.275930788,0.223606798,0.275930788,0.223606798,stimuli/training/80_left.png,stimuli/training/80_right.png,,,,,,,,,,,,,
,,,,,,$5eb2b1561cfc10024113ee5e,2020-07-21_17h37.21.004,fisher_task,2020.1.3,Win32,60,0.152222222,-0.434444444,1,0,0,2.63143,scale,0,2,2,2,1,0.174513954,0.141421356,0.349027907,0.282842712,stimuli/training/50_left.png,stimuli/training/50_right.png,,,,,,,,,,,,,
,,,,,,$5eb2b1561cfc10024113ee5e,2020-07-21_17h37.21.004,fisher_task,2020.1.3,Win32,60,-0.146666667,-0.363333333,1,0,0,3.048085,scale,0,3,3,3,1,0.349027907,0.282842712,0.174513954,0.141421356,stimuli/training/50_left.png,stimuli/training/50_right.png,,,,,,,,,,,,,
,,,,,,$5eb2b1561cfc10024113ee5e,2020-07-21_17h37.21.004,fisher_task,2020.1.3,Win32,60,0.088888889,-0.271111111,1,0,0,5.280365,scale,0,4,4,4,1,0.275930788,0.223606798,0.275930788,0.223606798,stimuli/training/50_left.png,stimuli/training/50_right.png,,,,,,,,,,,,,
,,,,,,$5eb2b1561cfc10024113ee5e,2020-07-21_17h37.21.004,fisher_task,2020.1.3,Win32,60,0.155555556,-0.428888889,1,0,0,1.68223,scale,0,5,5,5,1,0.174513954,0.141421356,0.349027907,0.282842712,stimuli/training/20_left.png,stimuli/training/20_right.png,,,,,,,,,,,,,
,,,,,,$5eb2b1561cfc10024113ee5e,2020-07-21_17h37.21.004,fisher_task,2020.1.3,Win32,60,-0.16,-0.432222222,1,0,0,1.79872,scale,0,6,6,6,1,0.349027907,0.282842712,0.174513954,0.141421356,stimuli/training/80_left.png,stimuli/training/80_right.png,,,,,,,,,,,,,
,,,,,,$5eb2b1561cfc10024113ee5e,2020-07-21_17h37.21.004,fisher_task,2020.1.3,Win32,60,0.154444444,-0.435555556,1,0,0,1.23255,scale,0,7,7,7,1,0.1234,0.1,0.3702,0.3,stimuli/training/30_left.png,stimuli/training/30_right.png,,,,,,,,,,,,,
,,,,,,$5eb2b1561cfc10024113ee5e,2020-07-21_17h37.21.004,fisher_task,2020.1.3,Win32,60,-0.16,-0.432222222,1,0,0,1.76558,scale,0,8,8,8,1,0.3702,0.3,0.1234,0.1,stimuli/training/70_left.png,stimuli/training/70_right.png,,,,,,,,,,,,,
,,,,,,$5eb2b1561cfc10024113ee5e,2020-07-21_17h37.21.004,fisher_task,2020.1.3,Win32,60,-0.161111111,-0.436666667,1,0,0,1.432115,scale,0,9,9,9,1,0.326485712,0.264575131,0.21373507,0.173205081,stimuli/training/90_left.png,stimuli/training/90_right.png,,,,,,,,,,,,,
,,,,,,$5eb2b1561cfc10024113ee5e,2020-07-21_17h37.21.004,fisher_task,2020.1.3,Win32,60,0.154444444,-0.435555556,1,0,0,1.299145,scale,0,10,10,10,1,0.21373507,0.173205081,0.326485712,0.264575131,stimuli/training/10_left.png,stimuli/training/10_right.png,,,,,,,,,,,,,
,,,,,,$5eb2b1561cfc10024113ee5e,2020-07-21_17h37.21.004,fisher_task,2020.1.3,Win32,60,0.067777778,-0.26,1,0,0,5.963245,scale,,,,,,0.326485712,0.264575131,0.21373507,0.173205081,stimuli/lakes/702019_left.png,stimuli/lakes/702019_right.png,space,11.928435,,0,0,0,19,1,,,,,
,,,,,,$5eb2b1561cfc10024113ee5e,2020-07-21_17h37.21.004,fisher_task,2020.1.3,Win32,60,-0.16,-0.361111111,1,0,0,3.397985,scale,,,,,,0.275930788,0.223606798,0.275930788,0.223606798,stimuli/lakes/507093_left.png,stimuli/lakes/507093_right.png,,,,0,1,1,93,1,,,,,
,,,,,,$5eb2b1561cfc10024113ee5e,2020-07-21_17h37.21.004,fisher_task,2020.1.3,Win32,60,-0.156666667,-0.435555556,1,0,0,1.598855,scale,,,,,,0.302267034,0.244948974,0.2468,0.2,stimuli/lakes/607094_left.png,stimuli/lakes/607094_right.png,,,,0,2,2,94,1,,,,,
,,,,,,$5eb2b1561cfc10024113ee5e,2020-07-21_17h37.21.004,fisher_task,2020.1.3,Win32,60,-0.105555556,-0.291111111,1,0,0,2.19876,scale,,,,,,0.275930788,0.223606798,0.275930788,0.223606798,stimuli/lakes/506084_left.png,stimuli/lakes/506084_right.png,,,,0,3,3,84,1,,,,,
,,,,,,$5eb2b1561cfc10024113ee5e,2020-07-21_17h37.21.004,fisher_task,2020.1.3,Win32,60,0.122222222,-0.331111111,1,0,0,2.29848,scale,,,,,,0.21373507,0.173205081,0.326485712,0.264575131,stimuli/lakes/305062_left.png,stimuli/lakes/305062_right.png,,,,0,4,4,62,1,,,,,
,,,,,,$5eb2b1561cfc10024113ee5e,2020-07-21_17h37.21.004,fisher_task,2020.1.3,Win32,60,0,-0.251111111,1,0,0,3.69784,scale,,,,,,0.21373507,0.173205081,0.326485712,0.264575131,stimuli/lakes/307091_left.png,stimuli/lakes/307091_right.png,,,,0,5,5,91,1,,,,,
,,,,,,$5eb2b1561cfc10024113ee5e,2020-07-21_17h37.21.004,fisher_task,2020.1.3,Win32,60,-0.102222222,-0.273333333,1,0,0,3.631205,scale,,,,,,0.3702,0.3,0.1234,0.1,stimuli/lakes/904049_left.png,stimuli/lakes/904049_right.png,,,,0,6,6,49,1,,,,,
,,,,,,$5eb2b1561cfc10024113ee5e,2020-07-21_17h37.21.004,fisher_task,2020.1.3,Win32,60,0.068888889,-0.257777778,1,0,0,2.448235,scale,,,,,,0.302267034,0.244948974,0.2468,0.2,stimuli/lakes/602018_left.png,stimuli/lakes/602018_right.png,,,,0,7,7,18,1,,,,,
,,,,,,$5eb2b1561cfc10024113ee5e,2020-07-21_17h37.21.004,fisher_task,2020.1.3,Win32,60,-0.157777778,-0.431111111,1,0,0,1.2991,scale,,,,,,0.349027907,0.282842712,0.174513954,0.141421356,stimuli/lakes/807096_left.png,stimuli/lakes/807096_right.png,,,,0,8,8,96,1,,,,,
,,,,,,$5eb2b1561cfc10024113ee5e,2020-07-21_17h37.21.004,fisher_task,2020.1.3,Win32,60,-0.128888889,-0.312222222,1,0,0,1.932025,scale,,,,,,0.2468,0.2,0.302267034,0.244948974,stimuli/lakes/4070101_left.png,stimuli/lakes/4070101_right.png,,,,0,9,9,101,1,,,,,
,,,,,,$5eb2b1561cfc10024113ee5e,2020-07-21_17h37.21.004,fisher_task,2020.1.3,Win32,60,-0.163333333,-0.421111111,1,0,0,1.73209,scale,,,,,,0.302267034,0.244948974,0.2468,0.2,stimuli/lakes/6080114_left.png,stimuli/lakes/6080114_right.png,,,,0,10,10,114,1,,,,,
,,,,,,$5eb2b1561cfc10024113ee5e,2020-07-21_17h37.21.004,fisher_task,2020.1.3,Win32,60,-0.122222222,-0.307777778,1,0,0,1.831965,scale,,,,,,0.174513954,0.141421356,0.349027907,0.282842712,stimuli/lakes/206081_left.png,stimuli/lakes/206081_right.png,,,,0,11,11,81,1,,,,,
,,,,,,$5eb2b1561cfc10024113ee5e,2020-07-21_17h37.21.004,fisher_task,2020.1.3,Win32,60,-0.164444444,-0.414444444,1,0,0,1.66556,scale,,,,,,0.326485712,0.264575131,0.21373507,0.173205081,stimuli/lakes/706086_left.png,stimuli/lakes/706086_right.png,,,,0,12,12,86,1,,,,,
,,,,,,$5eb2b1561cfc10024113ee5e,2020-07-21_17h37.21.004,fisher_task,2020.1.3,Win32,60,-0.098888889,-0.275555556,1,0,0,2.198605,scale,,,,,,0.2468,0.2,0.302267034,0.244948974,stimuli/lakes/4080112_left.png,stimuli/lakes/4080112_right.png,,,,0,13,13,112,1,,,,,
,,,,,,$5eb2b1561cfc10024113ee5e,2020-07-21_17h37.21.004,fisher_task,2020.1.3,Win32,60,-0.047777778,-0.26,1,0,0,2.215245,scale,,,,,,0.21373507,0.173205081,0.326485712,0.264575131,stimuli/lakes/3070100_left.png,stimuli/lakes/3070100_right.png,,,,0,14,14,100,1,,,,,
,,,,,,$5eb2b1561cfc10024113ee5e,2020-07-21_17h37.21.004,fisher_task,2020.1.3,Win32,60,-0.134444444,-0.316666667,1,0,0,2.265035,scale,,,,,,0.2468,0.2,0.302267034,0.244948974,stimuli/lakes/407092_left.png,stimuli/lakes/407092_right.png,,,,0,15,15,92,1,,,,,
,,,,,,$5eb2b1561cfc10024113ee5e,2020-07-21_17h37.21.004,fisher_task,2020.1.3,Win32,60,-0.104444444,-0.263333333,1,0,0,3.09814,scale,,,,,,0.3702,0.3,0.1234,0.1,stimuli/lakes/903040_left.png,stimuli/lakes/903040_right.png,,,,0,16,16,40,1,,,,,
,,,,,,$5eb2b1561cfc10024113ee5e,2020-07-21_17h37.21.004,fisher_task,2020.1.3,Win32,60,-0.172222222,-0.43,1,0,0,3.23126,scale,,,,,,0.275930788,0.223606798,0.275930788,0.223606798,stimuli/lakes/5090125_left.png,stimuli/lakes/5090125_right.png,,,,0,17,17,125,1,,,,,
,,,,,,$5eb2b1561cfc10024113ee5e,2020-07-21_17h37.21.004,fisher_task,2020.1.3,Win32,60,0.128888889,-0.307777778,1,0,0,1.98193,scale,,,,,,0.275930788,0.223606798,0.275930788,0.223606798,stimuli/lakes/504054_left.png,stimuli/lakes/504054_right.png,,,,0,18,18,54,1,,,,,
,,,,,,$5eb2b1561cfc10024113ee5e,2020-07-21_17h37.21.004,fisher_task,2020.1.3,Win32,60,0.162222222,-0.437777778,1,0,0,1.682375,scale,,,,,,0.1234,0.1,0.3702,0.3,stimuli/lakes/105059_left.png,stimuli/lakes/105059_right.png,,,,0,19,19,59,1,,,,,
,,,,,,$5eb2b1561cfc10024113ee5e,2020-07-21_17h37.21.004,fisher_task,2020.1.3,Win32,60,-0.122222222,-0.292222222,1,0,0,1.48226,scale,,,,,,0.174513954,0.141421356,0.349027907,0.282842712,stimuli/lakes/206072_left.png,stimuli/lakes/206072_right.png,,,,0,20,20,72,1,,,,,
,,,,,,$5eb2b1561cfc10024113ee5e,2020-07-21_17h37.21.004,fisher_task,2020.1.3,Win32,60,0.156666667,-0.354444444,1,0,0,1.865465,scale,,,,,,0.21373507,0.173205081,0.326485712,0.264575131,stimuli/lakes/304043_left.png,stimuli/lakes/304043_right.png,,,,0,21,21,43,1,,,,,
,,,,,,$5eb2b1561cfc10024113ee5e,2020-07-21_17h37.21.004,fisher_task,2020.1.3,Win32,60,-0.121111111,-0.282222222,1,0,0,1.59881,scale,,,,,,0.21373507,0.173205081,0.326485712,0.264575131,stimuli/lakes/3080109_left.png,stimuli/lakes/3080109_right.png,,,space,0,22,22,109,1,7.149735,,,,
,,,,,,$5eb2b1561cfc10024113ee5e,2020-07-21_17h37.21.004,fisher_task,2020.1.3,Win32,60,-0.166666667,-0.421111111,1,0,0,1.332365,scale,,,,,,0.302267034,0.244948974,0.2468,0.2,stimuli/lakes/6090127_left.png,stimuli/lakes/6090127_right.png,,,,0,23,23,127,1,,,,,
,,,,,,$5eb2b1561cfc10024113ee5e,2020-07-21_17h37.21.004,fisher_task,2020.1.3,Win32,60,-0.147777778,-0.325555556,1,0,0,1.748605,scale,,,,,,0.275930788,0.223606798,0.275930788,0.223606798,stimuli/lakes/5080113_left.png,stimuli/lakes/5080113_right.png,,,,0,24,24,113,1,,,,,
,,,,,,$5eb2b1561cfc10024113ee5e,2020-07-21_17h37.21.004,fisher_task,2020.1.3,Win32,60,-0.157777778,-0.434444444,1,0,0,1.798785,scale,,,,,,0.2468,0.2,0.302267034,0.244948974,stimuli/lakes/4090124_left.png,stimuli/lakes/4090124_right.png,,,,0,25,25,124,1,,,,,
,,,,,,$5eb2b1561cfc10024113ee5e,2020-07-21_17h37.21.004,fisher_task,2020.1.3,Win32,60,0.133333333,-0.352222222,1,0,0,1.46563,scale,,,,,,0.2468,0.2,0.302267034,0.244948974,stimuli/lakes/405064_left.png,stimuli/lakes/405064_right.png,,,,0,26,26,64,1,,,,,
,,,,,,$5eb2b1561cfc10024113ee5e,2020-07-21_17h37.21.004,fisher_task,2020.1.3,Win32,60,-0.16,-0.433333333,1,0,0,1.132535,scale,,,,,,0.349027907,0.282842712,0.174513954,0.141421356,stimuli/lakes/8070105_left.png,stimuli/lakes/8070105_right.png,,,,0,27,27,105,1,,,,,
,,,,,,$5eb2b1561cfc10024113ee5e,2020-07-21_17h37.21.004,fisher_task,2020.1.3,Win32,60,0.095555556,-0.285555556,1,0,0,1.582305,scale,,,,,,0.326485712,0.264575131,0.21373507,0.173205081,stimuli/lakes/702020_left.png,stimuli/lakes/702020_right.png,,,,0,28,28,20,1,,,,,
,,,,,,$5eb2b1561cfc10024113ee5e,2020-07-21_17h37.21.004,fisher_task,2020.1.3,Win32,60,-0.168888889,-0.428888889,1,0,0,1.59888,scale,,,,,,0.3702,0.3,0.1234,0.1,stimuli/lakes/906088_left.png,stimuli/lakes/906088_right.png,,,,0,29,29,88,1,,,,,
,,,,,,$5eb2b1561cfc10024113ee5e,2020-07-21_17h37.21.004,fisher_task,2020.1.3,Win32,60,0.155555556,-0.435555556,1,0,0,1.282465,scale,,,,,,0.1234,0.1,0.3702,0.3,stimuli/lakes/103023_left.png,stimuli/lakes/103023_right.png,,,,0,30,30,23,1,,,,,
,,,,,,$5eb2b1561cfc10024113ee5e,2020-07-21_17h37.21.004,fisher_task,2020.1.3,Win32,60,0.15,-0.372222222,1,0,0,1.66547,scale,,,,,,0.275930788,0.223606798,0.275930788,0.223606798,stimuli/lakes/50104_left.png,stimuli/lakes/50104_right.png,,,,0,31,31,4,1,,,,,
,,,,,,$5eb2b1561cfc10024113ee5e,2020-07-21_17h37.21.004,fisher_task,2020.1.3,Win32,60,-0.156666667,-0.346666667,1,0,0,2.015205,scale,,,,,,0.3702,0.3,0.1234,0.1,stimuli/lakes/906079_left.png,stimuli/lakes/906079_right.png,,,,0,32,32,79,1,,,,,
,,,,,,$5eb2b1561cfc10024113ee5e,2020-07-21_17h37.21.004,fisher_task,2020.1.3,Win32,60,0.003333333,-0.255555556,1,0,0,3.51446,scale,,,,,,0.326485712,0.264575131,0.21373507,0.173205081,stimuli/lakes/70108_left.png,stimuli/lakes/70108_right.png,,,,0,33,33,8,1,,,,,
,,,,,,$5eb2b1561cfc10024113ee5e,2020-07-21_17h37.21.004,fisher_task,2020.1.3,Win32,60,0.154444444,-0.403333333,1,0,0,2.89812,scale,,,,,,0.2468,0.2,0.302267034,0.244948974,stimuli/lakes/404053_left.png,stimuli/lakes/404053_right.png,,,,0,34,34,53,1,,,,,
,,,,,,$5eb2b1561cfc10024113ee5e,2020-07-21_17h37.21.004,fisher_task,2020.1.3,Win32,60,-0.166666667,-0.422222222,1,0,0,1.798885,scale,,,,,,0.302267034,0.244948974,0.2468,0.2,stimuli/lakes/6070103_left.png,stimuli/lakes/6070103_right.png,,,,0,35,35,103,1,,,,,
,,,,,,$5eb2b1561cfc10024113ee5e,2020-07-21_17h37.21.004,fisher_task,2020.1.3,Win32,60,-0.156666667,-0.427777778,1,0,0,0.932455,scale,,,,,,0.326485712,0.264575131,0.21373507,0.173205081,stimuli/lakes/7080117_left.png,stimuli/lakes/7080117_right.png,,,,0,36,36,117,1,,,,,
,,,,,,$5eb2b1561cfc10024113ee5e,2020-07-21_17h37.21.004,fisher_task,2020.1.3,Win32,60,-0.16,-0.425555556,1,0,0,1.149055,scale,,,,,,0.326485712,0.264575131,0.21373507,0.173205081,stimuli/lakes/7080116_left.png,stimuli/lakes/7080116_right.png,,,,0,37,37,116,1,,,,,
,,,,,,$5eb2b1561cfc10024113ee5e,2020-07-21_17h37.21.004,fisher_task,2020.1.3,Win32,60,0.064444444,-0.257777778,1,0,0,2.631795,scale,,,,,,0.349027907,0.282842712,0.174513954,0.141421356,stimuli/lakes/803039_left.png,stimuli/lakes/803039_right.png,,,,0,38,38,39,1,,,,,
,,,,,,$5eb2b1561cfc10024113ee5e,2020-07-21_17h37.21.004,fisher_task,2020.1.3,Win32,60,-0.151111111,-0.37,1,0,0,1.748835,scale,,,,,,0.302267034,0.244948974,0.2468,0.2,stimuli/lakes/606085_left.png,stimuli/lakes/606085_right.png,,,,0,39,39,85,1,,,,,
,,,,,,$5eb2b1561cfc10024113ee5e,2020-07-21_17h37.21.004,fisher_task,2020.1.3,Win32,60,0.098888889,-0.277777778,1,0,0,1.515205,scale,,,,,,0.2468,0.2,0.302267034,0.244948974,stimuli/lakes/405063_left.png,stimuli/lakes/405063_right.png,,,,0,40,40,63,1,,,,,
,,,,,,$5eb2b1561cfc10024113ee5e,2020-07-21_17h37.21.004,fisher_task,2020.1.3,Win32,60,-0.158888889,-0.411111111,1,0,0,1.615575,scale,,,,,,0.349027907,0.282842712,0.174513954,0.141421356,stimuli/lakes/806078_left.png,stimuli/lakes/806078_right.png,,,,0,41,41,78,1,,,,,
,,,,,,$5eb2b1561cfc10024113ee5e,2020-07-21_17h37.21.004,fisher_task,2020.1.3,Win32,60,0.155555556,-0.416666667,1,0,0,1.315535,scale,,,,,,0.21373507,0.173205081,0.326485712,0.264575131,stimuli/lakes/304052_left.png,stimuli/lakes/304052_right.png,,,,0,42,42,52,1,,,,,
,,,,,,$5eb2b1561cfc10024113ee5e,2020-07-21_17h37.21.004,fisher_task,2020.1.3,Win32,60,0.101111111,-0.268888889,1,0,0,4.79706,scale,,,,,,0.326485712,0.264575131,0.21373507,0.173205081,stimuli/lakes/70107_left.png,stimuli/lakes/70107_right.png,,,,0,43,43,7,1,,,,,
,,,,,,$5eb2b1561cfc10024113ee5e,2020-07-21_17h37.21.004,fisher_task,2020.1.3,Win32,60,-0.083333333,-0.265555556,1,0,0,2.664825,scale,,,,,,0.1234,0.1,0.3702,0.3,stimuli/lakes/107089_left.png,stimuli/lakes/107089_right.png,,,space,0,44,44,89,1,3.648875,,,,
,,,,,,$5eb2b1561cfc10024113ee5e,2020-07-21_17h37.21.004,fisher_task,2020.1.3,Win32,60,0.155555556,-0.39,1,0,0,2.18188,scale,,,,,,0.174513954,0.141421356,0.349027907,0.282842712,stimuli/lakes/205060_left.png,stimuli/lakes/205060_right.png,,,,0,45,45,60,1,,,,,
,,,,,,$5eb2b1561cfc10024113ee5e,2020-07-21_17h37.21.004,fisher_task,2020.1.3,Win32,60,-0.155555556,-0.355555556,1,0,0,2.098525,scale,,,,,,0.2468,0.2,0.302267034,0.244948974,stimuli/lakes/4080111_left.png,stimuli/lakes/4080111_right.png,,,,0,46,46,111,1,,,,,
,,,,,,$5eb2b1561cfc10024113ee5e,2020-07-21_17h37.21.004,fisher_task,2020.1.3,Win32,60,0.157777778,-0.414444444,1,0,0,1.365785,scale,,,,,,0.21373507,0.173205081,0.326485712,0.264575131,stimuli/lakes/30101_left.png,stimuli/lakes/30101_right.png,,,,0,47,47,1,1,,,,,
,,,,,,$5eb2b1561cfc10024113ee5e,2020-07-21_17h37.21.004,fisher_task,2020.1.3,Win32,60,-0.155555556,-0.337777778,1,0,0,1.81518,scale,,,,,,0.302267034,0.244948974,0.2468,0.2,stimuli/lakes/605065_left.png,stimuli/lakes/605065_right.png,,,,0,48,48,65,1,,,,,
,,,,,,$5eb2b1561cfc10024113ee5e,2020-07-21_17h37.21.004,fisher_task,2020.1.3,Win32,60,0.065555556,-0.271111111,1,0,0,2.798385,scale,,,,,,0.302267034,0.244948974,0.2468,0.2,stimuli/lakes/603028_left.png,stimuli/lakes/603028_right.png,,,,0,49,49,28,1,,,,,
,,,,,,$5eb2b1561cfc10024113ee5e,2020-07-21_17h37.21.004,fisher_task,2020.1.3,Win32,60,-0.14,-0.302222222,1,0,0,1.765485,scale,,,,,,0.326485712,0.264575131,0.21373507,0.173205081,stimuli/lakes/705067_left.png,stimuli/lakes/705067_right.png,,,,0,50,50,67,1,,,,,
,,,,,,$5eb2b1561cfc10024113ee5e,2020-07-21_17h37.21.004,fisher_task,2020.1.3,Win32,60,-0.155555556,-0.361111111,1,0,0,2.13177,scale,,,,,,0.3702,0.3,0.1234,0.1,stimuli/lakes/904058_left.png,stimuli/lakes/904058_right.png,,,,0,51,51,58,1,,,,,
,,,,,,$5eb2b1561cfc10024113ee5e,2020-07-21_17h37.21.004,fisher_task,2020.1.3,Win32,60,0.155555556,-0.43,1,0,0,1.24925,scale,,,,,,0.2468,0.2,0.302267034,0.244948974,stimuli/lakes/402015_left.png,stimuli/lakes/402015_right.png,,,,0,52,52,15,1,,,,,
,,,,,,$5eb2b1561cfc10024113ee5e,2020-07-21_17h37.21.004,fisher_task,2020.1.3,Win32,60,-0.161111111,-0.374444444,1,0,0,1.43219,scale,,,,,,0.302267034,0.244948974,0.2468,0.2,stimuli/lakes/605066_left.png,stimuli/lakes/605066_right.png,,,,0,53,53,66,1,,,,,
,,,,,,$5eb2b1561cfc10024113ee5e,2020-07-21_17h37.21.004,fisher_task,2020.1.3,Win32,60,0.147777778,-0.426666667,1,0,0,1.132475,scale,,,,,,0.21373507,0.173205081,0.326485712,0.264575131,stimuli/lakes/302013_left.png,stimuli/lakes/302013_right.png,,,,0,54,54,13,1,,,,,
,,,,,,$5eb2b1561cfc10024113ee5e,2020-07-21_17h37.21.004,fisher_task,2020.1.3,Win32,60,-0.163333333,-0.333333333,1,0,0,1.64896,scale,,,,,,0.275930788,0.223606798,0.275930788,0.223606798,stimuli/lakes/506075_left.png,stimuli/lakes/506075_right.png,,,,0,55,55,75,1,,,,,
,,,,,,$5eb2b1561cfc10024113ee5e,2020-07-21_17h37.21.004,fisher_task,2020.1.3,Win32,60,0.148888889,-0.367777778,1,0,0,1.91535,scale,,,,,,0.275930788,0.223606798,0.275930788,0.223606798,stimuli/lakes/503036_left.png,stimuli/lakes/503036_right.png,,,,0,56,56,36,1,,,,,
,,,,,,$5eb2b1561cfc10024113ee5e,2020-07-21_17h37.21.004,fisher_task,2020.1.3,Win32,60,0.088888889,-0.251111111,1,0,0,3.73123,scale,,,,,,0.349027907,0.282842712,0.174513954,0.141421356,stimuli/lakes/80109_left.png,stimuli/lakes/80109_right.png,,,,0,57,57,9,1,,,,,
,,,,,,$5eb2b1561cfc10024113ee5e,2020-07-21_17h37.21.004,fisher_task,2020.1.3,Win32,60,-0.157777778,-0.431111111,1,0,0,1.38238,scale,,,,,,0.326485712,0.264575131,0.21373507,0.173205081,stimuli/lakes/7070104_left.png,stimuli/lakes/7070104_right.png,,,,0,58,58,104,1,,,,,
,,,,,,$5eb2b1561cfc10024113ee5e,2020-07-21_17h37.21.004,fisher_task,2020.1.3,Win32,60,0.145555556,-0.432222222,1,0,0,1.11578,scale,,,,,,0.174513954,0.141421356,0.349027907,0.282842712,stimuli/lakes/203024_left.png,stimuli/lakes/203024_right.png,,,,0,59,59,24,1,,,,,
,,,,,,$5eb2b1561cfc10024113ee5e,2020-07-21_17h37.21.004,fisher_task,2020.1.3,Win32,60,-0.101111111,-0.253333333,1,0,0,2.14857,scale,,,,,,0.2468,0.2,0.302267034,0.244948974,stimuli/lakes/406083_left.png,stimuli/lakes/406083_right.png,,,,0,60,60,83,1,,,,,
,,,,,,$5eb2b1561cfc10024113ee5e,2020-07-21_17h37.21.004,fisher_task,2020.1.3,Win32,60,0.157777778,-0.435555556,1,0,0,1.865645,scale,,,,,,0.21373507,0.173205081,0.326485712,0.264575131,stimuli/lakes/302012_left.png,stimuli/lakes/302012_right.png,,,,0,61,61,12,1,,,,,
,,,,,,$5eb2b1561cfc10024113ee5e,2020-07-21_17h37.21.004,fisher_task,2020.1.3,Win32,60,-0.156666667,-0.315555556,1,0,0,1.56544,scale,,,,,,0.326485712,0.264575131,0.21373507,0.173205081,stimuli/lakes/706077_left.png,stimuli/lakes/706077_right.png,,,,0,62,62,77,1,,,,,
,,,,,,$5eb2b1561cfc10024113ee5e,2020-07-21_17h37.21.004,fisher_task,2020.1.3,Win32,60,0.078888889,-0.255555556,1,0,0,2.232025,scale,,,,,,0.326485712,0.264575131,0.21373507,0.173205081,stimuli/lakes/704047_left.png,stimuli/lakes/704047_right.png,,,,0,63,63,47,1,,,,,
,,,,,,$5eb2b1561cfc10024113ee5e,2020-07-21_17h37.21.004,fisher_task,2020.1.3,Win32,60,-0.134444444,-0.281111111,1,0,0,1.94871,scale,,,,,,0.21373507,0.173205081,0.326485712,0.264575131,stimuli/lakes/3080110_left.png,stimuli/lakes/3080110_right.png,,,,0,64,64,110,1,,,,,
,,,,,,$5eb2b1561cfc10024113ee5e,2020-07-21_17h37.21.004,fisher_task,2020.1.3,Win32,60,-0.162222222,-0.312222222,1,0,0,3.914205,scale,,,,,,0.326485712,0.264575131,0.21373507,0.173205081,stimuli/lakes/704056_left.png,stimuli/lakes/704056_right.png,,,,0,65,65,56,1,,,,,
,,,,,,$5eb2b1561cfc10024113ee5e,2020-07-21_17h37.21.004,fisher_task,2020.1.3,Win32,60,-0.11,-0.244444444,1,0,0,3.23121,scale,,,,,,0.302267034,0.244948974,0.2468,0.2,stimuli/lakes/604055_left.png,stimuli/lakes/604055_right.png,,,space,0,66,66,55,1,2.972415,,,,
,,,,,,$5eb2b1561cfc10024113ee5e,2020-07-21_17h37.21.004,fisher_task,2020.1.3,Win32,60,0.152222222,-0.37,1,0,0,2.998155,scale,,,,,,0.302267034,0.244948974,0.2468,0.2,stimuli/lakes/60106_left.png,stimuli/lakes/60106_right.png,,,,0,67,67,6,1,,,,,
,,,,,,$5eb2b1561cfc10024113ee5e,2020-07-21_17h37.21.004,fisher_task,2020.1.3,Win32,60,-0.142222222,-0.284444444,1,0,0,3.931065,scale,,,,,,0.21373507,0.173205081,0.326485712,0.264575131,stimuli/lakes/3090121_left.png,stimuli/lakes/3090121_right.png,,,,0,68,68,121,1,,,,,
,,,,,,$5eb2b1561cfc10024113ee5e,2020-07-21_17h37.21.004,fisher_task,2020.1.3,Win32,60,0.09,-0.244444444,1,0,0,2.76502,scale,,,,,,0.302267034,0.244948974,0.2468,0.2,stimuli/lakes/60105_left.png,stimuli/lakes/60105_right.png,,,,0,69,69,5,1,,,,,
,,,,,,$5eb2b1561cfc10024113ee5e,2020-07-21_17h37.21.004,fisher_task,2020.1.3,Win32,60,0.147777778,-0.358888889,1,0,0,2.548425,scale,,,,,,0.2468,0.2,0.302267034,0.244948974,stimuli/lakes/404044_left.png,stimuli/lakes/404044_right.png,,,,0,70,70,44,1,,,,,
,,,,,,$5eb2b1561cfc10024113ee5e,2020-07-21_17h37.21.004,fisher_task,2020.1.3,Win32,60,0.148888889,-0.393333333,1,0,0,1.315755,scale,,,,,,0.2468,0.2,0.302267034,0.244948974,stimuli/lakes/40103_left.png,stimuli/lakes/40103_right.png,,,,0,71,71,3,1,,,,,
,,,,,,$5eb2b1561cfc10024113ee5e,2020-07-21_17h37.21.004,fisher_task,2020.1.3,Win32,60,0.093333333,-0.248888889,1,0,0,3.231345,scale,,,,,,0.1234,0.1,0.3702,0.3,stimuli/lakes/107098_left.png,stimuli/lakes/107098_right.png,,,,0,72,72,98,1,,,,,
,,,,,,$5eb2b1561cfc10024113ee5e,2020-07-21_17h37.21.004,fisher_task,2020.1.3,Win32,60,-0.16,-0.428888889,1,0,0,1.615355,scale,,,,,,0.326485712,0.264575131,0.21373507,0.173205081,stimuli/lakes/7090129_left.png,stimuli/lakes/7090129_right.png,,,,0,73,73,129,1,,,,,
,,,,,,$5eb2b1561cfc10024113ee5e,2020-07-21_17h37.21.004,fisher_task,2020.1.3,Win32,60,-0.172222222,-0.388888889,1,0,0,2.61507,scale,,,,,,0.275930788,0.223606798,0.275930788,0.223606798,stimuli/lakes/5070102_left.png,stimuli/lakes/5070102_right.png,,,,0,74,74,102,1,,,,,
,,,,,,$5eb2b1561cfc10024113ee5e,2020-07-21_17h37.21.004,fisher_task,2020.1.3,Win32,60,-0.161111111,-0.431111111,1,0,0,1.88206,scale,,,,,,0.349027907,0.282842712,0.174513954,0.141421356,stimuli/lakes/804057_left.png,stimuli/lakes/804057_right.png,,,,0,75,75,57,1,,,,,
,,,,,,$5eb2b1561cfc10024113ee5e,2020-07-21_17h37.21.004,fisher_task,2020.1.3,Win32,60,0.144444444,-0.308888889,1,0,0,1.715425,scale,,,,,,0.21373507,0.173205081,0.326485712,0.264575131,stimuli/lakes/30100_left.png,stimuli/lakes/30100_right.png,,,,0,76,76,0,1,,,,,
,,,,,,$5eb2b1561cfc10024113ee5e,2020-07-21_17h37.21.004,fisher_task,2020.1.3,Win32,60,-0.157777778,-0.432222222,1,0,0,1.399,scale,,,,,,0.3702,0.3,0.1234,0.1,stimuli/lakes/905070_left.png,stimuli/lakes/905070_right.png,,,,0,77,77,70,1,,,,,
,,,,,,$5eb2b1561cfc10024113ee5e,2020-07-21_17h37.21.004,fisher_task,2020.1.3,Win32,60,-0.102222222,-0.244444444,1,0,0,2.498455,scale,,,,,,0.174513954,0.141421356,0.349027907,0.282842712,stimuli/lakes/2090120_left.png,stimuli/lakes/2090120_right.png,,,,0,78,78,120,1,,,,,
,,,,,,$5eb2b1561cfc10024113ee5e,2020-07-21_17h37.21.004,fisher_task,2020.1.3,Win32,60,0.138888889,-0.317777778,1,0,0,3.1645,scale,,,,,,0.21373507,0.173205081,0.326485712,0.264575131,stimuli/lakes/306082_left.png,stimuli/lakes/306082_right.png,,,,0,79,79,82,1,,,,,
,,,,,,$5eb2b1561cfc10024113ee5e,2020-07-21_17h37.21.004,fisher_task,2020.1.3,Win32,60,-0.065555556,-0.23,1,0,0,2.73168,scale,,,,,,0.1234,0.1,0.3702,0.3,stimuli/lakes/1090119_left.png,stimuli/lakes/1090119_right.png,,,,0,80,80,119,1,,,,,
,,,,,,$5eb2b1561cfc10024113ee5e,2020-07-21_17h37.21.004,fisher_task,2020.1.3,Win32,60,-0.185555556,-0.378888889,1,0,0,1.532265,scale,,,,,,0.302267034,0.244948974,0.2468,0.2,stimuli/lakes/6080115_left.png,stimuli/lakes/6080115_right.png,,,,0,81,81,115,1,,,,,
,,,,,,$5eb2b1561cfc10024113ee5e,2020-07-21_17h37.21.004,fisher_task,2020.1.3,Win32,60,-0.158888889,-0.427777778,1,0,0,0.93266,scale,,,,,,0.349027907,0.282842712,0.174513954,0.141421356,stimuli/lakes/806087_left.png,stimuli/lakes/806087_right.png,,,,0,82,82,87,1,,,,,
,,,,,,$5eb2b1561cfc10024113ee5e,2020-07-21_17h37.21.004,fisher_task,2020.1.3,Win32,60,-0.123333333,-0.271111111,1,0,0,2.098515,scale,,,,,,0.174513954,0.141421356,0.349027907,0.282842712,stimuli/lakes/2080108_left.png,stimuli/lakes/2080108_right.png,,,,0,83,83,108,1,,,,,
,,,,,,$5eb2b1561cfc10024113ee5e,2020-07-21_17h37.21.004,fisher_task,2020.1.3,Win32,60,-0.185555556,-0.422222222,1,0,0,1.71545,scale,,,,,,0.302267034,0.244948974,0.2468,0.2,stimuli/lakes/6090126_left.png,stimuli/lakes/6090126_right.png,,,,0,84,84,126,1,,,,,
,,,,,,$5eb2b1561cfc10024113ee5e,2020-07-21_17h37.21.004,fisher_task,2020.1.3,Win32,60,-0.078888889,-0.233333333,1,0,0,3.29818,scale,,,,,,0.349027907,0.282842712,0.174513954,0.141421356,stimuli/lakes/803030_left.png,stimuli/lakes/803030_right.png,,,,0,85,85,30,1,,,,,
,,,,,,$5eb2b1561cfc10024113ee5e,2020-07-21_17h37.21.004,fisher_task,2020.1.3,Win32,60,0.118888889,-0.263333333,1,0,0,2.098595,scale,,,,,,0.349027907,0.282842712,0.174513954,0.141421356,stimuli/lakes/802021_left.png,stimuli/lakes/802021_right.png,,,,0,86,86,21,1,,,,,
,,,,,,$5eb2b1561cfc10024113ee5e,2020-07-21_17h37.21.004,fisher_task,2020.1.3,Win32,60,-0.17,-0.382222222,1,0,0,1.59872,scale,,,,,,0.349027907,0.282842712,0.174513954,0.141421356,stimuli/lakes/805069_left.png,stimuli/lakes/805069_right.png,,,,0,87,87,69,1,,,,,
,,,,,,$5eb2b1561cfc10024113ee5e,2020-07-21_17h37.21.004,fisher_task,2020.1.3,Win32,60,0.151111111,-0.426666667,1,0,0,1.315465,scale,,,,,,0.1234,0.1,0.3702,0.3,stimuli/lakes/104041_left.png,stimuli/lakes/104041_right.png,,,space,0,88,88,41,1,2.771725,,,,
,,,,,,$5eb2b1561cfc10024113ee5e,2020-07-21_17h37.21.004,fisher_task,2020.1.3,Win32,60,0.15,-0.384444444,1,0,0,1.182415,scale,,,,,,0.21373507,0.173205081,0.326485712,0.264575131,stimuli/lakes/303025_left.png,stimuli/lakes/303025_right.png,,,,0,89,89,25,1,,,,,
,,,,,,$5eb2b1561cfc10024113ee5e,2020-07-21_17h37.21.004,fisher_task,2020.1.3,Win32,60,-0.164444444,-0.433333333,1,0,0,1.399185,scale,,,,,,0.3702,0.3,0.1234,0.1,stimuli/lakes/907097_left.png,stimuli/lakes/907097_right.png,,,,0,90,90,97,1,,,,,
,,,,,,$5eb2b1561cfc10024113ee5e,2020-07-21_17h37.21.004,fisher_task,2020.1.3,Win32,60,-0.158888889,-0.434444444,1,0,0,1.28236,scale,,,,,,0.326485712,0.264575131,0.21373507,0.173205081,stimuli/lakes/7090128_left.png,stimuli/lakes/7090128_right.png,,,,0,91,91,128,1,,,,,
,,,,,,$5eb2b1561cfc10024113ee5e,2020-07-21_17h37.21.004,fisher_task,2020.1.3,Win32,60,0.147777778,-0.383333333,1,0,0,1.33239,scale,,,,,,0.21373507,0.173205081,0.326485712,0.264575131,stimuli/lakes/303034_left.png,stimuli/lakes/303034_right.png,,,,0,92,92,34,1,,,,,
,,,,,,$5eb2b1561cfc10024113ee5e,2020-07-21_17h37.21.004,fisher_task,2020.1.3,Win32,60,0.114444444,-0.303333333,1,0,0,1.798595,scale,,,,,,0.1234,0.1,0.3702,0.3,stimuli/lakes/106071_left.png,stimuli/lakes/106071_right.png,,,,0,93,93,71,1,,,,,
,,,,,,$5eb2b1561cfc10024113ee5e,2020-07-21_17h37.21.004,fisher_task,2020.1.3,Win32,60,0.16,-0.43,1,0,0,1.465595,scale,,,,,,0.2468,0.2,0.302267034,0.244948974,stimuli/lakes/40102_left.png,stimuli/lakes/40102_right.png,,,,0,94,94,2,1,,,,,
,,,,,,$5eb2b1561cfc10024113ee5e,2020-07-21_17h37.21.004,fisher_task,2020.1.3,Win32,60,0.156666667,-0.393333333,1,0,0,1.898925,scale,,,,,,0.174513954,0.141421356,0.349027907,0.282842712,stimuli/lakes/203033_left.png,stimuli/lakes/203033_right.png,,,,0,95,95,33,1,,,,,
,,,,,,$5eb2b1561cfc10024113ee5e,2020-07-21_17h37.21.004,fisher_task,2020.1.3,Win32,60,-0.08,-0.238888889,1,0,0,2.23193,scale,,,,,,0.3702,0.3,0.1234,0.1,stimuli/lakes/903031_left.png,stimuli/lakes/903031_right.png,,,,0,96,96,31,1,,,,,
,,,,,,$5eb2b1561cfc10024113ee5e,2020-07-21_17h37.21.004,fisher_task,2020.1.3,Win32,60,-0.166666667,-0.341111111,1,0,0,2.08204,scale,,,,,,0.326485712,0.264575131,0.21373507,0.173205081,stimuli/lakes/707095_left.png,stimuli/lakes/707095_right.png,,,,0,97,97,95,1,,,,,
,,,,,,$5eb2b1561cfc10024113ee5e,2020-07-21_17h37.21.004,fisher_task,2020.1.3,Win32,60,-0.093333333,-0.244444444,1,0,0,1.598935,scale,,,,,,0.2468,0.2,0.302267034,0.244948974,stimuli/lakes/4090123_left.png,stimuli/lakes/4090123_right.png,,,,0,98,98,123,1,,,,,
,,,,,,$5eb2b1561cfc10024113ee5e,2020-07-21_17h37.21.004,fisher_task,2020.1.3,Win32,60,0.152222222,-0.364444444,1,0,0,1.48243,scale,,,,,,0.174513954,0.141421356,0.349027907,0.282842712,stimuli/lakes/202011_left.png,stimuli/lakes/202011_right.png,,,,0,99,99,11,1,,,,,
,,,,,,$5eb2b1561cfc10024113ee5e,2020-07-21_17h37.21.004,fisher_task,2020.1.3,Win32,60,-0.104444444,-0.247777778,1,0,0,3.064745,scale,,,,,,0.326485712,0.264575131,0.21373507,0.173205081,stimuli/lakes/703029_left.png,stimuli/lakes/703029_right.png,,,,0,100,100,29,1,,,,,
,,,,,,$5eb2b1561cfc10024113ee5e,2020-07-21_17h37.21.004,fisher_task,2020.1.3,Win32,60,-0.068888889,-0.227777778,1,0,0,2.398555,scale,,,,,,0.302267034,0.244948974,0.2468,0.2,stimuli/lakes/604046_left.png,stimuli/lakes/604046_right.png,,,,0,101,101,46,1,,,,,
,,,,,,$5eb2b1561cfc10024113ee5e,2020-07-21_17h37.21.004,fisher_task,2020.1.3,Win32,60,0.152222222,-0.33,1,0,0,2.082085,scale,,,,,,0.2468,0.2,0.302267034,0.244948974,stimuli/lakes/403035_left.png,stimuli/lakes/403035_right.png,,,,0,102,102,35,1,,,,,
,,,,,,$5eb2b1561cfc10024113ee5e,2020-07-21_17h37.21.004,fisher_task,2020.1.3,Win32,60,0.081111111,-0.237777778,1,0,0,4.19749,scale,,,,,,0.326485712,0.264575131,0.21373507,0.173205081,stimuli/lakes/703038_left.png,stimuli/lakes/703038_right.png,,,,0,103,103,38,1,,,,,
,,,,,,$5eb2b1561cfc10024113ee5e,2020-07-21_17h37.21.004,fisher_task,2020.1.3,Win32,60,0.153333333,-0.433333333,1,0,0,1.315655,scale,,,,,,0.1234,0.1,0.3702,0.3,stimuli/lakes/103032_left.png,stimuli/lakes/103032_right.png,,,,0,104,104,32,1,,,,,
,,,,,,$5eb2b1561cfc10024113ee5e,2020-07-21_17h37.21.004,fisher_task,2020.1.3,Win32,60,0.141111111,-0.336666667,1,0,0,1.498885,scale,,,,,,0.1234,0.1,0.3702,0.3,stimuli/lakes/104050_left.png,stimuli/lakes/104050_right.png,,,,0,105,105,50,1,,,,,
,,,,,,$5eb2b1561cfc10024113ee5e,2020-07-21_17h37.21.004,fisher_task,2020.1.3,Win32,60,0.072222222,-0.232222222,1,0,0,3.514665,scale,,,,,,0.174513954,0.141421356,0.349027907,0.282842712,stimuli/lakes/207099_left.png,stimuli/lakes/207099_right.png,,,,0,106,106,99,1,,,,,
,,,,,,$5eb2b1561cfc10024113ee5e,2020-07-21_17h37.21.004,fisher_task,2020.1.3,Win32,60,-0.162222222,-0.44,1,0,0,1.1159,scale,,,,,,0.349027907,0.282842712,0.174513954,0.141421356,stimuli/lakes/8080118_left.png,stimuli/lakes/8080118_right.png,,,,0,107,107,118,1,,,,,
,,,,,,$5eb2b1561cfc10024113ee5e,2020-07-21_17h37.21.004,fisher_task,2020.1.3,Win32,60,0.141111111,-0.354444444,1,0,0,1.86546,scale,,,,,,0.2468,0.2,0.302267034,0.244948974,stimuli/lakes/402014_left.png,stimuli/lakes/402014_right.png,,,,0,108,108,14,1,,,,,
,,,,,,$5eb2b1561cfc10024113ee5e,2020-07-21_17h37.21.004,fisher_task,2020.1.3,Win32,60,0.005555556,-0.216666667,1,0,0,4.74698,scale,,,,,,0.1234,0.1,0.3702,0.3,stimuli/lakes/1080107_left.png,stimuli/lakes/1080107_right.png,,,,0,109,109,107,1,,,,,
,,,,,,$5eb2b1561cfc10024113ee5e,2020-07-21_17h37.21.004,fisher_task,2020.1.3,Win32,60,-0.152222222,-0.324444444,1,0,0,2.281775,scale,,,,,,0.21373507,0.173205081,0.326485712,0.264575131,stimuli/lakes/3090122_left.png,stimuli/lakes/3090122_right.png,,,space,0,110,110,122,1,6.672195,,,,
,,,,,,$5eb2b1561cfc10024113ee5e,2020-07-21_17h37.21.004,fisher_task,2020.1.3,Win32,60,-0.078888889,-0.238888889,1,0,0,3.097945,scale,,,,,,0.174513954,0.141421356,0.349027907,0.282842712,stimuli/lakes/207090_left.png,stimuli/lakes/207090_right.png,,,,0,111,111,90,1,,,,,
,,,,,,$5eb2b1561cfc10024113ee5e,2020-07-21_17h37.21.004,fisher_task,2020.1.3,Win32,60,0.052222222,-0.228888889,1,0,0,1.84852,scale,,,,,,0.302267034,0.244948974,0.2468,0.2,stimuli/lakes/602017_left.png,stimuli/lakes/602017_right.png,,,,0,112,112,17,1,,,,,
,,,,,,$5eb2b1561cfc10024113ee5e,2020-07-21_17h37.21.004,fisher_task,2020.1.3,Win32,60,0.144444444,-0.382222222,1,0,0,1.482325,scale,,,,,,0.275930788,0.223606798,0.275930788,0.223606798,stimuli/lakes/502016_left.png,stimuli/lakes/502016_right.png,,,,0,113,113,16,1,,,,,
,,,,,,$5eb2b1561cfc10024113ee5e,2020-07-21_17h37.21.004,fisher_task,2020.1.3,Win32,60,-0.087777778,-0.241111111,1,0,0,1.998665,scale,,,,,,0.2468,0.2,0.302267034,0.244948974,stimuli/lakes/406074_left.png,stimuli/lakes/406074_right.png,,,,0,114,114,74,1,,,,,
,,,,,,$5eb2b1561cfc10024113ee5e,2020-07-21_17h37.21.004,fisher_task,2020.1.3,Win32,60,0.151111111,-0.354444444,1,0,0,1.482155,scale,,,,,,0.174513954,0.141421356,0.349027907,0.282842712,stimuli/lakes/204051_left.png,stimuli/lakes/204051_right.png,,,,0,115,115,51,1,,,,,
,,,,,,$5eb2b1561cfc10024113ee5e,2020-07-21_17h37.21.004,fisher_task,2020.1.3,Win32,60,-0.056666667,-0.228888889,1,0,0,5.24709,scale,,,,,,0.3702,0.3,0.1234,0.1,stimuli/lakes/902022_left.png,stimuli/lakes/902022_right.png,,,,0,116,116,22,1,,,,,
,,,,,,$5eb2b1561cfc10024113ee5e,2020-07-21_17h37.21.004,fisher_task,2020.1.3,Win32,60,0.091111111,-0.254444444,1,0,0,4.04757,scale,,,,,,0.302267034,0.244948974,0.2468,0.2,stimuli/lakes/603037_left.png,stimuli/lakes/603037_right.png,,,,0,117,117,37,1,,,,,
,,,,,,$5eb2b1561cfc10024113ee5e,2020-07-21_17h37.21.004,fisher_task,2020.1.3,Win32,60,-0.085555556,-0.237777778,1,0,0,1.96542,scale,,,,,,0.21373507,0.173205081,0.326485712,0.264575131,stimuli/lakes/306073_left.png,stimuli/lakes/306073_right.png,,,,0,118,118,73,1,,,,,
,,,,,,$5eb2b1561cfc10024113ee5e,2020-07-21_17h37.21.004,fisher_task,2020.1.3,Win32,60,-0.163333333,-0.432222222,1,0,0,1.215855,scale,,,,,,0.3702,0.3,0.1234,0.1,stimuli/lakes/9070106_left.png,stimuli/lakes/9070106_right.png,,,,0,119,119,106,1,,,,,
,,,,,,$5eb2b1561cfc10024113ee5e,2020-07-21_17h37.21.004,fisher_task,2020.1.3,Win32,60,0.153333333,-0.35,1,0,0,1.415585,scale,,,,,,0.275930788,0.223606798,0.275930788,0.223606798,stimuli/lakes/503027_left.png,stimuli/lakes/503027_right.png,,,,0,120,120,27,1,,,,,
,,,,,,$5eb2b1561cfc10024113ee5e,2020-07-21_17h37.21.004,fisher_task,2020.1.3,Win32,60,-0.168888889,-0.325555556,1,0,0,1.43232,scale,,,,,,0.326485712,0.264575131,0.21373507,0.173205081,stimuli/lakes/705068_left.png,stimuli/lakes/705068_right.png,,,,0,121,121,68,1,,,,,
,,,,,,$5eb2b1561cfc10024113ee5e,2020-07-21_17h37.21.004,fisher_task,2020.1.3,Win32,60,0.002222222,-0.223333333,1,0,0,2.165455,scale,,,,,,0.3702,0.3,0.1234,0.1,stimuli/lakes/901010_left.png,stimuli/lakes/901010_right.png,,,,0,122,122,10,1,,,,,
,,,,,,$5eb2b1561cfc10024113ee5e,2020-07-21_17h37.21.004,fisher_task,2020.1.3,Win32,60,0.14,-0.341111111,1,0,0,2.231935,scale,,,,,,0.2468,0.2,0.302267034,0.244948974,stimuli/lakes/403026_left.png,stimuli/lakes/403026_right.png,,,,0,123,123,26,1,,,,,
,,,,,,$5eb2b1561cfc10024113ee5e,2020-07-21_17h37.21.004,fisher_task,2020.1.3,Win32,60,0.155555556,-0.382222222,1,0,0,1.398985,scale,,,,,,0.174513954,0.141421356,0.349027907,0.282842712,stimuli/lakes/204042_left.png,stimuli/lakes/204042_right.png,,,,0,124,124,42,1,,,,,
,,,,,,$5eb2b1561cfc10024113ee5e,2020-07-21_17h37.21.004,fisher_task,2020.1.3,Win32,60,-0.108888889,-0.262222222,1,0,0,2.13196,scale,,,,,,0.349027907,0.282842712,0.174513954,0.141421356,stimuli/lakes/804048_left.png,stimuli/lakes/804048_right.png,,,,0,125,125,48,1,,,,,
,,,,,,$5eb2b1561cfc10024113ee5e,2020-07-21_17h37.21.004,fisher_task,2020.1.3,Win32,60,-0.166666667,-0.362222222,1,0,0,1.93213,scale,,,,,,0.302267034,0.244948974,0.2468,0.2,stimuli/lakes/606076_left.png,stimuli/lakes/606076_right.png,,,,0,126,126,76,1,,,,,
,,,,,,$5eb2b1561cfc10024113ee5e,2020-07-21_17h37.21.004,fisher_task,2020.1.3,Win32,60,0.127777778,-0.293333333,1,0,0,1.648835,scale,,,,,,0.275930788,0.223606798,0.275930788,0.223606798,stimuli/lakes/504045_left.png,stimuli/lakes/504045_right.png,,,,0,127,127,45,1,,,,,
,,,,,,$5eb2b1561cfc10024113ee5e,2020-07-21_17h37.21.004,fisher_task,2020.1.3,Win32,60,0.103333333,-0.278888889,1,0,0,1.865455,scale,,,,,,0.1234,0.1,0.3702,0.3,stimuli/lakes/106080_left.png,stimuli/lakes/106080_right.png,,,,0,128,128,80,1,,,,,
,,,,,,$5eb2b1561cfc10024113ee5e,2020-07-21_17h37.21.004,fisher_task,2020.1.3,Win32,60,0.147777778,-0.356666667,1,0,0,1.981975,scale,,,,,,0.21373507,0.173205081,0.326485712,0.264575131,stimuli/lakes/305061_left.png,stimuli/lakes/305061_right.png,,,,0,129,129,61,1,,,,,
,,,,,,$5eb2b1561cfc10024113ee5e,2020-07-21_17h37.21.004,fisher_task,2020.1.3,Win32,60,,,,,,,,,,,,,,,,,,,,,,,,,,,,space,8.663865,space,26.08874
