keySpace.keys,instructions.thisRepN,instructions.thisTrialN,instructions.thisN,instructions.thisIndex,instructions.ran,participant,date,expName,psychopyVersion,OS,frameRate,mouse.x,mouse.y,mouse.leftButton,mouse.midButton,mouse.rightButton,mouse.time,mouse.clicked_name,training.thisRepN,training.thisTrialN,training.thisN,training.thisIndex,training.ran,widthBasketLeft,heightBasketLeft,widthBasketRight,heightBasketRight,leftLake,rightLake,space2.keys,space2.rt,space1.keys,trials.thisRepN,trials.thisTrialN,trials.thisN,trials.thisIndex,trials.ran,space1.rt,finalSpace1.keys,finalSpace1.rt,finalSpace2.keys,finalSpace2.rt
,0,0,0,0,1,$5ea9756607b9e3069ebb658b,2020-07-21_16h42.06.881,fisher_task,2020.1.3,Win32,60,,,,,,,,,,,,,,,,,,,,,,,,,,,,,,,
,,,,,,$5ea9756607b9e3069ebb658b,2020-07-21_16h42.06.881,fisher_task,2020.1.3,Win32,60,0.173611111,-0.375694444,1,0,0,5.112,scale,0,0,0,0,1,0.275930788,0.223606798,0.275930788,0.223606798,stimuli/training/20_left.png,stimuli/training/20_right.png,,,,,,,,,,,,,
,,,,,,$5ea9756607b9e3069ebb658b,2020-07-21_16h42.06.881,fisher_task,2020.1.3,Win32,60,-0.177777778,-0.433333333,1,0,0,3.223,scale,0,1,1,1,1,0.275930788,0.223606798,0.275930788,0.223606798,stimuli/training/80_left.png,stimuli/training/80_right.png,,,,,,,,,,,,,
,,,,,,$5ea9756607b9e3069ebb658b,2020-07-21_16h42.06.881,fisher_task,2020.1.3,Win32,60,0.165277778,-0.331944444,1,0,0,2.438,scale,0,2,2,2,1,0.174513954,0.141421356,0.349027907,0.282842712,stimuli/training/50_left.png,stimuli/training/50_right.png,,,,,,,,,,,,,
,,,,,,$5ea9756607b9e3069ebb658b,2020-07-21_16h42.06.881,fisher_task,2020.1.3,Win32,60,-0.098611111,-0.266666667,1,0,0,4.737,scale,0,3,3,3,1,0.349027907,0.282842712,0.174513954,0.141421356,stimuli/training/50_left.png,stimuli/training/50_right.png,,,,,,,,,,,,,
,,,,,,$5ea9756607b9e3069ebb658b,2020-07-21_16h42.06.881,fisher_task,2020.1.3,Win32,60,0.132638889,-0.295833333,1,0,0,5,scale,0,4,4,4,1,0.275930788,0.223606798,0.275930788,0.223606798,stimuli/training/50_left.png,stimuli/training/50_right.png,,,,,,,,,,,,,
,,,,,,$5ea9756607b9e3069ebb658b,2020-07-21_16h42.06.881,fisher_task,2020.1.3,Win32,60,0.177083333,-0.434027778,1,0,0,1.973,scale,0,5,5,5,1,0.174513954,0.141421356,0.349027907,0.282842712,stimuli/training/20_left.png,stimuli/training/20_right.png,,,,,,,,,,,,,
,,,,,,$5ea9756607b9e3069ebb658b,2020-07-21_16h42.06.881,fisher_task,2020.1.3,Win32,60,-0.179861111,-0.434027778,1,0,0,2.569,scale,0,6,6,6,1,0.349027907,0.282842712,0.174513954,0.141421356,stimuli/training/80_left.png,stimuli/training/80_right.png,,,,,,,,,,,,,
,,,,,,$5ea9756607b9e3069ebb658b,2020-07-21_16h42.06.881,fisher_task,2020.1.3,Win32,60,0.163888889,-0.436805556,1,0,0,1.625,scale,0,7,7,7,1,0.1234,0.1,0.3702,0.3,stimuli/training/30_left.png,stimuli/training/30_right.png,,,,,,,,,,,,,
,,,,,,$5ea9756607b9e3069ebb658b,2020-07-21_16h42.06.881,fisher_task,2020.1.3,Win32,60,-0.172916667,-0.433333333,1,0,0,1.952,scale,0,8,8,8,1,0.3702,0.3,0.1234,0.1,stimuli/training/70_left.png,stimuli/training/70_right.png,,,,,,,,,,,,,
,,,,,,$5ea9756607b9e3069ebb658b,2020-07-21_16h42.06.881,fisher_task,2020.1.3,Win32,60,-0.176388889,-0.4375,1,0,0,1.632,scale,0,9,9,9,1,0.326485712,0.264575131,0.21373507,0.173205081,stimuli/training/90_left.png,stimuli/training/90_right.png,,,,,,,,,,,,,
,,,,,,$5ea9756607b9e3069ebb658b,2020-07-21_16h42.06.881,fisher_task,2020.1.3,Win32,60,0.177083333,-0.434722222,1,0,0,1.562,scale,0,10,10,10,1,0.21373507,0.173205081,0.326485712,0.264575131,stimuli/training/10_left.png,stimuli/training/10_right.png,,,,,,,,,,,,,
,,,,,,$5ea9756607b9e3069ebb658b,2020-07-21_16h42.06.881,fisher_task,2020.1.3,Win32,60,0.149305556,-0.336805556,1,0,0,1.826,scale,,,,,,0.275930788,0.223606798,0.275930788,0.223606798,stimuli/lakes/504054_left.png,stimuli/lakes/504054_right.png,space,5.518,,0,0,0,54,1,,,,,
,,,,,,$5ea9756607b9e3069ebb658b,2020-07-21_16h42.06.881,fisher_task,2020.1.3,Win32,60,-0.090972222,-0.269444444,1,0,0,2.493,scale,,,,,,0.3702,0.3,0.1234,0.1,stimuli/lakes/904058_left.png,stimuli/lakes/904058_right.png,,,,0,1,1,58,1,,,,,
,,,,,,$5ea9756607b9e3069ebb658b,2020-07-21_16h42.06.881,fisher_task,2020.1.3,Win32,60,-0.16875,-0.433333333,1,0,0,2.576,scale,,,,,,0.2468,0.2,0.302267034,0.244948974,stimuli/lakes/4090123_left.png,stimuli/lakes/4090123_right.png,,,,0,2,2,123,1,,,,,
,,,,,,$5ea9756607b9e3069ebb658b,2020-07-21_16h42.06.881,fisher_task,2020.1.3,Win32,60,0.165972222,-0.384722222,1,0,0,2.056,scale,,,,,,0.174513954,0.141421356,0.349027907,0.282842712,stimuli/lakes/204042_left.png,stimuli/lakes/204042_right.png,,,,0,3,3,42,1,,,,,
,,,,,,$5ea9756607b9e3069ebb658b,2020-07-21_16h42.06.881,fisher_task,2020.1.3,Win32,60,-0.172222222,-0.436111111,1,0,0,1.618,scale,,,,,,0.326485712,0.264575131,0.21373507,0.173205081,stimuli/lakes/7070104_left.png,stimuli/lakes/7070104_right.png,,,,0,4,4,104,1,,,,,
,,,,,,$5ea9756607b9e3069ebb658b,2020-07-21_16h42.06.881,fisher_task,2020.1.3,Win32,60,-0.163194444,-0.434722222,1,0,0,1.632,scale,,,,,,0.349027907,0.282842712,0.174513954,0.141421356,stimuli/lakes/805069_left.png,stimuli/lakes/805069_right.png,,,,0,5,5,69,1,,,,,
,,,,,,$5ea9756607b9e3069ebb658b,2020-07-21_16h42.06.881,fisher_task,2020.1.3,Win32,60,-0.1,-0.25625,1,0,0,3.819,scale,,,,,,0.275930788,0.223606798,0.275930788,0.223606798,stimuli/lakes/506084_left.png,stimuli/lakes/506084_right.png,,,,0,6,6,84,1,,,,,
,,,,,,$5ea9756607b9e3069ebb658b,2020-07-21_16h42.06.881,fisher_task,2020.1.3,Win32,60,-0.148611111,-0.3625,1,0,0,2.333,scale,,,,,,0.275930788,0.223606798,0.275930788,0.223606798,stimuli/lakes/507093_left.png,stimuli/lakes/507093_right.png,,,,0,7,7,93,1,,,,,
,,,,,,$5ea9756607b9e3069ebb658b,2020-07-21_16h42.06.881,fisher_task,2020.1.3,Win32,60,-0.154166667,-0.435416667,1,0,0,1.36,scale,,,,,,0.3702,0.3,0.1234,0.1,stimuli/lakes/9070106_left.png,stimuli/lakes/9070106_right.png,,,,0,8,8,106,1,,,,,
,,,,,,$5ea9756607b9e3069ebb658b,2020-07-21_16h42.06.881,fisher_task,2020.1.3,Win32,60,0.097222222,-0.263888889,1,0,0,3.667,scale,,,,,,0.174513954,0.141421356,0.349027907,0.282842712,stimuli/lakes/206081_left.png,stimuli/lakes/206081_right.png,,,,0,9,9,81,1,,,,,
,,,,,,$5ea9756607b9e3069ebb658b,2020-07-21_16h42.06.881,fisher_task,2020.1.3,Win32,60,-0.048611111,-0.240972222,1,0,0,3.202,scale,,,,,,0.174513954,0.141421356,0.349027907,0.282842712,stimuli/lakes/2080108_left.png,stimuli/lakes/2080108_right.png,,,,0,10,10,108,1,,,,,
,,,,,,$5ea9756607b9e3069ebb658b,2020-07-21_16h42.06.881,fisher_task,2020.1.3,Win32,60,-0.095833333,-0.264583333,1,0,0,3.091,scale,,,,,,0.349027907,0.282842712,0.174513954,0.141421356,stimuli/lakes/804057_left.png,stimuli/lakes/804057_right.png,,,,0,11,11,57,1,,,,,
,,,,,,$5ea9756607b9e3069ebb658b,2020-07-21_16h42.06.881,fisher_task,2020.1.3,Win32,60,-0.065972222,-0.23125,1,0,0,4.382,scale,,,,,,0.1234,0.1,0.3702,0.3,stimuli/lakes/107089_left.png,stimuli/lakes/107089_right.png,,,,0,12,12,89,1,,,,,
,,,,,,$5ea9756607b9e3069ebb658b,2020-07-21_16h42.06.881,fisher_task,2020.1.3,Win32,60,-0.1625,-0.434027778,1,0,0,1.688,scale,,,,,,0.302267034,0.244948974,0.2468,0.2,stimuli/lakes/6080114_left.png,stimuli/lakes/6080114_right.png,,,,0,13,13,114,1,,,,,
,,,,,,$5ea9756607b9e3069ebb658b,2020-07-21_16h42.06.881,fisher_task,2020.1.3,Win32,60,-0.143055556,-0.325694444,1,0,0,1.423,scale,,,,,,0.302267034,0.244948974,0.2468,0.2,stimuli/lakes/605066_left.png,stimuli/lakes/605066_right.png,,,,0,14,14,66,1,,,,,
,,,,,,$5ea9756607b9e3069ebb658b,2020-07-21_16h42.06.881,fisher_task,2020.1.3,Win32,60,-0.159027778,-0.325694444,1,0,0,1.916,scale,,,,,,0.326485712,0.264575131,0.21373507,0.173205081,stimuli/lakes/705068_left.png,stimuli/lakes/705068_right.png,,,,0,15,15,68,1,,,,,
,,,,,,$5ea9756607b9e3069ebb658b,2020-07-21_16h42.06.881,fisher_task,2020.1.3,Win32,60,-0.168055556,-0.435416667,1,0,0,1.431,scale,,,,,,0.326485712,0.264575131,0.21373507,0.173205081,stimuli/lakes/7090129_left.png,stimuli/lakes/7090129_right.png,,,,0,16,16,129,1,,,,,
,,,,,,$5ea9756607b9e3069ebb658b,2020-07-21_16h42.06.881,fisher_task,2020.1.3,Win32,60,0.069444444,-0.252777778,1,0,0,1.91,scale,,,,,,0.302267034,0.244948974,0.2468,0.2,stimuli/lakes/602017_left.png,stimuli/lakes/602017_right.png,,,,0,17,17,17,1,,,,,
,,,,,,$5ea9756607b9e3069ebb658b,2020-07-21_16h42.06.881,fisher_task,2020.1.3,Win32,60,-0.244444444,-0.443055556,1,0,0,2.486,scale,,,,,,0.326485712,0.264575131,0.21373507,0.173205081,stimuli/lakes/707095_left.png,stimuli/lakes/707095_right.png,,,,0,18,18,95,1,,,,,
,,,,,,$5ea9756607b9e3069ebb658b,2020-07-21_16h42.06.881,fisher_task,2020.1.3,Win32,60,-0.14375,-0.334027778,1,0,0,1.431,scale,,,,,,0.302267034,0.244948974,0.2468,0.2,stimuli/lakes/6070103_left.png,stimuli/lakes/6070103_right.png,,,,0,19,19,103,1,,,,,
,,,,,,$5ea9756607b9e3069ebb658b,2020-07-21_16h42.06.881,fisher_task,2020.1.3,Win32,60,-0.138194444,-0.3125,1,0,0,2.924,scale,,,,,,0.21373507,0.173205081,0.326485712,0.264575131,stimuli/lakes/3080109_left.png,stimuli/lakes/3080109_right.png,,,,0,20,20,109,1,,,,,
,,,,,,$5ea9756607b9e3069ebb658b,2020-07-21_16h42.06.881,fisher_task,2020.1.3,Win32,60,-0.070138889,-0.255555556,1,0,0,4.965,scale,,,,,,0.2468,0.2,0.302267034,0.244948974,stimuli/lakes/405064_left.png,stimuli/lakes/405064_right.png,,,,0,21,21,64,1,,,,,
,,,,,,$5ea9756607b9e3069ebb658b,2020-07-21_16h42.06.881,fisher_task,2020.1.3,Win32,60,-0.092361111,-0.273611111,1,0,0,1.549,scale,,,,,,0.2468,0.2,0.302267034,0.244948974,stimuli/lakes/4080111_left.png,stimuli/lakes/4080111_right.png,,,space,0,22,22,111,1,5.112,,,,
,,,,,,$5ea9756607b9e3069ebb658b,2020-07-21_16h42.06.881,fisher_task,2020.1.3,Win32,60,-0.059722222,-0.239583333,1,0,0,2.25,scale,,,,,,0.326485712,0.264575131,0.21373507,0.173205081,stimuli/lakes/703038_left.png,stimuli/lakes/703038_right.png,,,,0,23,23,38,1,,,,,
,,,,,,$5ea9756607b9e3069ebb658b,2020-07-21_16h42.06.881,fisher_task,2020.1.3,Win32,60,-0.099305556,-0.285416667,1,0,0,2.438,scale,,,,,,0.349027907,0.282842712,0.174513954,0.141421356,stimuli/lakes/804048_left.png,stimuli/lakes/804048_right.png,,,,0,24,24,48,1,,,,,
,,,,,,$5ea9756607b9e3069ebb658b,2020-07-21_16h42.06.881,fisher_task,2020.1.3,Win32,60,0.128472222,-0.29375,1,0,0,2.264,scale,,,,,,0.174513954,0.141421356,0.349027907,0.282842712,stimuli/lakes/206072_left.png,stimuli/lakes/206072_right.png,,,,0,25,25,72,1,,,,,
,,,,,,$5ea9756607b9e3069ebb658b,2020-07-21_16h42.06.881,fisher_task,2020.1.3,Win32,60,-0.153472222,-0.375694444,1,0,0,1.625,scale,,,,,,0.302267034,0.244948974,0.2468,0.2,stimuli/lakes/606085_left.png,stimuli/lakes/606085_right.png,,,,0,26,26,85,1,,,,,
,,,,,,$5ea9756607b9e3069ebb658b,2020-07-21_16h42.06.881,fisher_task,2020.1.3,Win32,60,-0.151388889,-0.336805556,1,0,0,3.001,scale,,,,,,0.326485712,0.264575131,0.21373507,0.173205081,stimuli/lakes/704056_left.png,stimuli/lakes/704056_right.png,,,,0,27,27,56,1,,,,,
,,,,,,$5ea9756607b9e3069ebb658b,2020-07-21_16h42.06.881,fisher_task,2020.1.3,Win32,60,0.115972222,-0.285416667,1,0,0,1.792,scale,,,,,,0.2468,0.2,0.302267034,0.244948974,stimuli/lakes/406083_left.png,stimuli/lakes/406083_right.png,,,,0,28,28,83,1,,,,,
,,,,,,$5ea9756607b9e3069ebb658b,2020-07-21_16h42.06.881,fisher_task,2020.1.3,Win32,60,0.159722222,-0.425694444,1,0,0,1.18,scale,,,,,,0.2468,0.2,0.302267034,0.244948974,stimuli/lakes/404044_left.png,stimuli/lakes/404044_right.png,,,,0,29,29,44,1,,,,,
,,,,,,$5ea9756607b9e3069ebb658b,2020-07-21_16h42.06.881,fisher_task,2020.1.3,Win32,60,0.080555556,-0.254861111,1,0,0,3.784,scale,,,,,,0.1234,0.1,0.3702,0.3,stimuli/lakes/107098_left.png,stimuli/lakes/107098_right.png,,,,0,30,30,98,1,,,,,
,,,,,,$5ea9756607b9e3069ebb658b,2020-07-21_16h42.06.881,fisher_task,2020.1.3,Win32,60,0.079861111,-0.259027778,1,0,0,2.723,scale,,,,,,0.174513954,0.141421356,0.349027907,0.282842712,stimuli/lakes/207099_left.png,stimuli/lakes/207099_right.png,,,,0,31,31,99,1,,,,,
,,,,,,$5ea9756607b9e3069ebb658b,2020-07-21_16h42.06.881,fisher_task,2020.1.3,Win32,60,0.060416667,-0.251388889,1,0,0,4.668,scale,,,,,,0.349027907,0.282842712,0.174513954,0.141421356,stimuli/lakes/803030_left.png,stimuli/lakes/803030_right.png,,,,0,32,32,30,1,,,,,
,,,,,,$5ea9756607b9e3069ebb658b,2020-07-21_16h42.06.881,fisher_task,2020.1.3,Win32,60,0.172916667,-0.431944444,1,0,0,1.5,scale,,,,,,0.275930788,0.223606798,0.275930788,0.223606798,stimuli/lakes/50104_left.png,stimuli/lakes/50104_right.png,,,,0,33,33,4,1,,,,,
,,,,,,$5ea9756607b9e3069ebb658b,2020-07-21_16h42.06.881,fisher_task,2020.1.3,Win32,60,-0.168055556,-0.434722222,1,0,0,1.215,scale,,,,,,0.349027907,0.282842712,0.174513954,0.141421356,stimuli/lakes/8070105_left.png,stimuli/lakes/8070105_right.png,,,,0,34,34,105,1,,,,,
,,,,,,$5ea9756607b9e3069ebb658b,2020-07-21_16h42.06.881,fisher_task,2020.1.3,Win32,60,0.130555556,-0.301388889,1,0,0,1.868,scale,,,,,,0.1234,0.1,0.3702,0.3,stimuli/lakes/1080107_left.png,stimuli/lakes/1080107_right.png,,,,0,35,35,107,1,,,,,
,,,,,,$5ea9756607b9e3069ebb658b,2020-07-21_16h42.06.881,fisher_task,2020.1.3,Win32,60,0.06875,-0.25,1,0,0,2.376,scale,,,,,,0.21373507,0.173205081,0.326485712,0.264575131,stimuli/lakes/307091_left.png,stimuli/lakes/307091_right.png,,,,0,36,36,91,1,,,,,
,,,,,,$5ea9756607b9e3069ebb658b,2020-07-21_16h42.06.881,fisher_task,2020.1.3,Win32,60,-0.161805556,-0.436805556,1,0,0,1.494,scale,,,,,,0.275930788,0.223606798,0.275930788,0.223606798,stimuli/lakes/5090125_left.png,stimuli/lakes/5090125_right.png,,,,0,37,37,125,1,,,,,
,,,,,,$5ea9756607b9e3069ebb658b,2020-07-21_16h42.06.881,fisher_task,2020.1.3,Win32,60,0.115277778,-0.296527778,1,0,0,1.779,scale,,,,,,0.302267034,0.244948974,0.2468,0.2,stimuli/lakes/603037_left.png,stimuli/lakes/603037_right.png,,,,0,38,38,37,1,,,,,
,,,,,,$5ea9756607b9e3069ebb658b,2020-07-21_16h42.06.881,fisher_task,2020.1.3,Win32,60,0.157638889,-0.435416667,1,0,0,1.486,scale,,,,,,0.1234,0.1,0.3702,0.3,stimuli/lakes/104050_left.png,stimuli/lakes/104050_right.png,,,,0,39,39,50,1,,,,,
,,,,,,$5ea9756607b9e3069ebb658b,2020-07-21_16h42.06.881,fisher_task,2020.1.3,Win32,60,0.181944444,-0.423611111,1,0,0,2.576,scale,,,,,,0.2468,0.2,0.302267034,0.244948974,stimuli/lakes/40102_left.png,stimuli/lakes/40102_right.png,,,,0,40,40,2,1,,,,,
,,,,,,$5ea9756607b9e3069ebb658b,2020-07-21_16h42.06.881,fisher_task,2020.1.3,Win32,60,-0.095833333,-0.270833333,1,0,0,4.168,scale,,,,,,0.2468,0.2,0.302267034,0.244948974,stimuli/lakes/407092_left.png,stimuli/lakes/407092_right.png,,,,0,41,41,92,1,,,,,
,,,,,,$5ea9756607b9e3069ebb658b,2020-07-21_16h42.06.881,fisher_task,2020.1.3,Win32,60,0.161805556,-0.435416667,1,0,0,2.348,scale,,,,,,0.2468,0.2,0.302267034,0.244948974,stimuli/lakes/403035_left.png,stimuli/lakes/403035_right.png,,,,0,42,42,35,1,,,,,
,,,,,,$5ea9756607b9e3069ebb658b,2020-07-21_16h42.06.881,fisher_task,2020.1.3,Win32,60,-0.155555556,-0.353472222,1,0,0,2.327,scale,,,,,,0.3702,0.3,0.1234,0.1,stimuli/lakes/906088_left.png,stimuli/lakes/906088_right.png,,,,0,43,43,88,1,,,,,
,,,,,,$5ea9756607b9e3069ebb658b,2020-07-21_16h42.06.881,fisher_task,2020.1.3,Win32,60,-0.106944444,-0.315277778,1,0,0,1.52,scale,,,,,,0.174513954,0.141421356,0.349027907,0.282842712,stimuli/lakes/2090120_left.png,stimuli/lakes/2090120_right.png,,,space,0,44,44,120,1,3.572,,,,
,,,,,,$5ea9756607b9e3069ebb658b,2020-07-21_16h42.06.881,fisher_task,2020.1.3,Win32,60,-0.155555556,-0.366666667,1,0,0,1.68,scale,,,,,,0.3702,0.3,0.1234,0.1,stimuli/lakes/904049_left.png,stimuli/lakes/904049_right.png,,,,0,45,45,49,1,,,,,
,,,,,,$5ea9756607b9e3069ebb658b,2020-07-21_16h42.06.881,fisher_task,2020.1.3,Win32,60,0.150694444,-0.331944444,1,0,0,2.361,scale,,,,,,0.3702,0.3,0.1234,0.1,stimuli/lakes/901010_left.png,stimuli/lakes/901010_right.png,,,,0,46,46,10,1,,,,,
,,,,,,$5ea9756607b9e3069ebb658b,2020-07-21_16h42.06.881,fisher_task,2020.1.3,Win32,60,0.152777778,-0.347222222,1,0,0,1.284,scale,,,,,,0.21373507,0.173205081,0.326485712,0.264575131,stimuli/lakes/304052_left.png,stimuli/lakes/304052_right.png,,,,0,47,47,52,1,,,,,
,,,,,,$5ea9756607b9e3069ebb658b,2020-07-21_16h42.06.881,fisher_task,2020.1.3,Win32,60,0.125,-0.309722222,1,0,0,2.979,scale,,,,,,0.349027907,0.282842712,0.174513954,0.141421356,stimuli/lakes/80109_left.png,stimuli/lakes/80109_right.png,,,,0,48,48,9,1,,,,,
,,,,,,$5ea9756607b9e3069ebb658b,2020-07-21_16h42.06.881,fisher_task,2020.1.3,Win32,60,0.119444444,-0.3,1,0,0,2.466,scale,,,,,,0.326485712,0.264575131,0.21373507,0.173205081,stimuli/lakes/702019_left.png,stimuli/lakes/702019_right.png,,,,0,49,49,19,1,,,,,
,,,,,,$5ea9756607b9e3069ebb658b,2020-07-21_16h42.06.881,fisher_task,2020.1.3,Win32,60,0.164583333,-0.403472222,1,0,0,1.542,scale,,,,,,0.2468,0.2,0.302267034,0.244948974,stimuli/lakes/404053_left.png,stimuli/lakes/404053_right.png,,,,0,50,50,53,1,,,,,
,,,,,,$5ea9756607b9e3069ebb658b,2020-07-21_16h42.06.881,fisher_task,2020.1.3,Win32,60,0.164583333,-0.360416667,1,0,0,2.757,scale,,,,,,0.326485712,0.264575131,0.21373507,0.173205081,stimuli/lakes/70107_left.png,stimuli/lakes/70107_right.png,,,,0,51,51,7,1,,,,,
,,,,,,$5ea9756607b9e3069ebb658b,2020-07-21_16h42.06.881,fisher_task,2020.1.3,Win32,60,0.165972222,-0.433333333,1,0,0,2.555,scale,,,,,,0.21373507,0.173205081,0.326485712,0.264575131,stimuli/lakes/302012_left.png,stimuli/lakes/302012_right.png,,,,0,52,52,12,1,,,,,
,,,,,,$5ea9756607b9e3069ebb658b,2020-07-21_16h42.06.881,fisher_task,2020.1.3,Win32,60,0.167361111,-0.382638889,1,0,0,1.848,scale,,,,,,0.1234,0.1,0.3702,0.3,stimuli/lakes/105059_left.png,stimuli/lakes/105059_right.png,,,,0,53,53,59,1,,,,,
,,,,,,$5ea9756607b9e3069ebb658b,2020-07-21_16h42.06.881,fisher_task,2020.1.3,Win32,60,0.03125,-0.238888889,1,0,0,3.124,scale,,,,,,0.21373507,0.173205081,0.326485712,0.264575131,stimuli/lakes/304043_left.png,stimuli/lakes/304043_right.png,,,,0,54,54,43,1,,,,,
,,,,,,$5ea9756607b9e3069ebb658b,2020-07-21_16h42.06.881,fisher_task,2020.1.3,Win32,60,0.117361111,-0.315277778,1,0,0,2.409,scale,,,,,,0.302267034,0.244948974,0.2468,0.2,stimuli/lakes/604055_left.png,stimuli/lakes/604055_right.png,,,,0,55,55,55,1,,,,,
,,,,,,$5ea9756607b9e3069ebb658b,2020-07-21_16h42.06.881,fisher_task,2020.1.3,Win32,60,0.153472222,-0.356944444,1,0,0,1.785,scale,,,,,,0.275930788,0.223606798,0.275930788,0.223606798,stimuli/lakes/503027_left.png,stimuli/lakes/503027_right.png,,,,0,56,56,27,1,,,,,
,,,,,,$5ea9756607b9e3069ebb658b,2020-07-21_16h42.06.881,fisher_task,2020.1.3,Win32,60,-0.145138889,-0.369444444,1,0,0,2.306,scale,,,,,,0.275930788,0.223606798,0.275930788,0.223606798,stimuli/lakes/5070102_left.png,stimuli/lakes/5070102_right.png,,,,0,57,57,102,1,,,,,
,,,,,,$5ea9756607b9e3069ebb658b,2020-07-21_16h42.06.881,fisher_task,2020.1.3,Win32,60,-0.067361111,-0.257638889,1,0,0,1.798,scale,,,,,,0.3702,0.3,0.1234,0.1,stimuli/lakes/903040_left.png,stimuli/lakes/903040_right.png,,,,0,58,58,40,1,,,,,
,,,,,,$5ea9756607b9e3069ebb658b,2020-07-21_16h42.06.881,fisher_task,2020.1.3,Win32,60,0.178472222,-0.432638889,1,0,0,1.395,scale,,,,,,0.21373507,0.173205081,0.326485712,0.264575131,stimuli/lakes/303034_left.png,stimuli/lakes/303034_right.png,,,,0,59,59,34,1,,,,,
,,,,,,$5ea9756607b9e3069ebb658b,2020-07-21_16h42.06.881,fisher_task,2020.1.3,Win32,60,-0.1625,-0.417361111,1,0,0,1.313,scale,,,,,,0.3702,0.3,0.1234,0.1,stimuli/lakes/907097_left.png,stimuli/lakes/907097_right.png,,,,0,60,60,97,1,,,,,
,,,,,,$5ea9756607b9e3069ebb658b,2020-07-21_16h42.06.881,fisher_task,2020.1.3,Win32,60,0.146527778,-0.426388889,1,0,0,1.098,scale,,,,,,0.1234,0.1,0.3702,0.3,stimuli/lakes/103032_left.png,stimuli/lakes/103032_right.png,,,,0,61,61,32,1,,,,,
,,,,,,$5ea9756607b9e3069ebb658b,2020-07-21_16h42.06.881,fisher_task,2020.1.3,Win32,60,-0.109027778,-0.263194444,1,0,0,1.403,scale,,,,,,0.326485712,0.264575131,0.21373507,0.173205081,stimuli/lakes/704047_left.png,stimuli/lakes/704047_right.png,,,,0,62,62,47,1,,,,,
,,,,,,$5ea9756607b9e3069ebb658b,2020-07-21_16h42.06.881,fisher_task,2020.1.3,Win32,60,-0.074305556,-0.250694444,1,0,0,1.416,scale,,,,,,0.349027907,0.282842712,0.174513954,0.141421356,stimuli/lakes/802021_left.png,stimuli/lakes/802021_right.png,,,,0,63,63,21,1,,,,,
,,,,,,$5ea9756607b9e3069ebb658b,2020-07-21_16h42.06.881,fisher_task,2020.1.3,Win32,60,0.108333333,-0.269444444,1,0,0,1.965,scale,,,,,,0.302267034,0.244948974,0.2468,0.2,stimuli/lakes/60106_left.png,stimuli/lakes/60106_right.png,,,,0,64,64,6,1,,,,,
,,,,,,$5ea9756607b9e3069ebb658b,2020-07-21_16h42.06.881,fisher_task,2020.1.3,Win32,60,-0.138194444,-0.306944444,1,0,0,2.472,scale,,,,,,0.349027907,0.282842712,0.174513954,0.141421356,stimuli/lakes/806087_left.png,stimuli/lakes/806087_right.png,,,,0,65,65,87,1,,,,,
,,,,,,$5ea9756607b9e3069ebb658b,2020-07-21_16h42.06.881,fisher_task,2020.1.3,Win32,60,-0.123611111,-0.347222222,1,0,0,1.042,scale,,,,,,0.326485712,0.264575131,0.21373507,0.173205081,stimuli/lakes/7080116_left.png,stimuli/lakes/7080116_right.png,,,space,0,66,66,116,1,2.087,,,,
,,,,,,$5ea9756607b9e3069ebb658b,2020-07-21_16h42.06.881,fisher_task,2020.1.3,Win32,60,0.163194444,-0.361111111,1,0,0,1.264,scale,,,,,,0.174513954,0.141421356,0.349027907,0.282842712,stimuli/lakes/204051_left.png,stimuli/lakes/204051_right.png,,,,0,67,67,51,1,,,,,
,,,,,,$5ea9756607b9e3069ebb658b,2020-07-21_16h42.06.881,fisher_task,2020.1.3,Win32,60,0.064583333,-0.266666667,1,0,0,1.388,scale,,,,,,0.326485712,0.264575131,0.21373507,0.173205081,stimuli/lakes/70108_left.png,stimuli/lakes/70108_right.png,,,,0,68,68,8,1,,,,,
,,,,,,$5ea9756607b9e3069ebb658b,2020-07-21_16h42.06.881,fisher_task,2020.1.3,Win32,60,0.152083333,-0.377083333,1,0,0,1.729,scale,,,,,,0.302267034,0.244948974,0.2468,0.2,stimuli/lakes/602018_left.png,stimuli/lakes/602018_right.png,,,,0,69,69,18,1,,,,,
,,,,,,$5ea9756607b9e3069ebb658b,2020-07-21_16h42.06.881,fisher_task,2020.1.3,Win32,60,-0.154166667,-0.360416667,1,0,0,2.549,scale,,,,,,0.302267034,0.244948974,0.2468,0.2,stimuli/lakes/607094_left.png,stimuli/lakes/607094_right.png,,,,0,70,70,94,1,,,,,
,,,,,,$5ea9756607b9e3069ebb658b,2020-07-21_16h42.06.881,fisher_task,2020.1.3,Win32,60,-0.163888889,-0.434722222,1,0,0,1.194,scale,,,,,,0.349027907,0.282842712,0.174513954,0.141421356,stimuli/lakes/807096_left.png,stimuli/lakes/807096_right.png,,,,0,71,71,96,1,,,,,
,,,,,,$5ea9756607b9e3069ebb658b,2020-07-21_16h42.06.881,fisher_task,2020.1.3,Win32,60,-0.145833333,-0.296527778,1,0,0,0.889,scale,,,,,,0.326485712,0.264575131,0.21373507,0.173205081,stimuli/lakes/703029_left.png,stimuli/lakes/703029_right.png,,,,0,72,72,29,1,,,,,
,,,,,,$5ea9756607b9e3069ebb658b,2020-07-21_16h42.06.881,fisher_task,2020.1.3,Win32,60,-0.041666667,-0.2375,1,0,0,2.889,scale,,,,,,0.2468,0.2,0.302267034,0.244948974,stimuli/lakes/4070101_left.png,stimuli/lakes/4070101_right.png,,,,0,73,73,101,1,,,,,
,,,,,,$5ea9756607b9e3069ebb658b,2020-07-21_16h42.06.881,fisher_task,2020.1.3,Win32,60,-0.154861111,-0.393055556,1,0,0,1.876,scale,,,,,,0.349027907,0.282842712,0.174513954,0.141421356,stimuli/lakes/8080118_left.png,stimuli/lakes/8080118_right.png,,,,0,74,74,118,1,,,,,
,,,,,,$5ea9756607b9e3069ebb658b,2020-07-21_16h42.06.881,fisher_task,2020.1.3,Win32,60,0.119444444,-0.313194444,1,0,0,2.763,scale,,,,,,0.1234,0.1,0.3702,0.3,stimuli/lakes/106080_left.png,stimuli/lakes/106080_right.png,,,,0,75,75,80,1,,,,,
,,,,,,$5ea9756607b9e3069ebb658b,2020-07-21_16h42.06.881,fisher_task,2020.1.3,Win32,60,-0.132638889,-0.313194444,1,0,0,2.715,scale,,,,,,0.326485712,0.264575131,0.21373507,0.173205081,stimuli/lakes/705067_left.png,stimuli/lakes/705067_right.png,,,,0,76,76,67,1,,,,,
,,,,,,$5ea9756607b9e3069ebb658b,2020-07-21_16h42.06.881,fisher_task,2020.1.3,Win32,60,-0.125,-0.326388889,1,0,0,3.501,scale,,,,,,0.1234,0.1,0.3702,0.3,stimuli/lakes/1090119_left.png,stimuli/lakes/1090119_right.png,,,,0,77,77,119,1,,,,,
,,,,,,$5ea9756607b9e3069ebb658b,2020-07-21_16h42.06.881,fisher_task,2020.1.3,Win32,60,-0.004861111,-0.194444444,1,0,0,5.133,scale,,,,,,0.275930788,0.223606798,0.275930788,0.223606798,stimuli/lakes/504045_left.png,stimuli/lakes/504045_right.png,,,,0,78,78,45,1,,,,,
,,,,,,$5ea9756607b9e3069ebb658b,2020-07-21_16h42.06.881,fisher_task,2020.1.3,Win32,60,-0.111805556,-0.283333333,1,0,0,2.716,scale,,,,,,0.349027907,0.282842712,0.174513954,0.141421356,stimuli/lakes/806078_left.png,stimuli/lakes/806078_right.png,,,,0,79,79,78,1,,,,,
,,,,,,$5ea9756607b9e3069ebb658b,2020-07-21_16h42.06.881,fisher_task,2020.1.3,Win32,60,-0.155555556,-0.434722222,1,0,0,2.174,scale,,,,,,0.302267034,0.244948974,0.2468,0.2,stimuli/lakes/6090127_left.png,stimuli/lakes/6090127_right.png,,,,0,80,80,127,1,,,,,
,,,,,,$5ea9756607b9e3069ebb658b,2020-07-21_16h42.06.881,fisher_task,2020.1.3,Win32,60,-0.14375,-0.406944444,1,0,0,1.869,scale,,,,,,0.326485712,0.264575131,0.21373507,0.173205081,stimuli/lakes/7080117_left.png,stimuli/lakes/7080117_right.png,,,,0,81,81,117,1,,,,,
,,,,,,$5ea9756607b9e3069ebb658b,2020-07-21_16h42.06.881,fisher_task,2020.1.3,Win32,60,0.114583333,-0.295833333,1,0,0,2.792,scale,,,,,,0.1234,0.1,0.3702,0.3,stimuli/lakes/106071_left.png,stimuli/lakes/106071_right.png,,,,0,82,82,71,1,,,,,
,,,,,,$5ea9756607b9e3069ebb658b,2020-07-21_16h42.06.881,fisher_task,2020.1.3,Win32,60,0.167361111,-0.420138889,1,0,0,2.139,scale,,,,,,0.275930788,0.223606798,0.275930788,0.223606798,stimuli/lakes/502016_left.png,stimuli/lakes/502016_right.png,,,,0,83,83,16,1,,,,,
,,,,,,$5ea9756607b9e3069ebb658b,2020-07-21_16h42.06.881,fisher_task,2020.1.3,Win32,60,0.167361111,-0.434027778,1,0,0,1.188,scale,,,,,,0.2468,0.2,0.302267034,0.244948974,stimuli/lakes/402014_left.png,stimuli/lakes/402014_right.png,,,,0,84,84,14,1,,,,,
,,,,,,$5ea9756607b9e3069ebb658b,2020-07-21_16h42.06.881,fisher_task,2020.1.3,Win32,60,0.091666667,-0.25,1,0,0,1.841,scale,,,,,,0.21373507,0.173205081,0.326485712,0.264575131,stimuli/lakes/306082_left.png,stimuli/lakes/306082_right.png,,,,0,85,85,82,1,,,,,
,,,,,,$5ea9756607b9e3069ebb658b,2020-07-21_16h42.06.881,fisher_task,2020.1.3,Win32,60,0.158333333,-0.431944444,1,0,0,1.215,scale,,,,,,0.2468,0.2,0.302267034,0.244948974,stimuli/lakes/402015_left.png,stimuli/lakes/402015_right.png,,,,0,86,86,15,1,,,,,
,,,,,,$5ea9756607b9e3069ebb658b,2020-07-21_16h42.06.881,fisher_task,2020.1.3,Win32,60,0.067361111,-0.256944444,1,0,0,2.153,scale,,,,,,0.326485712,0.264575131,0.21373507,0.173205081,stimuli/lakes/702020_left.png,stimuli/lakes/702020_right.png,,,,0,87,87,20,1,,,,,
,,,,,,$5ea9756607b9e3069ebb658b,2020-07-21_16h42.06.881,fisher_task,2020.1.3,Win32,60,-0.130555556,-0.421527778,1,0,0,1.332,scale,,,,,,0.302267034,0.244948974,0.2468,0.2,stimuli/lakes/6090126_left.png,stimuli/lakes/6090126_right.png,,,space,0,88,88,126,1,1.609,,,,
,,,,,,$5ea9756607b9e3069ebb658b,2020-07-21_16h42.06.881,fisher_task,2020.1.3,Win32,60,0.109722222,-0.280555556,1,0,0,1.041,scale,,,,,,0.21373507,0.173205081,0.326485712,0.264575131,stimuli/lakes/306073_left.png,stimuli/lakes/306073_right.png,,,,0,89,89,73,1,,,,,
,,,,,,$5ea9756607b9e3069ebb658b,2020-07-21_16h42.06.881,fisher_task,2020.1.3,Win32,60,-0.059722222,-0.247222222,1,0,0,4.264,scale,,,,,,0.3702,0.3,0.1234,0.1,stimuli/lakes/903031_left.png,stimuli/lakes/903031_right.png,,,,0,90,90,31,1,,,,,
,,,,,,$5ea9756607b9e3069ebb658b,2020-07-21_16h42.06.881,fisher_task,2020.1.3,Win32,60,0.18125,-0.371527778,1,0,0,0.91,scale,,,,,,0.174513954,0.141421356,0.349027907,0.282842712,stimuli/lakes/203024_left.png,stimuli/lakes/203024_right.png,,,,0,91,91,24,1,,,,,
,,,,,,$5ea9756607b9e3069ebb658b,2020-07-21_16h42.06.881,fisher_task,2020.1.3,Win32,60,0.159722222,-0.388194444,1,0,0,1.055,scale,,,,,,0.21373507,0.173205081,0.326485712,0.264575131,stimuli/lakes/303025_left.png,stimuli/lakes/303025_right.png,,,,0,92,92,25,1,,,,,
,,,,,,$5ea9756607b9e3069ebb658b,2020-07-21_16h42.06.881,fisher_task,2020.1.3,Win32,60,-0.160416667,-0.402777778,1,0,0,1.167,scale,,,,,,0.326485712,0.264575131,0.21373507,0.173205081,stimuli/lakes/706086_left.png,stimuli/lakes/706086_right.png,,,,0,93,93,86,1,,,,,
,,,,,,$5ea9756607b9e3069ebb658b,2020-07-21_16h42.06.881,fisher_task,2020.1.3,Win32,60,-0.053472222,-0.254861111,1,0,0,3.125,scale,,,,,,0.302267034,0.244948974,0.2468,0.2,stimuli/lakes/604046_left.png,stimuli/lakes/604046_right.png,,,,0,94,94,46,1,,,,,
,,,,,,$5ea9756607b9e3069ebb658b,2020-07-21_16h42.06.881,fisher_task,2020.1.3,Win32,60,-0.140972222,-0.320138889,1,0,0,1.792,scale,,,,,,0.302267034,0.244948974,0.2468,0.2,stimuli/lakes/605065_left.png,stimuli/lakes/605065_right.png,,,,0,95,95,65,1,,,,,
,,,,,,$5ea9756607b9e3069ebb658b,2020-07-21_16h42.06.881,fisher_task,2020.1.3,Win32,60,-0.501388889,-0.123611111,1,0,0,1.514,scale,,,,,,0.349027907,0.282842712,0.174513954,0.141421356,stimuli/lakes/803039_left.png,stimuli/lakes/803039_right.png,,,,0,96,96,39,1,,,,,
,,,,,,$5ea9756607b9e3069ebb658b,2020-07-21_16h42.06.881,fisher_task,2020.1.3,Win32,60,0.042361111,-0.239583333,1,0,0,4.174,scale,,,,,,0.21373507,0.173205081,0.326485712,0.264575131,stimuli/lakes/3070100_left.png,stimuli/lakes/3070100_right.png,,,,0,97,97,100,1,,,,,
,,,,,,$5ea9756607b9e3069ebb658b,2020-07-21_16h42.06.881,fisher_task,2020.1.3,Win32,60,0.145833333,-0.375,1,0,0,2.313,scale,,,,,,0.275930788,0.223606798,0.275930788,0.223606798,stimuli/lakes/503036_left.png,stimuli/lakes/503036_right.png,,,,0,98,98,36,1,,,,,
,,,,,,$5ea9756607b9e3069ebb658b,2020-07-21_16h42.06.881,fisher_task,2020.1.3,Win32,60,-0.090972222,-0.268055556,1,0,0,3.821,scale,,,,,,0.275930788,0.223606798,0.275930788,0.223606798,stimuli/lakes/506075_left.png,stimuli/lakes/506075_right.png,,,,0,99,99,75,1,,,,,
,,,,,,$5ea9756607b9e3069ebb658b,2020-07-21_16h42.06.881,fisher_task,2020.1.3,Win32,60,-0.163888889,-0.385416667,1,0,0,2.015,scale,,,,,,0.21373507,0.173205081,0.326485712,0.264575131,stimuli/lakes/3090121_left.png,stimuli/lakes/3090121_right.png,,,,0,100,100,121,1,,,,,
,,,,,,$5ea9756607b9e3069ebb658b,2020-07-21_16h42.06.881,fisher_task,2020.1.3,Win32,60,0.154861111,-0.421527778,1,0,0,1.312,scale,,,,,,0.174513954,0.141421356,0.349027907,0.282842712,stimuli/lakes/203033_left.png,stimuli/lakes/203033_right.png,,,,0,101,101,33,1,,,,,
,,,,,,$5ea9756607b9e3069ebb658b,2020-07-21_16h42.06.881,fisher_task,2020.1.3,Win32,60,-0.147916667,-0.338888889,1,0,0,1.375,scale,,,,,,0.326485712,0.264575131,0.21373507,0.173205081,stimuli/lakes/706077_left.png,stimuli/lakes/706077_right.png,,,,0,102,102,77,1,,,,,
,,,,,,$5ea9756607b9e3069ebb658b,2020-07-21_16h42.06.881,fisher_task,2020.1.3,Win32,60,0.072916667,-0.261111111,1,0,0,3.217,scale,,,,,,0.174513954,0.141421356,0.349027907,0.282842712,stimuli/lakes/205060_left.png,stimuli/lakes/205060_right.png,,,,0,103,103,60,1,,,,,
,,,,,,$5ea9756607b9e3069ebb658b,2020-07-21_16h42.06.881,fisher_task,2020.1.3,Win32,60,-0.102777778,-0.292361111,1,0,0,1.173,scale,,,,,,0.275930788,0.223606798,0.275930788,0.223606798,stimuli/lakes/5080113_left.png,stimuli/lakes/5080113_right.png,,,,0,104,104,113,1,,,,,
,,,,,,$5ea9756607b9e3069ebb658b,2020-07-21_16h42.06.881,fisher_task,2020.1.3,Win32,60,0.157638889,-0.432638889,1,0,0,1.493,scale,,,,,,0.1234,0.1,0.3702,0.3,stimuli/lakes/103023_left.png,stimuli/lakes/103023_right.png,,,,0,105,105,23,1,,,,,
,,,,,,$5ea9756607b9e3069ebb658b,2020-07-21_16h42.06.881,fisher_task,2020.1.3,Win32,60,-0.148611111,-0.364583333,1,0,0,1.145,scale,,,,,,0.302267034,0.244948974,0.2468,0.2,stimuli/lakes/606076_left.png,stimuli/lakes/606076_right.png,,,,0,106,106,76,1,,,,,
,,,,,,$5ea9756607b9e3069ebb658b,2020-07-21_16h42.06.881,fisher_task,2020.1.3,Win32,60,0.033333333,-0.243055556,1,0,0,1.819,scale,,,,,,0.2468,0.2,0.302267034,0.244948974,stimuli/lakes/405063_left.png,stimuli/lakes/405063_right.png,,,,0,107,107,63,1,,,,,
,,,,,,$5ea9756607b9e3069ebb658b,2020-07-21_16h42.06.881,fisher_task,2020.1.3,Win32,60,0.272916667,-0.079166667,1,0,0,0.868,scale,,,,,,0.2468,0.2,0.302267034,0.244948974,stimuli/lakes/406074_left.png,stimuli/lakes/406074_right.png,,,,0,108,108,74,1,,,,,
,,,,,,$5ea9756607b9e3069ebb658b,2020-07-21_16h42.06.881,fisher_task,2020.1.3,Win32,60,-0.158333333,-0.355555556,1,0,0,1.792,scale,,,,,,0.21373507,0.173205081,0.326485712,0.264575131,stimuli/lakes/3090122_left.png,stimuli/lakes/3090122_right.png,,,,0,109,109,122,1,,,,,
,,,,,,$5ea9756607b9e3069ebb658b,2020-07-21_16h42.06.881,fisher_task,2020.1.3,Win32,60,0.176388889,-0.427083333,1,0,0,1.214,scale,,,,,,0.21373507,0.173205081,0.326485712,0.264575131,stimuli/lakes/30101_left.png,stimuli/lakes/30101_right.png,,,space,0,110,110,1,1,2.606,,,,
,,,,,,$5ea9756607b9e3069ebb658b,2020-07-21_16h42.06.881,fisher_task,2020.1.3,Win32,60,0.145833333,-0.325694444,1,0,0,1.021,scale,,,,,,0.2468,0.2,0.302267034,0.244948974,stimuli/lakes/403026_left.png,stimuli/lakes/403026_right.png,,,,0,111,111,26,1,,,,,
,,,,,,$5ea9756607b9e3069ebb658b,2020-07-21_16h42.06.881,fisher_task,2020.1.3,Win32,60,-0.0375,-0.227777778,1,0,0,4.584,scale,,,,,,0.302267034,0.244948974,0.2468,0.2,stimuli/lakes/603028_left.png,stimuli/lakes/603028_right.png,,,,0,112,112,28,1,,,,,
,,,,,,$5ea9756607b9e3069ebb658b,2020-07-21_16h42.06.881,fisher_task,2020.1.3,Win32,60,-0.084722222,-0.296527778,1,0,0,2.208,scale,,,,,,0.3702,0.3,0.1234,0.1,stimuli/lakes/902022_left.png,stimuli/lakes/902022_right.png,,,,0,113,113,22,1,,,,,
,,,,,,$5ea9756607b9e3069ebb658b,2020-07-21_16h42.06.881,fisher_task,2020.1.3,Win32,60,-0.152083333,-0.304166667,1,0,0,1.944,scale,,,,,,0.2468,0.2,0.302267034,0.244948974,stimuli/lakes/4080112_left.png,stimuli/lakes/4080112_right.png,,,,0,114,114,112,1,,,,,
,,,,,,$5ea9756607b9e3069ebb658b,2020-07-21_16h42.06.881,fisher_task,2020.1.3,Win32,60,-0.15,-0.434027778,1,0,0,1.056,scale,,,,,,0.326485712,0.264575131,0.21373507,0.173205081,stimuli/lakes/7090128_left.png,stimuli/lakes/7090128_right.png,,,,0,115,115,128,1,,,,,
,,,,,,$5ea9756607b9e3069ebb658b,2020-07-21_16h42.06.881,fisher_task,2020.1.3,Win32,60,-0.077777778,-0.272916667,1,0,0,3.159,scale,,,,,,0.174513954,0.141421356,0.349027907,0.282842712,stimuli/lakes/207090_left.png,stimuli/lakes/207090_right.png,,,,0,116,116,90,1,,,,,
,,,,,,$5ea9756607b9e3069ebb658b,2020-07-21_16h42.06.881,fisher_task,2020.1.3,Win32,60,-0.102083333,-0.265277778,1,0,0,1.577,scale,,,,,,0.21373507,0.173205081,0.326485712,0.264575131,stimuli/lakes/3080110_left.png,stimuli/lakes/3080110_right.png,,,,0,117,117,110,1,,,,,
,,,,,,$5ea9756607b9e3069ebb658b,2020-07-21_16h42.06.881,fisher_task,2020.1.3,Win32,60,-0.165972222,-0.435416667,1,0,0,1.542,scale,,,,,,0.302267034,0.244948974,0.2468,0.2,stimuli/lakes/6080115_left.png,stimuli/lakes/6080115_right.png,,,,0,118,118,115,1,,,,,
,,,,,,$5ea9756607b9e3069ebb658b,2020-07-21_16h42.06.881,fisher_task,2020.1.3,Win32,60,-0.193055556,-0.430555556,1,0,0,1.215,scale,,,,,,0.3702,0.3,0.1234,0.1,stimuli/lakes/906079_left.png,stimuli/lakes/906079_right.png,,,,0,119,119,79,1,,,,,
,,,,,,$5ea9756607b9e3069ebb658b,2020-07-21_16h42.06.881,fisher_task,2020.1.3,Win32,60,-0.176388889,-0.374305556,1,0,0,1.513,scale,,,,,,0.3702,0.3,0.1234,0.1,stimuli/lakes/905070_left.png,stimuli/lakes/905070_right.png,,,,0,120,120,70,1,,,,,
,,,,,,$5ea9756607b9e3069ebb658b,2020-07-21_16h42.06.881,fisher_task,2020.1.3,Win32,60,0.136111111,-0.435416667,1,0,0,1.451,scale,,,,,,0.2468,0.2,0.302267034,0.244948974,stimuli/lakes/40103_left.png,stimuli/lakes/40103_right.png,,,,0,121,121,3,1,,,,,
,,,,,,$5ea9756607b9e3069ebb658b,2020-07-21_16h42.06.881,fisher_task,2020.1.3,Win32,60,0.136111111,-0.435416667,1,0,0,0.876,scale,,,,,,0.21373507,0.173205081,0.326485712,0.264575131,stimuli/lakes/30100_left.png,stimuli/lakes/30100_right.png,,,,0,122,122,0,1,,,,,
,,,,,,$5ea9756607b9e3069ebb658b,2020-07-21_16h42.06.881,fisher_task,2020.1.3,Win32,60,0.179166667,-0.431944444,1,0,0,2.5,scale,,,,,,0.1234,0.1,0.3702,0.3,stimuli/lakes/104041_left.png,stimuli/lakes/104041_right.png,,,,0,123,123,41,1,,,,,
,,,,,,$5ea9756607b9e3069ebb658b,2020-07-21_16h42.06.881,fisher_task,2020.1.3,Win32,60,0.145138889,-0.310416667,1,0,0,2.605,scale,,,,,,0.21373507,0.173205081,0.326485712,0.264575131,stimuli/lakes/305062_left.png,stimuli/lakes/305062_right.png,,,,0,124,124,62,1,,,,,
,,,,,,$5ea9756607b9e3069ebb658b,2020-07-21_16h42.06.881,fisher_task,2020.1.3,Win32,60,0.086805556,-0.276388889,1,0,0,1.666,scale,,,,,,0.21373507,0.173205081,0.326485712,0.264575131,stimuli/lakes/305061_left.png,stimuli/lakes/305061_right.png,,,,0,125,125,61,1,,,,,
,,,,,,$5ea9756607b9e3069ebb658b,2020-07-21_16h42.06.881,fisher_task,2020.1.3,Win32,60,0.180555556,-0.397916667,1,0,0,1.619,scale,,,,,,0.21373507,0.173205081,0.326485712,0.264575131,stimuli/lakes/302013_left.png,stimuli/lakes/302013_right.png,,,,0,126,126,13,1,,,,,
,,,,,,$5ea9756607b9e3069ebb658b,2020-07-21_16h42.06.881,fisher_task,2020.1.3,Win32,60,-0.117361111,-0.320833333,1,0,0,1.757,scale,,,,,,0.2468,0.2,0.302267034,0.244948974,stimuli/lakes/4090124_left.png,stimuli/lakes/4090124_right.png,,,,0,127,127,124,1,,,,,
,,,,,,$5ea9756607b9e3069ebb658b,2020-07-21_16h42.06.881,fisher_task,2020.1.3,Win32,60,0.116666667,-0.291666667,1,0,0,2.27,scale,,,,,,0.302267034,0.244948974,0.2468,0.2,stimuli/lakes/60105_left.png,stimuli/lakes/60105_right.png,,,,0,128,128,5,1,,,,,
,,,,,,$5ea9756607b9e3069ebb658b,2020-07-21_16h42.06.881,fisher_task,2020.1.3,Win32,60,0.160416667,-0.41875,1,0,0,1.375,scale,,,,,,0.174513954,0.141421356,0.349027907,0.282842712,stimuli/lakes/202011_left.png,stimuli/lakes/202011_right.png,,,,0,129,129,11,1,,,,,
,,,,,,$5ea9756607b9e3069ebb658b,2020-07-21_16h42.06.881,fisher_task,2020.1.3,Win32,60,,,,,,,,,,,,,,,,,,,,,,,,,,,,space,6.269,space,20.811
