keySpace.keys,instructions.thisRepN,instructions.thisTrialN,instructions.thisN,instructions.thisIndex,instructions.ran,participant,date,expName,psychopyVersion,OS,frameRate,mouse.x,mouse.y,mouse.leftButton,mouse.midButton,mouse.rightButton,mouse.time,mouse.clicked_name,training.thisRepN,training.thisTrialN,training.thisN,training.thisIndex,training.ran,widthBasketLeft,heightBasketLeft,widthBasketRight,heightBasketRight,leftLake,rightLake,space2.keys,space2.rt,space1.keys,trials.thisRepN,trials.thisTrialN,trials.thisN,trials.thisIndex,trials.ran,space1.rt,finalSpace1.keys,finalSpace1.rt,finalSpace2.keys,finalSpace2.rt
,0,0,0,0,1,$5c3f62338cb6f5000180b697,2020-07-21_16h42.06.201,fisher_task,2020.1.3,Win32,60,,,,,,,,,,,,,,,,,,,,,,,,,,,,,,,
,,,,,,$5c3f62338cb6f5000180b697,2020-07-21_16h42.06.201,fisher_task,2020.1.3,Win32,60,0.150925926,-0.348148148,1,0,0,3.38319,scale,0,0,0,0,1,0.275930788,0.223606798,0.275930788,0.223606798,stimuli/training/20_left.png,stimuli/training/20_right.png,,,,,,,,,,,,,
,,,,,,$5c3f62338cb6f5000180b697,2020-07-21_16h42.06.201,fisher_task,2020.1.3,Win32,60,-0.130555556,-0.334259259,1,0,0,1.39979,scale,0,1,1,1,1,0.275930788,0.223606798,0.275930788,0.223606798,stimuli/training/80_left.png,stimuli/training/80_right.png,,,,,,,,,,,,,
,,,,,,$5c3f62338cb6f5000180b697,2020-07-21_16h42.06.201,fisher_task,2020.1.3,Win32,60,0.14537037,-0.311111111,1,0,0,2.866515,scale,0,2,2,2,1,0.174513954,0.141421356,0.349027907,0.282842712,stimuli/training/50_left.png,stimuli/training/50_right.png,,,,,,,,,,,,,
,,,,,,$5c3f62338cb6f5000180b697,2020-07-21_16h42.06.201,fisher_task,2020.1.3,Win32,60,0.152777778,-0.312962963,1,0,0,1.983075,scale,0,3,3,3,1,0.349027907,0.282842712,0.174513954,0.141421356,stimuli/training/50_left.png,stimuli/training/50_right.png,,,,,,,,,,,,,
,,,,,,$5c3f62338cb6f5000180b697,2020-07-21_16h42.06.201,fisher_task,2020.1.3,Win32,60,0.147222222,-0.330555556,1,0,0,1.86644,scale,0,4,4,4,1,0.275930788,0.223606798,0.275930788,0.223606798,stimuli/training/50_left.png,stimuli/training/50_right.png,,,,,,,,,,,,,
,,,,,,$5c3f62338cb6f5000180b697,2020-07-21_16h42.06.201,fisher_task,2020.1.3,Win32,60,0.15462963,-0.357407407,1,0,0,2.049705,scale,0,5,5,5,1,0.174513954,0.141421356,0.349027907,0.282842712,stimuli/training/20_left.png,stimuli/training/20_right.png,,,,,,,,,,,,,
,,,,,,$5c3f62338cb6f5000180b697,2020-07-21_16h42.06.201,fisher_task,2020.1.3,Win32,60,-0.149074074,-0.419444444,1,0,0,1.666185,scale,0,6,6,6,1,0.349027907,0.282842712,0.174513954,0.141421356,stimuli/training/80_left.png,stimuli/training/80_right.png,,,,,,,,,,,,,
,,,,,,$5c3f62338cb6f5000180b697,2020-07-21_16h42.06.201,fisher_task,2020.1.3,Win32,60,0.14537037,-0.328703704,1,0,0,2.116295,scale,0,7,7,7,1,0.1234,0.1,0.3702,0.3,stimuli/training/30_left.png,stimuli/training/30_right.png,,,,,,,,,,,,,
,,,,,,$5c3f62338cb6f5000180b697,2020-07-21_16h42.06.201,fisher_task,2020.1.3,Win32,60,-0.138888889,-0.319444444,1,0,0,1.81647,scale,0,8,8,8,1,0.3702,0.3,0.1234,0.1,stimuli/training/70_left.png,stimuli/training/70_right.png,,,,,,,,,,,,,
,,,,,,$5c3f62338cb6f5000180b697,2020-07-21_16h42.06.201,fisher_task,2020.1.3,Win32,60,-0.173148148,-0.412962963,1,0,0,1.549825,scale,0,9,9,9,1,0.326485712,0.264575131,0.21373507,0.173205081,stimuli/training/90_left.png,stimuli/training/90_right.png,,,,,,,,,,,,,
,,,,,,$5c3f62338cb6f5000180b697,2020-07-21_16h42.06.201,fisher_task,2020.1.3,Win32,60,0.153703704,-0.411111111,1,0,0,1.50008,scale,0,10,10,10,1,0.21373507,0.173205081,0.326485712,0.264575131,stimuli/training/10_left.png,stimuli/training/10_right.png,,,,,,,,,,,,,
,,,,,,$5c3f62338cb6f5000180b697,2020-07-21_16h42.06.201,fisher_task,2020.1.3,Win32,60,0.160185185,-0.410185185,1,0,0,1.18313,scale,,,,,,0.174513954,0.141421356,0.349027907,0.282842712,stimuli/lakes/202011_left.png,stimuli/lakes/202011_right.png,space,4.662695,,0,0,0,11,1,,,,,
,,,,,,$5c3f62338cb6f5000180b697,2020-07-21_16h42.06.201,fisher_task,2020.1.3,Win32,60,-0.144444444,-0.336111111,1,0,0,1.31632,scale,,,,,,0.302267034,0.244948974,0.2468,0.2,stimuli/lakes/607094_left.png,stimuli/lakes/607094_right.png,,,,0,1,1,94,1,,,,,
,,,,,,$5c3f62338cb6f5000180b697,2020-07-21_16h42.06.201,fisher_task,2020.1.3,Win32,60,0.148148148,-0.322222222,1,0,0,1.333105,scale,,,,,,0.275930788,0.223606798,0.275930788,0.223606798,stimuli/lakes/503036_left.png,stimuli/lakes/503036_right.png,,,,0,2,2,36,1,,,,,
,,,,,,$5c3f62338cb6f5000180b697,2020-07-21_16h42.06.201,fisher_task,2020.1.3,Win32,60,-0.073148148,-0.261111111,1,0,0,2.249775,scale,,,,,,0.2468,0.2,0.302267034,0.244948974,stimuli/lakes/406074_left.png,stimuli/lakes/406074_right.png,,,,0,3,3,74,1,,,,,
,,,,,,$5c3f62338cb6f5000180b697,2020-07-21_16h42.06.201,fisher_task,2020.1.3,Win32,60,-0.152777778,-0.374074074,1,0,0,1.549785,scale,,,,,,0.349027907,0.282842712,0.174513954,0.141421356,stimuli/lakes/807096_left.png,stimuli/lakes/807096_right.png,,,,0,4,4,96,1,,,,,
,,,,,,$5c3f62338cb6f5000180b697,2020-07-21_16h42.06.201,fisher_task,2020.1.3,Win32,60,0.150925926,-0.348148148,1,0,0,1.216495,scale,,,,,,0.302267034,0.244948974,0.2468,0.2,stimuli/lakes/604055_left.png,stimuli/lakes/604055_right.png,,,,0,5,5,55,1,,,,,
,,,,,,$5c3f62338cb6f5000180b697,2020-07-21_16h42.06.201,fisher_task,2020.1.3,Win32,60,-0.157407407,-0.383333333,1,0,0,1.749665,scale,,,,,,0.302267034,0.244948974,0.2468,0.2,stimuli/lakes/6080114_left.png,stimuli/lakes/6080114_right.png,,,,0,6,6,114,1,,,,,
,,,,,,$5c3f62338cb6f5000180b697,2020-07-21_16h42.06.201,fisher_task,2020.1.3,Win32,60,-0.15462963,-0.358333333,1,0,0,1.09975,scale,,,,,,0.349027907,0.282842712,0.174513954,0.141421356,stimuli/lakes/8070105_left.png,stimuli/lakes/8070105_right.png,,,,0,7,7,105,1,,,,,
,,,,,,$5c3f62338cb6f5000180b697,2020-07-21_16h42.06.201,fisher_task,2020.1.3,Win32,60,0.158333333,-0.375925926,1,0,0,0.849825,scale,,,,,,0.21373507,0.173205081,0.326485712,0.264575131,stimuli/lakes/303025_left.png,stimuli/lakes/303025_right.png,,,,0,8,8,25,1,,,,,
,,,,,,$5c3f62338cb6f5000180b697,2020-07-21_16h42.06.201,fisher_task,2020.1.3,Win32,60,0.161111111,-0.396296296,1,0,0,0.8497,scale,,,,,,0.2468,0.2,0.302267034,0.244948974,stimuli/lakes/402014_left.png,stimuli/lakes/402014_right.png,,,,0,9,9,14,1,,,,,
,,,,,,$5c3f62338cb6f5000180b697,2020-07-21_16h42.06.201,fisher_task,2020.1.3,Win32,60,0.050925926,-0.252777778,1,0,0,1.78311,scale,,,,,,0.21373507,0.173205081,0.326485712,0.264575131,stimuli/lakes/305062_left.png,stimuli/lakes/305062_right.png,,,,0,10,10,62,1,,,,,
,,,,,,$5c3f62338cb6f5000180b697,2020-07-21_16h42.06.201,fisher_task,2020.1.3,Win32,60,0.150925926,-0.407407407,1,0,0,1.549785,scale,,,,,,0.3702,0.3,0.1234,0.1,stimuli/lakes/902022_left.png,stimuli/lakes/902022_right.png,,,,0,11,11,22,1,,,,,
,,,,,,$5c3f62338cb6f5000180b697,2020-07-21_16h42.06.201,fisher_task,2020.1.3,Win32,60,0.152777778,-0.352777778,1,0,0,0.99976,scale,,,,,,0.326485712,0.264575131,0.21373507,0.173205081,stimuli/lakes/703029_left.png,stimuli/lakes/703029_right.png,,,,0,12,12,29,1,,,,,
,,,,,,$5c3f62338cb6f5000180b697,2020-07-21_16h42.06.201,fisher_task,2020.1.3,Win32,60,-0.150925926,-0.399074074,1,0,0,1.44975,scale,,,,,,0.174513954,0.141421356,0.349027907,0.282842712,stimuli/lakes/2080108_left.png,stimuli/lakes/2080108_right.png,,,,0,13,13,108,1,,,,,
,,,,,,$5c3f62338cb6f5000180b697,2020-07-21_16h42.06.201,fisher_task,2020.1.3,Win32,60,0.136111111,-0.312037037,1,0,0,1.36644,scale,,,,,,0.21373507,0.173205081,0.326485712,0.264575131,stimuli/lakes/304052_left.png,stimuli/lakes/304052_right.png,,,,0,14,14,52,1,,,,,
,,,,,,$5c3f62338cb6f5000180b697,2020-07-21_16h42.06.201,fisher_task,2020.1.3,Win32,60,-0.150925926,-0.381481481,1,0,0,1.433085,scale,,,,,,0.2468,0.2,0.302267034,0.244948974,stimuli/lakes/4080111_left.png,stimuli/lakes/4080111_right.png,,,,0,15,15,111,1,,,,,
,,,,,,$5c3f62338cb6f5000180b697,2020-07-21_16h42.06.201,fisher_task,2020.1.3,Win32,60,-0.158333333,-0.388888889,1,0,0,0.916365,scale,,,,,,0.326485712,0.264575131,0.21373507,0.173205081,stimuli/lakes/7080117_left.png,stimuli/lakes/7080117_right.png,,,,0,16,16,117,1,,,,,
,,,,,,$5c3f62338cb6f5000180b697,2020-07-21_16h42.06.201,fisher_task,2020.1.3,Win32,60,-0.12037037,-0.296296296,1,0,0,1.43315,scale,,,,,,0.275930788,0.223606798,0.275930788,0.223606798,stimuli/lakes/506084_left.png,stimuli/lakes/506084_right.png,,,,0,17,17,84,1,,,,,
,,,,,,$5c3f62338cb6f5000180b697,2020-07-21_16h42.06.201,fisher_task,2020.1.3,Win32,60,0.091666667,-0.276851852,1,0,0,1.499795,scale,,,,,,0.3702,0.3,0.1234,0.1,stimuli/lakes/904049_left.png,stimuli/lakes/904049_right.png,,,,0,18,18,49,1,,,,,
,,,,,,$5c3f62338cb6f5000180b697,2020-07-21_16h42.06.201,fisher_task,2020.1.3,Win32,60,0.146296296,-0.361111111,1,0,0,1.46642,scale,,,,,,0.349027907,0.282842712,0.174513954,0.141421356,stimuli/lakes/804057_left.png,stimuli/lakes/804057_right.png,,,,0,19,19,57,1,,,,,
,,,,,,$5c3f62338cb6f5000180b697,2020-07-21_16h42.06.201,fisher_task,2020.1.3,Win32,60,0.003703704,-0.269444444,1,0,0,1.633155,scale,,,,,,0.21373507,0.173205081,0.326485712,0.264575131,stimuli/lakes/305061_left.png,stimuli/lakes/305061_right.png,,,,0,20,20,61,1,,,,,
,,,,,,$5c3f62338cb6f5000180b697,2020-07-21_16h42.06.201,fisher_task,2020.1.3,Win32,60,0.150925926,-0.311111111,1,0,0,1.06643,scale,,,,,,0.349027907,0.282842712,0.174513954,0.141421356,stimuli/lakes/803039_left.png,stimuli/lakes/803039_right.png,,,,0,21,21,39,1,,,,,
,,,,,,$5c3f62338cb6f5000180b697,2020-07-21_16h42.06.201,fisher_task,2020.1.3,Win32,60,-0.155555556,-0.381481481,1,0,0,1.499925,scale,,,,,,0.3702,0.3,0.1234,0.1,stimuli/lakes/9070106_left.png,stimuli/lakes/9070106_right.png,,,space,0,22,22,106,1,30.33329,,,,
,,,,,,$5c3f62338cb6f5000180b697,2020-07-21_16h42.06.201,fisher_task,2020.1.3,Win32,60,0.162962963,-0.381481481,1,0,0,1.133365,scale,,,,,,0.349027907,0.282842712,0.174513954,0.141421356,stimuli/lakes/803030_left.png,stimuli/lakes/803030_right.png,,,,0,23,23,30,1,,,,,
,,,,,,$5c3f62338cb6f5000180b697,2020-07-21_16h42.06.201,fisher_task,2020.1.3,Win32,60,0.039814815,-0.263888889,1,0,0,1.066545,scale,,,,,,0.2468,0.2,0.302267034,0.244948974,stimuli/lakes/404044_left.png,stimuli/lakes/404044_right.png,,,,0,24,24,44,1,,,,,
,,,,,,$5c3f62338cb6f5000180b697,2020-07-21_16h42.06.201,fisher_task,2020.1.3,Win32,60,-0.137037037,-0.425,1,0,0,0.96647,scale,,,,,,0.326485712,0.264575131,0.21373507,0.173205081,stimuli/lakes/7080116_left.png,stimuli/lakes/7080116_right.png,,,,0,25,25,116,1,,,,,
,,,,,,$5c3f62338cb6f5000180b697,2020-07-21_16h42.06.201,fisher_task,2020.1.3,Win32,60,0.148148148,-0.388888889,1,0,0,1.133175,scale,,,,,,0.302267034,0.244948974,0.2468,0.2,stimuli/lakes/602018_left.png,stimuli/lakes/602018_right.png,,,,0,26,26,18,1,,,,,
,,,,,,$5c3f62338cb6f5000180b697,2020-07-21_16h42.06.201,fisher_task,2020.1.3,Win32,60,0.156481481,-0.317592593,1,0,0,1.166535,scale,,,,,,0.302267034,0.244948974,0.2468,0.2,stimuli/lakes/603028_left.png,stimuli/lakes/603028_right.png,,,,0,27,27,28,1,,,,,
,,,,,,$5c3f62338cb6f5000180b697,2020-07-21_16h42.06.201,fisher_task,2020.1.3,Win32,60,-0.149074074,-0.430555556,1,0,0,1.0165,scale,,,,,,0.326485712,0.264575131,0.21373507,0.173205081,stimuli/lakes/7090129_left.png,stimuli/lakes/7090129_right.png,,,,0,28,28,129,1,,,,,
,,,,,,$5c3f62338cb6f5000180b697,2020-07-21_16h42.06.201,fisher_task,2020.1.3,Win32,60,0.162962963,-0.422222222,1,0,0,0.932775,scale,,,,,,0.21373507,0.173205081,0.326485712,0.264575131,stimuli/lakes/30101_left.png,stimuli/lakes/30101_right.png,,,,0,29,29,1,1,,,,,
,,,,,,$5c3f62338cb6f5000180b697,2020-07-21_16h42.06.201,fisher_task,2020.1.3,Win32,60,-0.156481481,-0.406481481,1,0,0,1.149505,scale,,,,,,0.1234,0.1,0.3702,0.3,stimuli/lakes/1080107_left.png,stimuli/lakes/1080107_right.png,,,,0,30,30,107,1,,,,,
,,,,,,$5c3f62338cb6f5000180b697,2020-07-21_16h42.06.201,fisher_task,2020.1.3,Win32,60,0.147222222,-0.359259259,1,0,0,1.133105,scale,,,,,,0.275930788,0.223606798,0.275930788,0.223606798,stimuli/lakes/503027_left.png,stimuli/lakes/503027_right.png,,,,0,31,31,27,1,,,,,
,,,,,,$5c3f62338cb6f5000180b697,2020-07-21_16h42.06.201,fisher_task,2020.1.3,Win32,60,-0.171296296,-0.402777778,1,0,0,0.883195,scale,,,,,,0.302267034,0.244948974,0.2468,0.2,stimuli/lakes/6080115_left.png,stimuli/lakes/6080115_right.png,,,,0,32,32,115,1,,,,,
,,,,,,$5c3f62338cb6f5000180b697,2020-07-21_16h42.06.201,fisher_task,2020.1.3,Win32,60,-0.158333333,-0.375925926,1,0,0,0.633215,scale,,,,,,0.302267034,0.244948974,0.2468,0.2,stimuli/lakes/6070103_left.png,stimuli/lakes/6070103_right.png,,,,0,33,33,103,1,,,,,
,,,,,,$5c3f62338cb6f5000180b697,2020-07-21_16h42.06.201,fisher_task,2020.1.3,Win32,60,0.151851852,-0.333333333,1,0,0,1.099855,scale,,,,,,0.349027907,0.282842712,0.174513954,0.141421356,stimuli/lakes/802021_left.png,stimuli/lakes/802021_right.png,,,,0,34,34,21,1,,,,,
,,,,,,$5c3f62338cb6f5000180b697,2020-07-21_16h42.06.201,fisher_task,2020.1.3,Win32,60,-0.138888889,-0.427777778,1,0,0,0.933075,scale,,,,,,0.2468,0.2,0.302267034,0.244948974,stimuli/lakes/4090124_left.png,stimuli/lakes/4090124_right.png,,,,0,35,35,124,1,,,,,
,,,,,,$5c3f62338cb6f5000180b697,2020-07-21_16h42.06.201,fisher_task,2020.1.3,Win32,60,0.165740741,-0.355555556,1,0,0,1.483145,scale,,,,,,0.302267034,0.244948974,0.2468,0.2,stimuli/lakes/603037_left.png,stimuli/lakes/603037_right.png,,,,0,36,36,37,1,,,,,
,,,,,,$5c3f62338cb6f5000180b697,2020-07-21_16h42.06.201,fisher_task,2020.1.3,Win32,60,-0.006481481,-0.263888889,1,0,0,1.26643,scale,,,,,,0.302267034,0.244948974,0.2468,0.2,stimuli/lakes/605066_left.png,stimuli/lakes/605066_right.png,,,,0,37,37,66,1,,,,,
,,,,,,$5c3f62338cb6f5000180b697,2020-07-21_16h42.06.201,fisher_task,2020.1.3,Win32,60,0.012962963,-0.233333333,1,0,0,1.249785,scale,,,,,,0.3702,0.3,0.1234,0.1,stimuli/lakes/905070_left.png,stimuli/lakes/905070_right.png,,,,0,38,38,70,1,,,,,
,,,,,,$5c3f62338cb6f5000180b697,2020-07-21_16h42.06.201,fisher_task,2020.1.3,Win32,60,-0.075,-0.267592593,1,0,0,1.832955,scale,,,,,,0.1234,0.1,0.3702,0.3,stimuli/lakes/106071_left.png,stimuli/lakes/106071_right.png,,,,0,39,39,71,1,,,,,
,,,,,,$5c3f62338cb6f5000180b697,2020-07-21_16h42.06.201,fisher_task,2020.1.3,Win32,60,0.162962963,-0.413888889,1,0,0,4.649765,scale,,,,,,0.21373507,0.173205081,0.326485712,0.264575131,stimuli/lakes/30100_left.png,stimuli/lakes/30100_right.png,,,,0,40,40,0,1,,,,,
,,,,,,$5c3f62338cb6f5000180b697,2020-07-21_16h42.06.201,fisher_task,2020.1.3,Win32,60,0.152777778,-0.411111111,1,0,0,0.93305,scale,,,,,,0.326485712,0.264575131,0.21373507,0.173205081,stimuli/lakes/702019_left.png,stimuli/lakes/702019_right.png,,,,0,41,41,19,1,,,,,
,,,,,,$5c3f62338cb6f5000180b697,2020-07-21_16h42.06.201,fisher_task,2020.1.3,Win32,60,0.008333333,-0.271296296,1,0,0,1.016395,scale,,,,,,0.275930788,0.223606798,0.275930788,0.223606798,stimuli/lakes/506075_left.png,stimuli/lakes/506075_right.png,,,,0,42,42,75,1,,,,,
,,,,,,$5c3f62338cb6f5000180b697,2020-07-21_16h42.06.201,fisher_task,2020.1.3,Win32,60,0.160185185,-0.4,1,0,0,1.03318,scale,,,,,,0.2468,0.2,0.302267034,0.244948974,stimuli/lakes/402015_left.png,stimuli/lakes/402015_right.png,,,,0,43,43,15,1,,,,,
,,,,,,$5c3f62338cb6f5000180b697,2020-07-21_16h42.06.201,fisher_task,2020.1.3,Win32,60,-0.130555556,-0.359259259,1,0,0,1.36637,scale,,,,,,0.1234,0.1,0.3702,0.3,stimuli/lakes/107089_left.png,stimuli/lakes/107089_right.png,,,space,0,44,44,89,1,2.378085,,,,
,,,,,,$5c3f62338cb6f5000180b697,2020-07-21_16h42.06.201,fisher_task,2020.1.3,Win32,60,-0.007407407,-0.257407407,1,0,0,1.149795,scale,,,,,,0.2468,0.2,0.302267034,0.244948974,stimuli/lakes/406083_left.png,stimuli/lakes/406083_right.png,,,,0,45,45,83,1,,,,,
,,,,,,$5c3f62338cb6f5000180b697,2020-07-21_16h42.06.201,fisher_task,2020.1.3,Win32,60,0.107407407,-0.338888889,1,0,0,0.799825,scale,,,,,,0.1234,0.1,0.3702,0.3,stimuli/lakes/104041_left.png,stimuli/lakes/104041_right.png,,,,0,46,46,41,1,,,,,
,,,,,,$5c3f62338cb6f5000180b697,2020-07-21_16h42.06.201,fisher_task,2020.1.3,Win32,60,-0.132407407,-0.357407407,1,0,0,1.04987,scale,,,,,,0.174513954,0.141421356,0.349027907,0.282842712,stimuli/lakes/207099_left.png,stimuli/lakes/207099_right.png,,,,0,47,47,99,1,,,,,
,,,,,,$5c3f62338cb6f5000180b697,2020-07-21_16h42.06.201,fisher_task,2020.1.3,Win32,60,-0.02962963,-0.250925926,1,0,0,1.233175,scale,,,,,,0.349027907,0.282842712,0.174513954,0.141421356,stimuli/lakes/806078_left.png,stimuli/lakes/806078_right.png,,,,0,48,48,78,1,,,,,
,,,,,,$5c3f62338cb6f5000180b697,2020-07-21_16h42.06.201,fisher_task,2020.1.3,Win32,60,0.147222222,-0.37037037,1,0,0,1.18311,scale,,,,,,0.3702,0.3,0.1234,0.1,stimuli/lakes/903040_left.png,stimuli/lakes/903040_right.png,,,,0,49,49,40,1,,,,,
,,,,,,$5c3f62338cb6f5000180b697,2020-07-21_16h42.06.201,fisher_task,2020.1.3,Win32,60,0.158333333,-0.396296296,1,0,0,0.999835,scale,,,,,,0.21373507,0.173205081,0.326485712,0.264575131,stimuli/lakes/302012_left.png,stimuli/lakes/302012_right.png,,,,0,50,50,12,1,,,,,
,,,,,,$5c3f62338cb6f5000180b697,2020-07-21_16h42.06.201,fisher_task,2020.1.3,Win32,60,0.112037037,-0.30462963,1,0,0,1.16582,scale,,,,,,0.326485712,0.264575131,0.21373507,0.173205081,stimuli/lakes/704047_left.png,stimuli/lakes/704047_right.png,,,,0,51,51,47,1,,,,,
,,,,,,$5c3f62338cb6f5000180b697,2020-07-21_16h42.06.201,fisher_task,2020.1.3,Win32,60,0.134259259,-0.336111111,1,0,0,0.96609,scale,,,,,,0.302267034,0.244948974,0.2468,0.2,stimuli/lakes/604046_left.png,stimuli/lakes/604046_right.png,,,,0,52,52,46,1,,,,,
,,,,,,$5c3f62338cb6f5000180b697,2020-07-21_16h42.06.201,fisher_task,2020.1.3,Win32,60,0.034259259,-0.248148148,1,0,0,0.98317,scale,,,,,,0.349027907,0.282842712,0.174513954,0.141421356,stimuli/lakes/805069_left.png,stimuli/lakes/805069_right.png,,,,0,53,53,69,1,,,,,
,,,,,,$5c3f62338cb6f5000180b697,2020-07-21_16h42.06.201,fisher_task,2020.1.3,Win32,60,0.141666667,-0.419444444,1,0,0,1.21648,scale,,,,,,0.326485712,0.264575131,0.21373507,0.173205081,stimuli/lakes/70108_left.png,stimuli/lakes/70108_right.png,,,,0,54,54,8,1,,,,,
,,,,,,$5c3f62338cb6f5000180b697,2020-07-21_16h42.06.201,fisher_task,2020.1.3,Win32,60,0.121296296,-0.322222222,1,0,0,1.59978,scale,,,,,,0.3702,0.3,0.1234,0.1,stimuli/lakes/904058_left.png,stimuli/lakes/904058_right.png,,,,0,55,55,58,1,,,,,
,,,,,,$5c3f62338cb6f5000180b697,2020-07-21_16h42.06.201,fisher_task,2020.1.3,Win32,60,0.008333333,-0.243518519,1,0,0,1.616495,scale,,,,,,0.326485712,0.264575131,0.21373507,0.173205081,stimuli/lakes/705067_left.png,stimuli/lakes/705067_right.png,,,,0,56,56,67,1,,,,,
,,,,,,$5c3f62338cb6f5000180b697,2020-07-21_16h42.06.201,fisher_task,2020.1.3,Win32,60,-0.142592593,-0.362037037,1,0,0,1.31652,scale,,,,,,0.275930788,0.223606798,0.275930788,0.223606798,stimuli/lakes/507093_left.png,stimuli/lakes/507093_right.png,,,,0,57,57,93,1,,,,,
,,,,,,$5c3f62338cb6f5000180b697,2020-07-21_16h42.06.201,fisher_task,2020.1.3,Win32,60,-0.162962963,-0.400925926,1,0,0,1.049765,scale,,,,,,0.2468,0.2,0.302267034,0.244948974,stimuli/lakes/4070101_left.png,stimuli/lakes/4070101_right.png,,,,0,58,58,101,1,,,,,
,,,,,,$5c3f62338cb6f5000180b697,2020-07-21_16h42.06.201,fisher_task,2020.1.3,Win32,60,0.15462963,-0.406481481,1,0,0,1.066555,scale,,,,,,0.349027907,0.282842712,0.174513954,0.141421356,stimuli/lakes/80109_left.png,stimuli/lakes/80109_right.png,,,,0,59,59,9,1,,,,,
,,,,,,$5c3f62338cb6f5000180b697,2020-07-21_16h42.06.201,fisher_task,2020.1.3,Win32,60,-0.107407407,-0.299074074,1,0,0,1.93303,scale,,,,,,0.3702,0.3,0.1234,0.1,stimuli/lakes/906088_left.png,stimuli/lakes/906088_right.png,,,,0,60,60,88,1,,,,,
,,,,,,$5c3f62338cb6f5000180b697,2020-07-21_16h42.06.201,fisher_task,2020.1.3,Win32,60,-0.163888889,-0.425,1,0,0,1.09953,scale,,,,,,0.174513954,0.141421356,0.349027907,0.282842712,stimuli/lakes/2090120_left.png,stimuli/lakes/2090120_right.png,,,,0,61,61,120,1,,,,,
,,,,,,$5c3f62338cb6f5000180b697,2020-07-21_16h42.06.201,fisher_task,2020.1.3,Win32,60,-0.12962963,-0.419444444,1,0,0,1.01622,scale,,,,,,0.21373507,0.173205081,0.326485712,0.264575131,stimuli/lakes/3080110_left.png,stimuli/lakes/3080110_right.png,,,,0,62,62,110,1,,,,,
,,,,,,$5c3f62338cb6f5000180b697,2020-07-21_16h42.06.201,fisher_task,2020.1.3,Win32,60,-0.162037037,-0.425925926,1,0,0,1.049875,scale,,,,,,0.21373507,0.173205081,0.326485712,0.264575131,stimuli/lakes/3080109_left.png,stimuli/lakes/3080109_right.png,,,,0,63,63,109,1,,,,,
,,,,,,$5c3f62338cb6f5000180b697,2020-07-21_16h42.06.201,fisher_task,2020.1.3,Win32,60,-0.149074074,-0.421296296,1,0,0,0.833035,scale,,,,,,0.326485712,0.264575131,0.21373507,0.173205081,stimuli/lakes/7090128_left.png,stimuli/lakes/7090128_right.png,,,,0,64,64,128,1,,,,,
,,,,,,$5c3f62338cb6f5000180b697,2020-07-21_16h42.06.201,fisher_task,2020.1.3,Win32,60,-0.147222222,-0.42037037,1,0,0,0.633185,scale,,,,,,0.2468,0.2,0.302267034,0.244948974,stimuli/lakes/4090123_left.png,stimuli/lakes/4090123_right.png,,,,0,65,65,123,1,,,,,
,,,,,,$5c3f62338cb6f5000180b697,2020-07-21_16h42.06.201,fisher_task,2020.1.3,Win32,60,0.000925926,-0.246296296,1,0,0,1.149795,scale,,,,,,0.326485712,0.264575131,0.21373507,0.173205081,stimuli/lakes/705068_left.png,stimuli/lakes/705068_right.png,,,space,0,66,66,68,1,4.379475,,,,
,,,,,,$5c3f62338cb6f5000180b697,2020-07-21_16h42.06.201,fisher_task,2020.1.3,Win32,60,0.156481481,-0.401851852,1,0,0,0.816505,scale,,,,,,0.3702,0.3,0.1234,0.1,stimuli/lakes/901010_left.png,stimuli/lakes/901010_right.png,,,,0,67,67,10,1,,,,,
,,,,,,$5c3f62338cb6f5000180b697,2020-07-21_16h42.06.201,fisher_task,2020.1.3,Win32,60,-0.116666667,-0.298148148,1,0,0,1.26646,scale,,,,,,0.174513954,0.141421356,0.349027907,0.282842712,stimuli/lakes/207090_left.png,stimuli/lakes/207090_right.png,,,,0,68,68,90,1,,,,,
,,,,,,$5c3f62338cb6f5000180b697,2020-07-21_16h42.06.201,fisher_task,2020.1.3,Win32,60,0.148148148,-0.414814815,1,0,0,0.88312,scale,,,,,,0.2468,0.2,0.302267034,0.244948974,stimuli/lakes/40102_left.png,stimuli/lakes/40102_right.png,,,,0,69,69,2,1,,,,,
,,,,,,$5c3f62338cb6f5000180b697,2020-07-21_16h42.06.201,fisher_task,2020.1.3,Win32,60,-0.132407407,-0.307407407,1,0,0,1.649765,scale,,,,,,0.275930788,0.223606798,0.275930788,0.223606798,stimuli/lakes/5070102_left.png,stimuli/lakes/5070102_right.png,,,,0,70,70,102,1,,,,,
,,,,,,$5c3f62338cb6f5000180b697,2020-07-21_16h42.06.201,fisher_task,2020.1.3,Win32,60,0.147222222,-0.360185185,1,0,0,1.04978,scale,,,,,,0.174513954,0.141421356,0.349027907,0.282842712,stimuli/lakes/203033_left.png,stimuli/lakes/203033_right.png,,,,0,71,71,33,1,,,,,
,,,,,,$5c3f62338cb6f5000180b697,2020-07-21_16h42.06.201,fisher_task,2020.1.3,Win32,60,0.155555556,-0.371296296,1,0,0,1.41652,scale,,,,,,0.174513954,0.141421356,0.349027907,0.282842712,stimuli/lakes/204051_left.png,stimuli/lakes/204051_right.png,,,,0,72,72,51,1,,,,,
,,,,,,$5c3f62338cb6f5000180b697,2020-07-21_16h42.06.201,fisher_task,2020.1.3,Win32,60,-0.15,-0.419444444,1,0,0,1.249825,scale,,,,,,0.302267034,0.244948974,0.2468,0.2,stimuli/lakes/6090127_left.png,stimuli/lakes/6090127_right.png,,,,0,73,73,127,1,,,,,
,,,,,,$5c3f62338cb6f5000180b697,2020-07-21_16h42.06.201,fisher_task,2020.1.3,Win32,60,0.171296296,-0.392592593,1,0,0,0.982895,scale,,,,,,0.275930788,0.223606798,0.275930788,0.223606798,stimuli/lakes/502016_left.png,stimuli/lakes/502016_right.png,,,,0,74,74,16,1,,,,,
,,,,,,$5c3f62338cb6f5000180b697,2020-07-21_16h42.06.201,fisher_task,2020.1.3,Win32,60,0.137962963,-0.341666667,1,0,0,1.39974,scale,,,,,,0.21373507,0.173205081,0.326485712,0.264575131,stimuli/lakes/304043_left.png,stimuli/lakes/304043_right.png,,,,0,75,75,43,1,,,,,
,,,,,,$5c3f62338cb6f5000180b697,2020-07-21_16h42.06.201,fisher_task,2020.1.3,Win32,60,0.168518519,-0.402777778,1,0,0,1.08318,scale,,,,,,0.326485712,0.264575131,0.21373507,0.173205081,stimuli/lakes/702020_left.png,stimuli/lakes/702020_right.png,,,,0,76,76,20,1,,,,,
,,,,,,$5c3f62338cb6f5000180b697,2020-07-21_16h42.06.201,fisher_task,2020.1.3,Win32,60,-0.100925926,-0.277777778,1,0,0,1.199535,scale,,,,,,0.302267034,0.244948974,0.2468,0.2,stimuli/lakes/606085_left.png,stimuli/lakes/606085_right.png,,,,0,77,77,85,1,,,,,
,,,,,,$5c3f62338cb6f5000180b697,2020-07-21_16h42.06.201,fisher_task,2020.1.3,Win32,60,0.002777778,-0.268518519,1,0,0,1.066435,scale,,,,,,0.2468,0.2,0.302267034,0.244948974,stimuli/lakes/405064_left.png,stimuli/lakes/405064_right.png,,,,0,78,78,64,1,,,,,
,,,,,,$5c3f62338cb6f5000180b697,2020-07-21_16h42.06.201,fisher_task,2020.1.3,Win32,60,-0.164814815,-0.366666667,1,0,0,1.14962,scale,,,,,,0.326485712,0.264575131,0.21373507,0.173205081,stimuli/lakes/707095_left.png,stimuli/lakes/707095_right.png,,,,0,79,79,95,1,,,,,
,,,,,,$5c3f62338cb6f5000180b697,2020-07-21_16h42.06.201,fisher_task,2020.1.3,Win32,60,0.161111111,-0.428703704,1,0,0,0.883115,scale,,,,,,0.21373507,0.173205081,0.326485712,0.264575131,stimuli/lakes/302013_left.png,stimuli/lakes/302013_right.png,,,,0,80,80,13,1,,,,,
,,,,,,$5c3f62338cb6f5000180b697,2020-07-21_16h42.06.201,fisher_task,2020.1.3,Win32,60,-0.138888889,-0.426851852,1,0,0,0.916385,scale,,,,,,0.21373507,0.173205081,0.326485712,0.264575131,stimuli/lakes/3090122_left.png,stimuli/lakes/3090122_right.png,,,,0,81,81,122,1,,,,,
,,,,,,$5c3f62338cb6f5000180b697,2020-07-21_16h42.06.201,fisher_task,2020.1.3,Win32,60,0.146296296,-0.336111111,1,0,0,1.133135,scale,,,,,,0.2468,0.2,0.302267034,0.244948974,stimuli/lakes/403035_left.png,stimuli/lakes/403035_right.png,,,,0,82,82,35,1,,,,,
,,,,,,$5c3f62338cb6f5000180b697,2020-07-21_16h42.06.201,fisher_task,2020.1.3,Win32,60,0.132407407,-0.317592593,1,0,0,1.649825,scale,,,,,,0.275930788,0.223606798,0.275930788,0.223606798,stimuli/lakes/504054_left.png,stimuli/lakes/504054_right.png,,,,0,83,83,54,1,,,,,
,,,,,,$5c3f62338cb6f5000180b697,2020-07-21_16h42.06.201,fisher_task,2020.1.3,Win32,60,-0.146296296,-0.344444444,1,0,0,0.966125,scale,,,,,,0.326485712,0.264575131,0.21373507,0.173205081,stimuli/lakes/7070104_left.png,stimuli/lakes/7070104_right.png,,,,0,84,84,104,1,,,,,
,,,,,,$5c3f62338cb6f5000180b697,2020-07-21_16h42.06.201,fisher_task,2020.1.3,Win32,60,0.142592593,-0.412037037,1,0,0,0.983135,scale,,,,,,0.326485712,0.264575131,0.21373507,0.173205081,stimuli/lakes/70107_left.png,stimuli/lakes/70107_right.png,,,,0,85,85,7,1,,,,,
,,,,,,$5c3f62338cb6f5000180b697,2020-07-21_16h42.06.201,fisher_task,2020.1.3,Win32,60,-0.143518519,-0.424074074,1,0,0,1.04982,scale,,,,,,0.302267034,0.244948974,0.2468,0.2,stimuli/lakes/6090126_left.png,stimuli/lakes/6090126_right.png,,,,0,86,86,126,1,,,,,
,,,,,,$5c3f62338cb6f5000180b697,2020-07-21_16h42.06.201,fisher_task,2020.1.3,Win32,60,0.15462963,-0.376851852,1,0,0,1.09983,scale,,,,,,0.21373507,0.173205081,0.326485712,0.264575131,stimuli/lakes/303034_left.png,stimuli/lakes/303034_right.png,,,,0,87,87,34,1,,,,,
,,,,,,$5c3f62338cb6f5000180b697,2020-07-21_16h42.06.201,fisher_task,2020.1.3,Win32,60,-0.121296296,-0.312037037,1,0,0,1.099765,scale,,,,,,0.21373507,0.173205081,0.326485712,0.264575131,stimuli/lakes/3070100_left.png,stimuli/lakes/3070100_right.png,,,space,0,88,88,100,1,2.05516,,,,
,,,,,,$5c3f62338cb6f5000180b697,2020-07-21_16h42.06.201,fisher_task,2020.1.3,Win32,60,0.110185185,-0.326851852,1,0,0,0.86615,scale,,,,,,0.326485712,0.264575131,0.21373507,0.173205081,stimuli/lakes/703038_left.png,stimuli/lakes/703038_right.png,,,,0,89,89,38,1,,,,,
,,,,,,$5c3f62338cb6f5000180b697,2020-07-21_16h42.06.201,fisher_task,2020.1.3,Win32,60,0.161111111,-0.424074074,1,0,0,5.233105,scale,,,,,,0.302267034,0.244948974,0.2468,0.2,stimuli/lakes/60106_left.png,stimuli/lakes/60106_right.png,,,,0,90,90,6,1,,,,,
,,,,,,$5c3f62338cb6f5000180b697,2020-07-21_16h42.06.201,fisher_task,2020.1.3,Win32,60,-0.119444444,-0.326851852,1,0,0,1.549855,scale,,,,,,0.21373507,0.173205081,0.326485712,0.264575131,stimuli/lakes/307091_left.png,stimuli/lakes/307091_right.png,,,,0,91,91,91,1,,,,,
,,,,,,$5c3f62338cb6f5000180b697,2020-07-21_16h42.06.201,fisher_task,2020.1.3,Win32,60,0.074074074,-0.3,1,0,0,1.349735,scale,,,,,,0.2468,0.2,0.302267034,0.244948974,stimuli/lakes/404053_left.png,stimuli/lakes/404053_right.png,,,,0,92,92,53,1,,,,,
,,,,,,$5c3f62338cb6f5000180b697,2020-07-21_16h42.06.201,fisher_task,2020.1.3,Win32,60,-0.076851852,-0.282407407,1,0,0,1.13317,scale,,,,,,0.21373507,0.173205081,0.326485712,0.264575131,stimuli/lakes/306073_left.png,stimuli/lakes/306073_right.png,,,,0,93,93,73,1,,,,,
,,,,,,$5c3f62338cb6f5000180b697,2020-07-21_16h42.06.201,fisher_task,2020.1.3,Win32,60,0.136111111,-0.343518519,1,0,0,1.265925,scale,,,,,,0.1234,0.1,0.3702,0.3,stimuli/lakes/103023_left.png,stimuli/lakes/103023_right.png,,,,0,94,94,23,1,,,,,
,,,,,,$5c3f62338cb6f5000180b697,2020-07-21_16h42.06.201,fisher_task,2020.1.3,Win32,60,0.118518519,-0.298148148,1,0,0,1.716455,scale,,,,,,0.302267034,0.244948974,0.2468,0.2,stimuli/lakes/602017_left.png,stimuli/lakes/602017_right.png,,,,0,95,95,17,1,,,,,
,,,,,,$5c3f62338cb6f5000180b697,2020-07-21_16h42.06.201,fisher_task,2020.1.3,Win32,60,-0.148148148,-0.401851852,1,0,0,0.98312,scale,,,,,,0.2468,0.2,0.302267034,0.244948974,stimuli/lakes/4080112_left.png,stimuli/lakes/4080112_right.png,,,,0,96,96,112,1,,,,,
,,,,,,$5c3f62338cb6f5000180b697,2020-07-21_16h42.06.201,fisher_task,2020.1.3,Win32,60,-0.14537037,-0.368518519,1,0,0,0.916295,scale,,,,,,0.302267034,0.244948974,0.2468,0.2,stimuli/lakes/606076_left.png,stimuli/lakes/606076_right.png,,,,0,97,97,76,1,,,,,
,,,,,,$5c3f62338cb6f5000180b697,2020-07-21_16h42.06.201,fisher_task,2020.1.3,Win32,60,-0.174074074,-0.416666667,1,0,0,1.033015,scale,,,,,,0.1234,0.1,0.3702,0.3,stimuli/lakes/1090119_left.png,stimuli/lakes/1090119_right.png,,,,0,98,98,119,1,,,,,
,,,,,,$5c3f62338cb6f5000180b697,2020-07-21_16h42.06.201,fisher_task,2020.1.3,Win32,60,-0.152777778,-0.355555556,1,0,0,1.53283,scale,,,,,,0.349027907,0.282842712,0.174513954,0.141421356,stimuli/lakes/806087_left.png,stimuli/lakes/806087_right.png,,,,0,99,99,87,1,,,,,
,,,,,,$5c3f62338cb6f5000180b697,2020-07-21_16h42.06.201,fisher_task,2020.1.3,Win32,60,-0.149074074,-0.339814815,1,0,0,0.96642,scale,,,,,,0.3702,0.3,0.1234,0.1,stimuli/lakes/906079_left.png,stimuli/lakes/906079_right.png,,,,0,100,100,79,1,,,,,
,,,,,,$5c3f62338cb6f5000180b697,2020-07-21_16h42.06.201,fisher_task,2020.1.3,Win32,60,-0.169444444,-0.392592593,1,0,0,0.91661,scale,,,,,,0.349027907,0.282842712,0.174513954,0.141421356,stimuli/lakes/8080118_left.png,stimuli/lakes/8080118_right.png,,,,0,101,101,118,1,,,,,
,,,,,,$5c3f62338cb6f5000180b697,2020-07-21_16h42.06.201,fisher_task,2020.1.3,Win32,60,0.15,-0.381481481,1,0,0,0.883155,scale,,,,,,0.1234,0.1,0.3702,0.3,stimuli/lakes/103032_left.png,stimuli/lakes/103032_right.png,,,,0,102,102,32,1,,,,,
,,,,,,$5c3f62338cb6f5000180b697,2020-07-21_16h42.06.201,fisher_task,2020.1.3,Win32,60,-0.152777778,-0.416666667,1,0,0,0.999825,scale,,,,,,0.275930788,0.223606798,0.275930788,0.223606798,stimuli/lakes/5080113_left.png,stimuli/lakes/5080113_right.png,,,,0,103,103,113,1,,,,,
,,,,,,$5c3f62338cb6f5000180b697,2020-07-21_16h42.06.201,fisher_task,2020.1.3,Win32,60,0.162962963,-0.399074074,1,0,0,1.43317,scale,,,,,,0.1234,0.1,0.3702,0.3,stimuli/lakes/104050_left.png,stimuli/lakes/104050_right.png,,,,0,104,104,50,1,,,,,
,,,,,,$5c3f62338cb6f5000180b697,2020-07-21_16h42.06.201,fisher_task,2020.1.3,Win32,60,0.028703704,-0.259259259,1,0,0,1.716205,scale,,,,,,0.349027907,0.282842712,0.174513954,0.141421356,stimuli/lakes/804048_left.png,stimuli/lakes/804048_right.png,,,,0,105,105,48,1,,,,,
,,,,,,$5c3f62338cb6f5000180b697,2020-07-21_16h42.06.201,fisher_task,2020.1.3,Win32,60,-0.14537037,-0.369444444,1,0,0,0.866445,scale,,,,,,0.3702,0.3,0.1234,0.1,stimuli/lakes/907097_left.png,stimuli/lakes/907097_right.png,,,,0,106,106,97,1,,,,,
,,,,,,$5c3f62338cb6f5000180b697,2020-07-21_16h42.06.201,fisher_task,2020.1.3,Win32,60,0.001851852,-0.257407407,1,0,0,1.89831,scale,,,,,,0.302267034,0.244948974,0.2468,0.2,stimuli/lakes/605065_left.png,stimuli/lakes/605065_right.png,,,,0,107,107,65,1,,,,,
,,,,,,$5c3f62338cb6f5000180b697,2020-07-21_16h42.06.201,fisher_task,2020.1.3,Win32,60,0.14537037,-0.343518519,1,0,0,1.03324,scale,,,,,,0.3702,0.3,0.1234,0.1,stimuli/lakes/903031_left.png,stimuli/lakes/903031_right.png,,,,0,108,108,31,1,,,,,
,,,,,,$5c3f62338cb6f5000180b697,2020-07-21_16h42.06.201,fisher_task,2020.1.3,Win32,60,-0.105555556,-0.287962963,1,0,0,1.51618,scale,,,,,,0.21373507,0.173205081,0.326485712,0.264575131,stimuli/lakes/306082_left.png,stimuli/lakes/306082_right.png,,,,0,109,109,82,1,,,,,
,,,,,,$5c3f62338cb6f5000180b697,2020-07-21_16h42.06.201,fisher_task,2020.1.3,Win32,60,-0.151851852,-0.427777778,1,0,0,0.982835,scale,,,,,,0.21373507,0.173205081,0.326485712,0.264575131,stimuli/lakes/3090121_left.png,stimuli/lakes/3090121_right.png,,,space,0,110,110,121,1,2.122105,,,,
,,,,,,$5c3f62338cb6f5000180b697,2020-07-21_16h42.06.201,fisher_task,2020.1.3,Win32,60,0.134259259,-0.374074074,1,0,0,0.94983,scale,,,,,,0.174513954,0.141421356,0.349027907,0.282842712,stimuli/lakes/203024_left.png,stimuli/lakes/203024_right.png,,,,0,111,111,24,1,,,,,
,,,,,,$5c3f62338cb6f5000180b697,2020-07-21_16h42.06.201,fisher_task,2020.1.3,Win32,60,-0.112962963,-0.344444444,1,0,0,0.86621,scale,,,,,,0.326485712,0.264575131,0.21373507,0.173205081,stimuli/lakes/706086_left.png,stimuli/lakes/706086_right.png,,,,0,112,112,86,1,,,,,
,,,,,,$5c3f62338cb6f5000180b697,2020-07-21_16h42.06.201,fisher_task,2020.1.3,Win32,60,0.1,-0.287962963,1,0,0,1.066715,scale,,,,,,0.174513954,0.141421356,0.349027907,0.282842712,stimuli/lakes/204042_left.png,stimuli/lakes/204042_right.png,,,,0,113,113,42,1,,,,,
,,,,,,$5c3f62338cb6f5000180b697,2020-07-21_16h42.06.201,fisher_task,2020.1.3,Win32,60,-0.151851852,-0.432407407,1,0,0,1.0331,scale,,,,,,0.275930788,0.223606798,0.275930788,0.223606798,stimuli/lakes/5090125_left.png,stimuli/lakes/5090125_right.png,,,,0,114,114,125,1,,,,,
,,,,,,$5c3f62338cb6f5000180b697,2020-07-21_16h42.06.201,fisher_task,2020.1.3,Win32,60,-0.142592593,-0.310185185,1,0,0,1.148915,scale,,,,,,0.174513954,0.141421356,0.349027907,0.282842712,stimuli/lakes/206072_left.png,stimuli/lakes/206072_right.png,,,,0,115,115,72,1,,,,,
,,,,,,$5c3f62338cb6f5000180b697,2020-07-21_16h42.06.201,fisher_task,2020.1.3,Win32,60,-0.091666667,-0.267592593,1,0,0,1.183235,scale,,,,,,0.2468,0.2,0.302267034,0.244948974,stimuli/lakes/407092_left.png,stimuli/lakes/407092_right.png,,,,0,116,116,92,1,,,,,
,,,,,,$5c3f62338cb6f5000180b697,2020-07-21_16h42.06.201,fisher_task,2020.1.3,Win32,60,-0.10462963,-0.296296296,1,0,0,1.364795,scale,,,,,,0.1234,0.1,0.3702,0.3,stimuli/lakes/106080_left.png,stimuli/lakes/106080_right.png,,,,0,117,117,80,1,,,,,
,,,,,,$5c3f62338cb6f5000180b697,2020-07-21_16h42.06.201,fisher_task,2020.1.3,Win32,60,-0.113888889,-0.332407407,1,0,0,0.949735,scale,,,,,,0.326485712,0.264575131,0.21373507,0.173205081,stimuli/lakes/706077_left.png,stimuli/lakes/706077_right.png,,,,0,118,118,77,1,,,,,
,,,,,,$5c3f62338cb6f5000180b697,2020-07-21_16h42.06.201,fisher_task,2020.1.3,Win32,60,0.15,-0.417592593,1,0,0,1.431935,scale,,,,,,0.2468,0.2,0.302267034,0.244948974,stimuli/lakes/40103_left.png,stimuli/lakes/40103_right.png,,,,0,119,119,3,1,,,,,
,,,,,,$5c3f62338cb6f5000180b697,2020-07-21_16h42.06.201,fisher_task,2020.1.3,Win32,60,-0.074074074,-0.287962963,1,0,0,2.099575,scale,,,,,,0.174513954,0.141421356,0.349027907,0.282842712,stimuli/lakes/206081_left.png,stimuli/lakes/206081_right.png,,,,0,120,120,81,1,,,,,
,,,,,,$5c3f62338cb6f5000180b697,2020-07-21_16h42.06.201,fisher_task,2020.1.3,Win32,60,0.122222222,-0.314814815,1,0,0,1.133105,scale,,,,,,0.275930788,0.223606798,0.275930788,0.223606798,stimuli/lakes/504045_left.png,stimuli/lakes/504045_right.png,,,,0,121,121,45,1,,,,,
,,,,,,$5c3f62338cb6f5000180b697,2020-07-21_16h42.06.201,fisher_task,2020.1.3,Win32,60,0.171296296,-0.400925926,1,0,0,1.14985,scale,,,,,,0.275930788,0.223606798,0.275930788,0.223606798,stimuli/lakes/50104_left.png,stimuli/lakes/50104_right.png,,,,0,122,122,4,1,,,,,
,,,,,,$5c3f62338cb6f5000180b697,2020-07-21_16h42.06.201,fisher_task,2020.1.3,Win32,60,0.097222222,-0.275,1,0,0,1.81647,scale,,,,,,0.174513954,0.141421356,0.349027907,0.282842712,stimuli/lakes/205060_left.png,stimuli/lakes/205060_right.png,,,,0,123,123,60,1,,,,,
,,,,,,$5c3f62338cb6f5000180b697,2020-07-21_16h42.06.201,fisher_task,2020.1.3,Win32,60,0,-0.259259259,1,0,0,1.81654,scale,,,,,,0.2468,0.2,0.302267034,0.244948974,stimuli/lakes/405063_left.png,stimuli/lakes/405063_right.png,,,,0,124,124,63,1,,,,,
,,,,,,$5c3f62338cb6f5000180b697,2020-07-21_16h42.06.201,fisher_task,2020.1.3,Win32,60,-0.138888889,-0.343518519,1,0,0,1.283145,scale,,,,,,0.1234,0.1,0.3702,0.3,stimuli/lakes/107098_left.png,stimuli/lakes/107098_right.png,,,,0,125,125,98,1,,,,,
,,,,,,$5c3f62338cb6f5000180b697,2020-07-21_16h42.06.201,fisher_task,2020.1.3,Win32,60,0.113888889,-0.290740741,1,0,0,1.13289,scale,,,,,,0.2468,0.2,0.302267034,0.244948974,stimuli/lakes/403026_left.png,stimuli/lakes/403026_right.png,,,,0,126,126,26,1,,,,,
,,,,,,$5c3f62338cb6f5000180b697,2020-07-21_16h42.06.201,fisher_task,2020.1.3,Win32,60,0.150925926,-0.412962963,1,0,0,1.73313,scale,,,,,,0.302267034,0.244948974,0.2468,0.2,stimuli/lakes/60105_left.png,stimuli/lakes/60105_right.png,,,,0,127,127,5,1,,,,,
,,,,,,$5c3f62338cb6f5000180b697,2020-07-21_16h42.06.201,fisher_task,2020.1.3,Win32,60,0.097222222,-0.294444444,1,0,0,1.549485,scale,,,,,,0.326485712,0.264575131,0.21373507,0.173205081,stimuli/lakes/704056_left.png,stimuli/lakes/704056_right.png,,,,0,128,128,56,1,,,,,
,,,,,,$5c3f62338cb6f5000180b697,2020-07-21_16h42.06.201,fisher_task,2020.1.3,Win32,60,0.125,-0.328703704,1,0,0,1.58308,scale,,,,,,0.1234,0.1,0.3702,0.3,stimuli/lakes/105059_left.png,stimuli/lakes/105059_right.png,,,,0,129,129,59,1,,,,,
,,,,,,$5c3f62338cb6f5000180b697,2020-07-21_16h42.06.201,fisher_task,2020.1.3,Win32,60,,,,,,,,,,,,,,,,,,,,,,,,,,,,space,13.01301,space,32.43488
