keySpace.keys,instructions.thisRepN,instructions.thisTrialN,instructions.thisN,instructions.thisIndex,instructions.ran,participant,date,expName,psychopyVersion,OS,frameRate,mouse.x,mouse.y,mouse.leftButton,mouse.midButton,mouse.rightButton,mouse.time,mouse.clicked_name,training.thisRepN,training.thisTrialN,training.thisN,training.thisIndex,training.ran,widthBasketLeft,heightBasketLeft,widthBasketRight,heightBasketRight,leftLake,rightLake,space2.keys,space2.rt,space1.keys,trials.thisRepN,trials.thisTrialN,trials.thisN,trials.thisIndex,trials.ran,space1.rt,finalSpace1.keys,finalSpace1.rt,finalSpace2.keys,finalSpace2.rt
,0,0,0,0,1,$5ed590bf481c4512b168946f,2020-07-21_16h44.00.837,fisher_task,2020.1.3,Win32,60,,,,,,,,,,,,,,,,,,,,,,,,,,,,,,,
,,,,,,$5ed590bf481c4512b168946f,2020-07-21_16h44.00.837,fisher_task,2020.1.3,Win32,60,0.169444444,-0.425,1,0,0,1.978455,scale,0,0,0,0,1,0.275930788,0.223606798,0.275930788,0.223606798,stimuli/training/20_left.png,stimuli/training/20_right.png,,,,,,,,,,,,,
,,,,,,$5ed590bf481c4512b168946f,2020-07-21_16h44.00.837,fisher_task,2020.1.3,Win32,60,-0.175,-0.431481481,1,0,0,1.472035,scale,0,1,1,1,1,0.275930788,0.223606798,0.275930788,0.223606798,stimuli/training/80_left.png,stimuli/training/80_right.png,,,,,,,,,,,,,
,,,,,,$5ed590bf481c4512b168946f,2020-07-21_16h44.00.837,fisher_task,2020.1.3,Win32,60,0.155555556,-0.389814815,1,0,0,1.874885,scale,0,2,2,2,1,0.174513954,0.141421356,0.349027907,0.282842712,stimuli/training/50_left.png,stimuli/training/50_right.png,,,,,,,,,,,,,
,,,,,,$5ed590bf481c4512b168946f,2020-07-21_16h44.00.837,fisher_task,2020.1.3,Win32,60,0.105555556,-0.307407407,1,0,0,2.7705,scale,0,3,3,3,1,0.349027907,0.282842712,0.174513954,0.141421356,stimuli/training/50_left.png,stimuli/training/50_right.png,,,,,,,,,,,,,
,,,,,,$5ed590bf481c4512b168946f,2020-07-21_16h44.00.837,fisher_task,2020.1.3,Win32,60,0.09537037,-0.282407407,1,0,0,2.041495,scale,0,4,4,4,1,0.275930788,0.223606798,0.275930788,0.223606798,stimuli/training/50_left.png,stimuli/training/50_right.png,,,,,,,,,,,,,
,,,,,,$5ed590bf481c4512b168946f,2020-07-21_16h44.00.837,fisher_task,2020.1.3,Win32,60,0.144444444,-0.433333333,1,0,0,1.23601,scale,0,5,5,5,1,0.174513954,0.141421356,0.349027907,0.282842712,stimuli/training/20_left.png,stimuli/training/20_right.png,,,,,,,,,,,,,
,,,,,,$5ed590bf481c4512b168946f,2020-07-21_16h44.00.837,fisher_task,2020.1.3,Win32,60,-0.187037037,-0.437037037,1,0,0,1.402655,scale,0,6,6,6,1,0.349027907,0.282842712,0.174513954,0.141421356,stimuli/training/80_left.png,stimuli/training/80_right.png,,,,,,,,,,,,,
,,,,,,$5ed590bf481c4512b168946f,2020-07-21_16h44.00.837,fisher_task,2020.1.3,Win32,60,0.153703704,-0.375,1,0,0,1.42346,scale,0,7,7,7,1,0.1234,0.1,0.3702,0.3,stimuli/training/30_left.png,stimuli/training/30_right.png,,,,,,,,,,,,,
,,,,,,$5ed590bf481c4512b168946f,2020-07-21_16h44.00.837,fisher_task,2020.1.3,Win32,60,-0.156481481,-0.375925926,1,0,0,1.51376,scale,0,8,8,8,1,0.3702,0.3,0.1234,0.1,stimuli/training/70_left.png,stimuli/training/70_right.png,,,,,,,,,,,,,
,,,,,,$5ed590bf481c4512b168946f,2020-07-21_16h44.00.837,fisher_task,2020.1.3,Win32,60,-0.175,-0.432407407,1,0,0,1.444325,scale,0,9,9,9,1,0.326485712,0.264575131,0.21373507,0.173205081,stimuli/training/90_left.png,stimuli/training/90_right.png,,,,,,,,,,,,,
,,,,,,$5ed590bf481c4512b168946f,2020-07-21_16h44.00.837,fisher_task,2020.1.3,Win32,60,0.176851852,-0.432407407,1,0,0,1.028105,scale,0,10,10,10,1,0.21373507,0.173205081,0.326485712,0.264575131,stimuli/training/10_left.png,stimuli/training/10_right.png,,,,,,,,,,,,,
,,,,,,$5ed590bf481c4512b168946f,2020-07-21_16h44.00.837,fisher_task,2020.1.3,Win32,60,-0.166666667,-0.383333333,1,0,0,1.57628,scale,,,,,,0.302267034,0.244948974,0.2468,0.2,stimuli/lakes/606076_left.png,stimuli/lakes/606076_right.png,space,61.483005,,0,0,0,76,1,,,,,
,,,,,,$5ed590bf481c4512b168946f,2020-07-21_16h44.00.837,fisher_task,2020.1.3,Win32,60,-0.15,-0.362037037,1,0,0,1.54155,scale,,,,,,0.302267034,0.244948974,0.2468,0.2,stimuli/lakes/606085_left.png,stimuli/lakes/606085_right.png,,,,0,1,1,85,1,,,,,
,,,,,,$5ed590bf481c4512b168946f,2020-07-21_16h44.00.837,fisher_task,2020.1.3,Win32,60,-0.125,-0.302777778,1,0,0,1.680405,scale,,,,,,0.275930788,0.223606798,0.275930788,0.223606798,stimuli/lakes/506084_left.png,stimuli/lakes/506084_right.png,,,,0,2,2,84,1,,,,,
,,,,,,$5ed590bf481c4512b168946f,2020-07-21_16h44.00.837,fisher_task,2020.1.3,Win32,60,0.117592593,-0.297222222,1,0,0,1.617925,scale,,,,,,0.2468,0.2,0.302267034,0.244948974,stimuli/lakes/405063_left.png,stimuli/lakes/405063_right.png,,,,0,3,3,63,1,,,,,
,,,,,,$5ed590bf481c4512b168946f,2020-07-21_16h44.00.837,fisher_task,2020.1.3,Win32,60,0.150925926,-0.427777778,1,0,0,1.27095,scale,,,,,,0.21373507,0.173205081,0.326485712,0.264575131,stimuli/lakes/30100_left.png,stimuli/lakes/30100_right.png,,,,0,4,4,0,1,,,,,
,,,,,,$5ed590bf481c4512b168946f,2020-07-21_16h44.00.837,fisher_task,2020.1.3,Win32,60,-0.007407407,-0.25462963,1,0,0,2.652655,scale,,,,,,0.349027907,0.282842712,0.174513954,0.141421356,stimuli/lakes/80109_left.png,stimuli/lakes/80109_right.png,,,,0,5,5,9,1,,,,,
,,,,,,$5ed590bf481c4512b168946f,2020-07-21_16h44.00.837,fisher_task,2020.1.3,Win32,60,-0.119444444,-0.314814815,1,0,0,1.749865,scale,,,,,,0.326485712,0.264575131,0.21373507,0.173205081,stimuli/lakes/705067_left.png,stimuli/lakes/705067_right.png,,,,0,6,6,67,1,,,,,
,,,,,,$5ed590bf481c4512b168946f,2020-07-21_16h44.00.837,fisher_task,2020.1.3,Win32,60,-0.106481481,-0.290740741,1,0,0,1.541725,scale,,,,,,0.21373507,0.173205081,0.326485712,0.264575131,stimuli/lakes/3090122_left.png,stimuli/lakes/3090122_right.png,,,,0,7,7,122,1,,,,,
,,,,,,$5ed590bf481c4512b168946f,2020-07-21_16h44.00.837,fisher_task,2020.1.3,Win32,60,-0.175925926,-0.42962963,1,0,0,1.222015,scale,,,,,,0.302267034,0.244948974,0.2468,0.2,stimuli/lakes/6090127_left.png,stimuli/lakes/6090127_right.png,,,,0,8,8,127,1,,,,,
,,,,,,$5ed590bf481c4512b168946f,2020-07-21_16h44.00.837,fisher_task,2020.1.3,Win32,60,0.075925926,-0.275,1,0,0,1.638805,scale,,,,,,0.349027907,0.282842712,0.174513954,0.141421356,stimuli/lakes/803030_left.png,stimuli/lakes/803030_right.png,,,,0,9,9,30,1,,,,,
,,,,,,$5ed590bf481c4512b168946f,2020-07-21_16h44.00.837,fisher_task,2020.1.3,Win32,60,0.157407407,-0.423148148,1,0,0,1.937365,scale,,,,,,0.174513954,0.141421356,0.349027907,0.282842712,stimuli/lakes/203033_left.png,stimuli/lakes/203033_right.png,,,,0,10,10,33,1,,,,,
,,,,,,$5ed590bf481c4512b168946f,2020-07-21_16h44.00.837,fisher_task,2020.1.3,Win32,60,0.174074074,-0.434259259,1,0,0,1.52068,scale,,,,,,0.2468,0.2,0.302267034,0.244948974,stimuli/lakes/402014_left.png,stimuli/lakes/402014_right.png,,,,0,11,11,14,1,,,,,
,,,,,,$5ed590bf481c4512b168946f,2020-07-21_16h44.00.837,fisher_task,2020.1.3,Win32,60,0.097222222,-0.293518519,1,0,0,1.59706,scale,,,,,,0.326485712,0.264575131,0.21373507,0.173205081,stimuli/lakes/703029_left.png,stimuli/lakes/703029_right.png,,,,0,12,12,29,1,,,,,
,,,,,,$5ed590bf481c4512b168946f,2020-07-21_16h44.00.837,fisher_task,2020.1.3,Win32,60,-0.002777778,-0.264814815,1,0,0,2.027705,scale,,,,,,0.3702,0.3,0.1234,0.1,stimuli/lakes/903031_left.png,stimuli/lakes/903031_right.png,,,,0,13,13,31,1,,,,,
,,,,,,$5ed590bf481c4512b168946f,2020-07-21_16h44.00.837,fisher_task,2020.1.3,Win32,60,-0.15462963,-0.37037037,1,0,0,1.562325,scale,,,,,,0.3702,0.3,0.1234,0.1,stimuli/lakes/9070106_left.png,stimuli/lakes/9070106_right.png,,,,0,14,14,106,1,,,,,
,,,,,,$5ed590bf481c4512b168946f,2020-07-21_16h44.00.837,fisher_task,2020.1.3,Win32,60,0.183333333,-0.42962963,1,0,0,1.277635,scale,,,,,,0.2468,0.2,0.302267034,0.244948974,stimuli/lakes/403026_left.png,stimuli/lakes/403026_right.png,,,,0,15,15,26,1,,,,,
,,,,,,$5ed590bf481c4512b168946f,2020-07-21_16h44.00.837,fisher_task,2020.1.3,Win32,60,-0.161111111,-0.432407407,1,0,0,1.249875,scale,,,,,,0.349027907,0.282842712,0.174513954,0.141421356,stimuli/lakes/8080118_left.png,stimuli/lakes/8080118_right.png,,,,0,16,16,118,1,,,,,
,,,,,,$5ed590bf481c4512b168946f,2020-07-21_16h44.00.837,fisher_task,2020.1.3,Win32,60,-0.07037037,-0.264814815,1,0,0,2.31275,scale,,,,,,0.1234,0.1,0.3702,0.3,stimuli/lakes/107098_left.png,stimuli/lakes/107098_right.png,,,,0,17,17,98,1,,,,,
,,,,,,$5ed590bf481c4512b168946f,2020-07-21_16h44.00.837,fisher_task,2020.1.3,Win32,60,-0.009259259,-0.252777778,1,0,0,1.52804,scale,,,,,,0.21373507,0.173205081,0.326485712,0.264575131,stimuli/lakes/306082_left.png,stimuli/lakes/306082_right.png,,,,0,18,18,82,1,,,,,
,,,,,,$5ed590bf481c4512b168946f,2020-07-21_16h44.00.837,fisher_task,2020.1.3,Win32,60,0.15,-0.401851852,1,0,0,1.819275,scale,,,,,,0.1234,0.1,0.3702,0.3,stimuli/lakes/103032_left.png,stimuli/lakes/103032_right.png,,,,0,19,19,32,1,,,,,
,,,,,,$5ed590bf481c4512b168946f,2020-07-21_16h44.00.837,fisher_task,2020.1.3,Win32,60,0.12962963,-0.338888889,1,0,0,1.367265,scale,,,,,,0.1234,0.1,0.3702,0.3,stimuli/lakes/105059_left.png,stimuli/lakes/105059_right.png,,,,0,20,20,59,1,,,,,
,,,,,,$5ed590bf481c4512b168946f,2020-07-21_16h44.00.837,fisher_task,2020.1.3,Win32,60,0.086111111,-0.275,1,0,0,1.958225,scale,,,,,,0.349027907,0.282842712,0.174513954,0.141421356,stimuli/lakes/802021_left.png,stimuli/lakes/802021_right.png,,,,0,21,21,21,1,,,,,
,,,,,,$5ed590bf481c4512b168946f,2020-07-21_16h44.00.837,fisher_task,2020.1.3,Win32,60,-0.082407407,-0.275925926,1,0,0,2.020685,scale,,,,,,0.302267034,0.244948974,0.2468,0.2,stimuli/lakes/604046_left.png,stimuli/lakes/604046_right.png,,,space,0,22,22,46,1,7.02019,,,,
,,,,,,$5ed590bf481c4512b168946f,2020-07-21_16h44.00.837,fisher_task,2020.1.3,Win32,60,0.098148148,-0.283333333,1,0,0,1.367955,scale,,,,,,0.1234,0.1,0.3702,0.3,stimuli/lakes/104041_left.png,stimuli/lakes/104041_right.png,,,,0,23,23,41,1,,,,,
,,,,,,$5ed590bf481c4512b168946f,2020-07-21_16h44.00.837,fisher_task,2020.1.3,Win32,60,0.084259259,-0.276851852,1,0,0,1.60403,scale,,,,,,0.275930788,0.223606798,0.275930788,0.223606798,stimuli/lakes/503027_left.png,stimuli/lakes/503027_right.png,,,,0,24,24,27,1,,,,,
,,,,,,$5ed590bf481c4512b168946f,2020-07-21_16h44.00.837,fisher_task,2020.1.3,Win32,60,0.044444444,-0.263888889,1,0,0,1.624905,scale,,,,,,0.302267034,0.244948974,0.2468,0.2,stimuli/lakes/604055_left.png,stimuli/lakes/604055_right.png,,,,0,25,25,55,1,,,,,
,,,,,,$5ed590bf481c4512b168946f,2020-07-21_16h44.00.837,fisher_task,2020.1.3,Win32,60,0.12962963,-0.314814815,1,0,0,2.40262,scale,,,,,,0.275930788,0.223606798,0.275930788,0.223606798,stimuli/lakes/503036_left.png,stimuli/lakes/503036_right.png,,,,0,26,26,36,1,,,,,
,,,,,,$5ed590bf481c4512b168946f,2020-07-21_16h44.00.837,fisher_task,2020.1.3,Win32,60,0.141666667,-0.326851852,1,0,0,2.16655,scale,,,,,,0.21373507,0.173205081,0.326485712,0.264575131,stimuli/lakes/303025_left.png,stimuli/lakes/303025_right.png,,,,0,27,27,25,1,,,,,
,,,,,,$5ed590bf481c4512b168946f,2020-07-21_16h44.00.837,fisher_task,2020.1.3,Win32,60,0.144444444,-0.396296296,1,0,0,1.27071,scale,,,,,,0.174513954,0.141421356,0.349027907,0.282842712,stimuli/lakes/203024_left.png,stimuli/lakes/203024_right.png,,,,0,28,28,24,1,,,,,
,,,,,,$5ed590bf481c4512b168946f,2020-07-21_16h44.00.837,fisher_task,2020.1.3,Win32,60,-0.075925926,-0.274074074,1,0,0,1.77764,scale,,,,,,0.174513954,0.141421356,0.349027907,0.282842712,stimuli/lakes/207099_left.png,stimuli/lakes/207099_right.png,,,,0,29,29,99,1,,,,,
,,,,,,$5ed590bf481c4512b168946f,2020-07-21_16h44.00.837,fisher_task,2020.1.3,Win32,60,-0.147222222,-0.42962963,1,0,0,1.423505,scale,,,,,,0.326485712,0.264575131,0.21373507,0.173205081,stimuli/lakes/7080116_left.png,stimuli/lakes/7080116_right.png,,,,0,30,30,116,1,,,,,
,,,,,,$5ed590bf481c4512b168946f,2020-07-21_16h44.00.837,fisher_task,2020.1.3,Win32,60,-0.138888889,-0.32037037,1,0,0,1.81293,scale,,,,,,0.275930788,0.223606798,0.275930788,0.223606798,stimuli/lakes/506075_left.png,stimuli/lakes/506075_right.png,,,,0,31,31,75,1,,,,,
,,,,,,$5ed590bf481c4512b168946f,2020-07-21_16h44.00.837,fisher_task,2020.1.3,Win32,60,0.171296296,-0.368518519,1,0,0,1.694295,scale,,,,,,0.21373507,0.173205081,0.326485712,0.264575131,stimuli/lakes/303034_left.png,stimuli/lakes/303034_right.png,,,,0,32,32,34,1,,,,,
,,,,,,$5ed590bf481c4512b168946f,2020-07-21_16h44.00.837,fisher_task,2020.1.3,Win32,60,-0.180555556,-0.426851852,1,0,0,2.08319,scale,,,,,,0.275930788,0.223606798,0.275930788,0.223606798,stimuli/lakes/5070102_left.png,stimuli/lakes/5070102_right.png,,,,0,33,33,102,1,,,,,
,,,,,,$5ed590bf481c4512b168946f,2020-07-21_16h44.00.837,fisher_task,2020.1.3,Win32,60,0.058333333,-0.258333333,1,0,0,1.91656,scale,,,,,,0.3702,0.3,0.1234,0.1,stimuli/lakes/902022_left.png,stimuli/lakes/902022_right.png,,,,0,34,34,22,1,,,,,
,,,,,,$5ed590bf481c4512b168946f,2020-07-21_16h44.00.837,fisher_task,2020.1.3,Win32,60,-0.085185185,-0.277777778,1,0,0,2.73636,scale,,,,,,0.326485712,0.264575131,0.21373507,0.173205081,stimuli/lakes/70107_left.png,stimuli/lakes/70107_right.png,,,,0,35,35,7,1,,,,,
,,,,,,$5ed590bf481c4512b168946f,2020-07-21_16h44.00.837,fisher_task,2020.1.3,Win32,60,-0.15,-0.417592593,1,0,0,2.458215,scale,,,,,,0.302267034,0.244948974,0.2468,0.2,stimuli/lakes/6090126_left.png,stimuli/lakes/6090126_right.png,,,,0,36,36,126,1,,,,,
,,,,,,$5ed590bf481c4512b168946f,2020-07-21_16h44.00.837,fisher_task,2020.1.3,Win32,60,-0.022222222,-0.248148148,1,0,0,2.159565,scale,,,,,,0.2468,0.2,0.302267034,0.244948974,stimuli/lakes/406074_left.png,stimuli/lakes/406074_right.png,,,,0,37,37,74,1,,,,,
,,,,,,$5ed590bf481c4512b168946f,2020-07-21_16h44.00.837,fisher_task,2020.1.3,Win32,60,-0.098148148,-0.281481481,1,0,0,3.027645,scale,,,,,,0.349027907,0.282842712,0.174513954,0.141421356,stimuli/lakes/804048_left.png,stimuli/lakes/804048_right.png,,,,0,38,38,48,1,,,,,
,,,,,,$5ed590bf481c4512b168946f,2020-07-21_16h44.00.837,fisher_task,2020.1.3,Win32,60,-0.000925926,-0.238888889,1,0,0,1.610975,scale,,,,,,0.2468,0.2,0.302267034,0.244948974,stimuli/lakes/406083_left.png,stimuli/lakes/406083_right.png,,,,0,39,39,83,1,,,,,
,,,,,,$5ed590bf481c4512b168946f,2020-07-21_16h44.00.837,fisher_task,2020.1.3,Win32,60,0.125925926,-0.296296296,1,0,0,1.87491,scale,,,,,,0.302267034,0.244948974,0.2468,0.2,stimuli/lakes/603037_left.png,stimuli/lakes/603037_right.png,,,,0,40,40,37,1,,,,,
,,,,,,$5ed590bf481c4512b168946f,2020-07-21_16h44.00.837,fisher_task,2020.1.3,Win32,60,-0.110185185,-0.293518519,1,0,0,2.0485,scale,,,,,,0.2468,0.2,0.302267034,0.244948974,stimuli/lakes/4080112_left.png,stimuli/lakes/4080112_right.png,,,,0,41,41,112,1,,,,,
,,,,,,$5ed590bf481c4512b168946f,2020-07-21_16h44.00.837,fisher_task,2020.1.3,Win32,60,0.152777778,-0.396296296,1,0,0,2.270705,scale,,,,,,0.21373507,0.173205081,0.326485712,0.264575131,stimuli/lakes/302012_left.png,stimuli/lakes/302012_right.png,,,,0,42,42,12,1,,,,,
,,,,,,$5ed590bf481c4512b168946f,2020-07-21_16h44.00.837,fisher_task,2020.1.3,Win32,60,-0.165740741,-0.42962963,1,0,0,1.97959,scale,,,,,,0.275930788,0.223606798,0.275930788,0.223606798,stimuli/lakes/5090125_left.png,stimuli/lakes/5090125_right.png,,,,0,43,43,125,1,,,,,
,,,,,,$5ed590bf481c4512b168946f,2020-07-21_16h44.00.837,fisher_task,2020.1.3,Win32,60,-0.157407407,-0.40462963,1,0,0,1.867895,scale,,,,,,0.302267034,0.244948974,0.2468,0.2,stimuli/lakes/6070103_left.png,stimuli/lakes/6070103_right.png,,,space,0,44,44,103,1,8.25949,,,,
,,,,,,$5ed590bf481c4512b168946f,2020-07-21_16h44.00.837,fisher_task,2020.1.3,Win32,60,0.156481481,-0.389814815,1,0,0,1.826265,scale,,,,,,0.174513954,0.141421356,0.349027907,0.282842712,stimuli/lakes/205060_left.png,stimuli/lakes/205060_right.png,,,,0,45,45,60,1,,,,,
,,,,,,$5ed590bf481c4512b168946f,2020-07-21_16h44.00.837,fisher_task,2020.1.3,Win32,60,-0.007407407,-0.256481481,1,0,0,3.569385,scale,,,,,,0.2468,0.2,0.302267034,0.244948974,stimuli/lakes/4090123_left.png,stimuli/lakes/4090123_right.png,,,,0,46,46,123,1,,,,,
,,,,,,$5ed590bf481c4512b168946f,2020-07-21_16h44.00.837,fisher_task,2020.1.3,Win32,60,-0.115740741,-0.282407407,1,0,0,1.79158,scale,,,,,,0.302267034,0.244948974,0.2468,0.2,stimuli/lakes/605065_left.png,stimuli/lakes/605065_right.png,,,,0,47,47,65,1,,,,,
,,,,,,$5ed590bf481c4512b168946f,2020-07-21_16h44.00.837,fisher_task,2020.1.3,Win32,60,0.168518519,-0.415740741,1,0,0,1.416535,scale,,,,,,0.21373507,0.173205081,0.326485712,0.264575131,stimuli/lakes/30101_left.png,stimuli/lakes/30101_right.png,,,,0,48,48,1,1,,,,,
,,,,,,$5ed590bf481c4512b168946f,2020-07-21_16h44.00.837,fisher_task,2020.1.3,Win32,60,0.149074074,-0.34537037,1,0,0,1.50594,scale,,,,,,0.275930788,0.223606798,0.275930788,0.223606798,stimuli/lakes/502016_left.png,stimuli/lakes/502016_right.png,,,,0,49,49,16,1,,,,,
,,,,,,$5ed590bf481c4512b168946f,2020-07-21_16h44.00.837,fisher_task,2020.1.3,Win32,60,-0.163888889,-0.375925926,1,0,0,1.60397,scale,,,,,,0.3702,0.3,0.1234,0.1,stimuli/lakes/905070_left.png,stimuli/lakes/905070_right.png,,,,0,50,50,70,1,,,,,
,,,,,,$5ed590bf481c4512b168946f,2020-07-21_16h44.00.837,fisher_task,2020.1.3,Win32,60,0.176851852,-0.42962963,1,0,0,1.499875,scale,,,,,,0.1234,0.1,0.3702,0.3,stimuli/lakes/104050_left.png,stimuli/lakes/104050_right.png,,,,0,51,51,50,1,,,,,
,,,,,,$5ed590bf481c4512b168946f,2020-07-21_16h44.00.837,fisher_task,2020.1.3,Win32,60,0.062037037,-0.258333333,1,0,0,2.305425,scale,,,,,,0.1234,0.1,0.3702,0.3,stimuli/lakes/1090119_left.png,stimuli/lakes/1090119_right.png,,,,0,52,52,119,1,,,,,
,,,,,,$5ed590bf481c4512b168946f,2020-07-21_16h44.00.837,fisher_task,2020.1.3,Win32,60,0.12962963,-0.309259259,1,0,0,2.30507,scale,,,,,,0.21373507,0.173205081,0.326485712,0.264575131,stimuli/lakes/304043_left.png,stimuli/lakes/304043_right.png,,,,0,53,53,43,1,,,,,
,,,,,,$5ed590bf481c4512b168946f,2020-07-21_16h44.00.837,fisher_task,2020.1.3,Win32,60,-0.146296296,-0.387962963,1,0,0,2.20114,scale,,,,,,0.349027907,0.282842712,0.174513954,0.141421356,stimuli/lakes/806078_left.png,stimuli/lakes/806078_right.png,,,,0,54,54,78,1,,,,,
,,,,,,$5ed590bf481c4512b168946f,2020-07-21_16h44.00.837,fisher_task,2020.1.3,Win32,60,-0.168518519,-0.42037037,1,0,0,1.91653,scale,,,,,,0.275930788,0.223606798,0.275930788,0.223606798,stimuli/lakes/5080113_left.png,stimuli/lakes/5080113_right.png,,,,0,55,55,113,1,,,,,
,,,,,,$5ed590bf481c4512b168946f,2020-07-21_16h44.00.837,fisher_task,2020.1.3,Win32,60,-0.164814815,-0.348148148,1,0,0,1.694565,scale,,,,,,0.326485712,0.264575131,0.21373507,0.173205081,stimuli/lakes/706077_left.png,stimuli/lakes/706077_right.png,,,,0,56,56,77,1,,,,,
,,,,,,$5ed590bf481c4512b168946f,2020-07-21_16h44.00.837,fisher_task,2020.1.3,Win32,60,0.133333333,-0.321296296,1,0,0,1.52092,scale,,,,,,0.2468,0.2,0.302267034,0.244948974,stimuli/lakes/404053_left.png,stimuli/lakes/404053_right.png,,,,0,57,57,53,1,,,,,
,,,,,,$5ed590bf481c4512b168946f,2020-07-21_16h44.00.837,fisher_task,2020.1.3,Win32,60,-0.165740741,-0.426851852,1,0,0,2.055495,scale,,,,,,0.3702,0.3,0.1234,0.1,stimuli/lakes/906088_left.png,stimuli/lakes/906088_right.png,,,,0,58,58,88,1,,,,,
,,,,,,$5ed590bf481c4512b168946f,2020-07-21_16h44.00.837,fisher_task,2020.1.3,Win32,60,-0.008333333,-0.249074074,1,0,0,3.93798,scale,,,,,,0.326485712,0.264575131,0.21373507,0.173205081,stimuli/lakes/702019_left.png,stimuli/lakes/702019_right.png,,,,0,59,59,19,1,,,,,
,,,,,,$5ed590bf481c4512b168946f,2020-07-21_16h44.00.837,fisher_task,2020.1.3,Win32,60,0.109259259,-0.296296296,1,0,0,2.70103,scale,,,,,,0.326485712,0.264575131,0.21373507,0.173205081,stimuli/lakes/702020_left.png,stimuli/lakes/702020_right.png,,,,0,60,60,20,1,,,,,
,,,,,,$5ed590bf481c4512b168946f,2020-07-21_16h44.00.837,fisher_task,2020.1.3,Win32,60,-0.15,-0.365740741,1,0,0,2.11795,scale,,,,,,0.326485712,0.264575131,0.21373507,0.173205081,stimuli/lakes/706086_left.png,stimuli/lakes/706086_right.png,,,,0,61,61,86,1,,,,,
,,,,,,$5ed590bf481c4512b168946f,2020-07-21_16h44.00.837,fisher_task,2020.1.3,Win32,60,-0.085185185,-0.284259259,1,0,0,3.173525,scale,,,,,,0.21373507,0.173205081,0.326485712,0.264575131,stimuli/lakes/3080109_left.png,stimuli/lakes/3080109_right.png,,,,0,62,62,109,1,,,,,
,,,,,,$5ed590bf481c4512b168946f,2020-07-21_16h44.00.837,fisher_task,2020.1.3,Win32,60,0.130555556,-0.346296296,1,0,0,2.03478,scale,,,,,,0.2468,0.2,0.302267034,0.244948974,stimuli/lakes/402015_left.png,stimuli/lakes/402015_right.png,,,,0,63,63,15,1,,,,,
,,,,,,$5ed590bf481c4512b168946f,2020-07-21_16h44.00.837,fisher_task,2020.1.3,Win32,60,0.094444444,-0.274074074,1,0,0,2.78478,scale,,,,,,0.21373507,0.173205081,0.326485712,0.264575131,stimuli/lakes/307091_left.png,stimuli/lakes/307091_right.png,,,,0,64,64,91,1,,,,,
,,,,,,$5ed590bf481c4512b168946f,2020-07-21_16h44.00.837,fisher_task,2020.1.3,Win32,60,-0.114814815,-0.317592593,1,0,0,2.7499,scale,,,,,,0.174513954,0.141421356,0.349027907,0.282842712,stimuli/lakes/2080108_left.png,stimuli/lakes/2080108_right.png,,,,0,65,65,108,1,,,,,
,,,,,,$5ed590bf481c4512b168946f,2020-07-21_16h44.00.837,fisher_task,2020.1.3,Win32,60,-0.094444444,-0.284259259,1,0,0,2.368015,scale,,,,,,0.2468,0.2,0.302267034,0.244948974,stimuli/lakes/4070101_left.png,stimuli/lakes/4070101_right.png,,,space,0,66,66,101,1,3.58508,,,,
,,,,,,$5ed590bf481c4512b168946f,2020-07-21_16h44.00.837,fisher_task,2020.1.3,Win32,60,-0.175,-0.432407407,1,0,0,1.41652,scale,,,,,,0.326485712,0.264575131,0.21373507,0.173205081,stimuli/lakes/7090129_left.png,stimuli/lakes/7090129_right.png,,,,0,67,67,129,1,,,,,
,,,,,,$5ed590bf481c4512b168946f,2020-07-21_16h44.00.837,fisher_task,2020.1.3,Win32,60,-0.175925926,-0.431481481,1,0,0,1.43038,scale,,,,,,0.302267034,0.244948974,0.2468,0.2,stimuli/lakes/6080114_left.png,stimuli/lakes/6080114_right.png,,,,0,68,68,114,1,,,,,
,,,,,,$5ed590bf481c4512b168946f,2020-07-21_16h44.00.837,fisher_task,2020.1.3,Win32,60,-0.109259259,-0.294444444,1,0,0,2.527645,scale,,,,,,0.21373507,0.173205081,0.326485712,0.264575131,stimuli/lakes/3080110_left.png,stimuli/lakes/3080110_right.png,,,,0,69,69,110,1,,,,,
,,,,,,$5ed590bf481c4512b168946f,2020-07-21_16h44.00.837,fisher_task,2020.1.3,Win32,60,-0.14537037,-0.361111111,1,0,0,2.097145,scale,,,,,,0.2468,0.2,0.302267034,0.244948974,stimuli/lakes/4090124_left.png,stimuli/lakes/4090124_right.png,,,,0,70,70,124,1,,,,,
,,,,,,$5ed590bf481c4512b168946f,2020-07-21_16h44.00.837,fisher_task,2020.1.3,Win32,60,0.113888889,-0.291666667,1,0,0,2.55547,scale,,,,,,0.326485712,0.264575131,0.21373507,0.173205081,stimuli/lakes/703038_left.png,stimuli/lakes/703038_right.png,,,,0,71,71,38,1,,,,,
,,,,,,$5ed590bf481c4512b168946f,2020-07-21_16h44.00.837,fisher_task,2020.1.3,Win32,60,0.14537037,-0.331481481,1,0,0,1.88188,scale,,,,,,0.302267034,0.244948974,0.2468,0.2,stimuli/lakes/603028_left.png,stimuli/lakes/603028_right.png,,,,0,72,72,28,1,,,,,
,,,,,,$5ed590bf481c4512b168946f,2020-07-21_16h44.00.837,fisher_task,2020.1.3,Win32,60,-0.096296296,-0.275925926,1,0,0,2.79171,scale,,,,,,0.1234,0.1,0.3702,0.3,stimuli/lakes/107089_left.png,stimuli/lakes/107089_right.png,,,,0,73,73,89,1,,,,,
,,,,,,$5ed590bf481c4512b168946f,2020-07-21_16h44.00.837,fisher_task,2020.1.3,Win32,60,0.137037037,-0.334259259,1,0,0,1.708225,scale,,,,,,0.174513954,0.141421356,0.349027907,0.282842712,stimuli/lakes/204042_left.png,stimuli/lakes/204042_right.png,,,,0,74,74,42,1,,,,,
,,,,,,$5ed590bf481c4512b168946f,2020-07-21_16h44.00.837,fisher_task,2020.1.3,Win32,60,-0.094444444,-0.271296296,1,0,0,2.013245,scale,,,,,,0.3702,0.3,0.1234,0.1,stimuli/lakes/904049_left.png,stimuli/lakes/904049_right.png,,,,0,75,75,49,1,,,,,
,,,,,,$5ed590bf481c4512b168946f,2020-07-21_16h44.00.837,fisher_task,2020.1.3,Win32,60,0.119444444,-0.299074074,1,0,0,2.610915,scale,,,,,,0.275930788,0.223606798,0.275930788,0.223606798,stimuli/lakes/504045_left.png,stimuli/lakes/504045_right.png,,,,0,76,76,45,1,,,,,
,,,,,,$5ed590bf481c4512b168946f,2020-07-21_16h44.00.837,fisher_task,2020.1.3,Win32,60,-0.171296296,-0.431481481,1,0,0,1.486015,scale,,,,,,0.326485712,0.264575131,0.21373507,0.173205081,stimuli/lakes/7090128_left.png,stimuli/lakes/7090128_right.png,,,,0,77,77,128,1,,,,,
,,,,,,$5ed590bf481c4512b168946f,2020-07-21_16h44.00.837,fisher_task,2020.1.3,Win32,60,0.126851852,-0.314814815,1,0,0,1.62486,scale,,,,,,0.21373507,0.173205081,0.326485712,0.264575131,stimuli/lakes/305062_left.png,stimuli/lakes/305062_right.png,,,,0,78,78,62,1,,,,,
,,,,,,$5ed590bf481c4512b168946f,2020-07-21_16h44.00.837,fisher_task,2020.1.3,Win32,60,-0.143518519,-0.303703704,1,0,0,1.66656,scale,,,,,,0.326485712,0.264575131,0.21373507,0.173205081,stimuli/lakes/704056_left.png,stimuli/lakes/704056_right.png,,,,0,79,79,56,1,,,,,
,,,,,,$5ed590bf481c4512b168946f,2020-07-21_16h44.00.837,fisher_task,2020.1.3,Win32,60,-0.17962963,-0.428703704,1,0,0,1.3957,scale,,,,,,0.349027907,0.282842712,0.174513954,0.141421356,stimuli/lakes/8070105_left.png,stimuli/lakes/8070105_right.png,,,,0,80,80,105,1,,,,,
,,,,,,$5ed590bf481c4512b168946f,2020-07-21_16h44.00.837,fisher_task,2020.1.3,Win32,60,0.15462963,-0.436111111,1,0,0,1.84081,scale,,,,,,0.2468,0.2,0.302267034,0.244948974,stimuli/lakes/40102_left.png,stimuli/lakes/40102_right.png,,,,0,81,81,2,1,,,,,
,,,,,,$5ed590bf481c4512b168946f,2020-07-21_16h44.00.837,fisher_task,2020.1.3,Win32,60,0.121296296,-0.297222222,1,0,0,2.222125,scale,,,,,,0.326485712,0.264575131,0.21373507,0.173205081,stimuli/lakes/70108_left.png,stimuli/lakes/70108_right.png,,,,0,82,82,8,1,,,,,
,,,,,,$5ed590bf481c4512b168946f,2020-07-21_16h44.00.837,fisher_task,2020.1.3,Win32,60,0.163888889,-0.437037037,1,0,0,1.4178,scale,,,,,,0.21373507,0.173205081,0.326485712,0.264575131,stimuli/lakes/302013_left.png,stimuli/lakes/302013_right.png,,,,0,83,83,13,1,,,,,
,,,,,,$5ed590bf481c4512b168946f,2020-07-21_16h44.00.837,fisher_task,2020.1.3,Win32,60,0.142592593,-0.339814815,1,0,0,2.01377,scale,,,,,,0.302267034,0.244948974,0.2468,0.2,stimuli/lakes/60105_left.png,stimuli/lakes/60105_right.png,,,,0,84,84,5,1,,,,,
,,,,,,$5ed590bf481c4512b168946f,2020-07-21_16h44.00.837,fisher_task,2020.1.3,Win32,60,-0.173148148,-0.399074074,1,0,0,1.88876,scale,,,,,,0.302267034,0.244948974,0.2468,0.2,stimuli/lakes/607094_left.png,stimuli/lakes/607094_right.png,,,,0,85,85,94,1,,,,,
,,,,,,$5ed590bf481c4512b168946f,2020-07-21_16h44.00.837,fisher_task,2020.1.3,Win32,60,-0.138888889,-0.306481481,1,0,0,2.235975,scale,,,,,,0.3702,0.3,0.1234,0.1,stimuli/lakes/904058_left.png,stimuli/lakes/904058_right.png,,,,0,86,86,58,1,,,,,
,,,,,,$5ed590bf481c4512b168946f,2020-07-21_16h44.00.837,fisher_task,2020.1.3,Win32,60,-0.092592593,-0.296296296,1,0,0,2.992955,scale,,,,,,0.302267034,0.244948974,0.2468,0.2,stimuli/lakes/605066_left.png,stimuli/lakes/605066_right.png,,,,0,87,87,66,1,,,,,
,,,,,,$5ed590bf481c4512b168946f,2020-07-21_16h44.00.837,fisher_task,2020.1.3,Win32,60,0.058333333,-0.262962963,1,0,0,2.186905,scale,,,,,,0.275930788,0.223606798,0.275930788,0.223606798,stimuli/lakes/504054_left.png,stimuli/lakes/504054_right.png,,,space,0,88,88,54,1,6.085145,,,,
,,,,,,$5ed590bf481c4512b168946f,2020-07-21_16h44.00.837,fisher_task,2020.1.3,Win32,60,0.088888889,-0.280555556,1,0,0,1.666575,scale,,,,,,0.302267034,0.244948974,0.2468,0.2,stimuli/lakes/602017_left.png,stimuli/lakes/602017_right.png,,,,0,89,89,17,1,,,,,
,,,,,,$5ed590bf481c4512b168946f,2020-07-21_16h44.00.837,fisher_task,2020.1.3,Win32,60,-0.175,-0.425,1,0,0,1.10407,scale,,,,,,0.3702,0.3,0.1234,0.1,stimuli/lakes/906079_left.png,stimuli/lakes/906079_right.png,,,,0,90,90,79,1,,,,,
,,,,,,$5ed590bf481c4512b168946f,2020-07-21_16h44.00.837,fisher_task,2020.1.3,Win32,60,-0.093518519,-0.275,1,0,0,2.604075,scale,,,,,,0.2468,0.2,0.302267034,0.244948974,stimuli/lakes/407092_left.png,stimuli/lakes/407092_right.png,,,,0,91,91,92,1,,,,,
,,,,,,$5ed590bf481c4512b168946f,2020-07-21_16h44.00.837,fisher_task,2020.1.3,Win32,60,0.178703704,-0.434259259,1,0,0,1.437415,scale,,,,,,0.174513954,0.141421356,0.349027907,0.282842712,stimuli/lakes/202011_left.png,stimuli/lakes/202011_right.png,,,,0,92,92,11,1,,,,,
,,,,,,$5ed590bf481c4512b168946f,2020-07-21_16h44.00.837,fisher_task,2020.1.3,Win32,60,0.147222222,-0.35462963,1,0,0,2.60405,scale,,,,,,0.174513954,0.141421356,0.349027907,0.282842712,stimuli/lakes/206081_left.png,stimuli/lakes/206081_right.png,,,,0,93,93,81,1,,,,,
,,,,,,$5ed590bf481c4512b168946f,2020-07-21_16h44.00.837,fisher_task,2020.1.3,Win32,60,0.132407407,-0.317592593,1,0,0,2.13191,scale,,,,,,0.21373507,0.173205081,0.326485712,0.264575131,stimuli/lakes/306073_left.png,stimuli/lakes/306073_right.png,,,,0,94,94,73,1,,,,,
,,,,,,$5ed590bf481c4512b168946f,2020-07-21_16h44.00.837,fisher_task,2020.1.3,Win32,60,-0.171296296,-0.437037037,1,0,0,1.58321,scale,,,,,,0.349027907,0.282842712,0.174513954,0.141421356,stimuli/lakes/807096_left.png,stimuli/lakes/807096_right.png,,,,0,95,95,96,1,,,,,
,,,,,,$5ed590bf481c4512b168946f,2020-07-21_16h44.00.837,fisher_task,2020.1.3,Win32,60,0.152777778,-0.341666667,1,0,0,1.687385,scale,,,,,,0.2468,0.2,0.302267034,0.244948974,stimuli/lakes/404044_left.png,stimuli/lakes/404044_right.png,,,,0,96,96,44,1,,,,,
,,,,,,$5ed590bf481c4512b168946f,2020-07-21_16h44.00.837,fisher_task,2020.1.3,Win32,60,0.10462963,-0.282407407,1,0,0,2.062385,scale,,,,,,0.174513954,0.141421356,0.349027907,0.282842712,stimuli/lakes/207090_left.png,stimuli/lakes/207090_right.png,,,,0,97,97,90,1,,,,,
,,,,,,$5ed590bf481c4512b168946f,2020-07-21_16h44.00.837,fisher_task,2020.1.3,Win32,60,0.002777778,-0.25,1,0,0,1.881825,scale,,,,,,0.1234,0.1,0.3702,0.3,stimuli/lakes/1080107_left.png,stimuli/lakes/1080107_right.png,,,,0,98,98,107,1,,,,,
,,,,,,$5ed590bf481c4512b168946f,2020-07-21_16h44.00.837,fisher_task,2020.1.3,Win32,60,0.164814815,-0.437962963,1,0,0,1.51382,scale,,,,,,0.1234,0.1,0.3702,0.3,stimuli/lakes/103023_left.png,stimuli/lakes/103023_right.png,,,,0,99,99,23,1,,,,,
,,,,,,$5ed590bf481c4512b168946f,2020-07-21_16h44.00.837,fisher_task,2020.1.3,Win32,60,-0.07037037,-0.268518519,1,0,0,3.67352,scale,,,,,,0.349027907,0.282842712,0.174513954,0.141421356,stimuli/lakes/803039_left.png,stimuli/lakes/803039_right.png,,,,0,100,100,39,1,,,,,
,,,,,,$5ed590bf481c4512b168946f,2020-07-21_16h44.00.837,fisher_task,2020.1.3,Win32,60,0.157407407,-0.415740741,1,0,0,3.784595,scale,,,,,,0.3702,0.3,0.1234,0.1,stimuli/lakes/901010_left.png,stimuli/lakes/901010_right.png,,,,0,101,101,10,1,,,,,
,,,,,,$5ed590bf481c4512b168946f,2020-07-21_16h44.00.837,fisher_task,2020.1.3,Win32,60,-0.159259259,-0.434259259,1,0,0,2.861035,scale,,,,,,0.2468,0.2,0.302267034,0.244948974,stimuli/lakes/4080111_left.png,stimuli/lakes/4080111_right.png,,,,0,102,102,111,1,,,,,
,,,,,,$5ed590bf481c4512b168946f,2020-07-21_16h44.00.837,fisher_task,2020.1.3,Win32,60,-0.130555556,-0.333333333,1,0,0,3.05548,scale,,,,,,0.326485712,0.264575131,0.21373507,0.173205081,stimuli/lakes/705068_left.png,stimuli/lakes/705068_right.png,,,,0,103,103,68,1,,,,,
,,,,,,$5ed590bf481c4512b168946f,2020-07-21_16h44.00.837,fisher_task,2020.1.3,Win32,60,0.123148148,-0.299074074,1,0,0,1.506875,scale,,,,,,0.2468,0.2,0.302267034,0.244948974,stimuli/lakes/403035_left.png,stimuli/lakes/403035_right.png,,,,0,104,104,35,1,,,,,
,,,,,,$5ed590bf481c4512b168946f,2020-07-21_16h44.00.837,fisher_task,2020.1.3,Win32,60,0.148148148,-0.433333333,1,0,0,1.72221,scale,,,,,,0.275930788,0.223606798,0.275930788,0.223606798,stimuli/lakes/50104_left.png,stimuli/lakes/50104_right.png,,,,0,105,105,4,1,,,,,
,,,,,,$5ed590bf481c4512b168946f,2020-07-21_16h44.00.837,fisher_task,2020.1.3,Win32,60,0.164814815,-0.434259259,1,0,0,1.527665,scale,,,,,,0.2468,0.2,0.302267034,0.244948974,stimuli/lakes/40103_left.png,stimuli/lakes/40103_right.png,,,,0,106,106,3,1,,,,,
,,,,,,$5ed590bf481c4512b168946f,2020-07-21_16h44.00.837,fisher_task,2020.1.3,Win32,60,-0.15,-0.360185185,1,0,0,3.937435,scale,,,,,,0.21373507,0.173205081,0.326485712,0.264575131,stimuli/lakes/3070100_left.png,stimuli/lakes/3070100_right.png,,,,0,107,107,100,1,,,,,
,,,,,,$5ed590bf481c4512b168946f,2020-07-21_16h44.00.837,fisher_task,2020.1.3,Win32,60,-0.159259259,-0.431481481,1,0,0,2.069325,scale,,,,,,0.21373507,0.173205081,0.326485712,0.264575131,stimuli/lakes/3090121_left.png,stimuli/lakes/3090121_right.png,,,,0,108,108,121,1,,,,,
,,,,,,$5ed590bf481c4512b168946f,2020-07-21_16h44.00.837,fisher_task,2020.1.3,Win32,60,-0.00462963,-0.259259259,1,0,0,4.229065,scale,,,,,,0.2468,0.2,0.302267034,0.244948974,stimuli/lakes/405064_left.png,stimuli/lakes/405064_right.png,,,,0,109,109,64,1,,,,,
,,,,,,$5ed590bf481c4512b168946f,2020-07-21_16h44.00.837,fisher_task,2020.1.3,Win32,60,-0.15462963,-0.428703704,1,0,0,1.673495,scale,,,,,,0.302267034,0.244948974,0.2468,0.2,stimuli/lakes/6080115_left.png,stimuli/lakes/6080115_right.png,,,space,0,110,110,115,1,3.217895,,,,
,,,,,,$5ed590bf481c4512b168946f,2020-07-21_16h44.00.837,fisher_task,2020.1.3,Win32,60,0.157407407,-0.363888889,1,0,0,1.472105,scale,,,,,,0.174513954,0.141421356,0.349027907,0.282842712,stimuli/lakes/204051_left.png,stimuli/lakes/204051_right.png,,,,0,111,111,51,1,,,,,
,,,,,,$5ed590bf481c4512b168946f,2020-07-21_16h44.00.837,fisher_task,2020.1.3,Win32,60,0.156481481,-0.425,1,0,0,1.666595,scale,,,,,,0.302267034,0.244948974,0.2468,0.2,stimuli/lakes/602018_left.png,stimuli/lakes/602018_right.png,,,,0,112,112,18,1,,,,,
,,,,,,$5ed590bf481c4512b168946f,2020-07-21_16h44.00.837,fisher_task,2020.1.3,Win32,60,-0.087037037,-0.267592593,1,0,0,3.055475,scale,,,,,,0.326485712,0.264575131,0.21373507,0.173205081,stimuli/lakes/704047_left.png,stimuli/lakes/704047_right.png,,,,0,113,113,47,1,,,,,
,,,,,,$5ed590bf481c4512b168946f,2020-07-21_16h44.00.837,fisher_task,2020.1.3,Win32,60,-0.165740741,-0.350925926,1,0,0,2.5832,scale,,,,,,0.349027907,0.282842712,0.174513954,0.141421356,stimuli/lakes/805069_left.png,stimuli/lakes/805069_right.png,,,,0,114,114,69,1,,,,,
,,,,,,$5ed590bf481c4512b168946f,2020-07-21_16h44.00.837,fisher_task,2020.1.3,Win32,60,-0.167592593,-0.422222222,1,0,0,2.840025,scale,,,,,,0.174513954,0.141421356,0.349027907,0.282842712,stimuli/lakes/2090120_left.png,stimuli/lakes/2090120_right.png,,,,0,115,115,120,1,,,,,
,,,,,,$5ed590bf481c4512b168946f,2020-07-21_16h44.00.837,fisher_task,2020.1.3,Win32,60,-0.001851852,-0.253703704,1,0,0,3.388745,scale,,,,,,0.349027907,0.282842712,0.174513954,0.141421356,stimuli/lakes/804057_left.png,stimuli/lakes/804057_right.png,,,,0,116,116,57,1,,,,,
,,,,,,$5ed590bf481c4512b168946f,2020-07-21_16h44.00.837,fisher_task,2020.1.3,Win32,60,0.147222222,-0.331481481,1,0,0,2.80601,scale,,,,,,0.21373507,0.173205081,0.326485712,0.264575131,stimuli/lakes/304052_left.png,stimuli/lakes/304052_right.png,,,,0,117,117,52,1,,,,,
,,,,,,$5ed590bf481c4512b168946f,2020-07-21_16h44.00.837,fisher_task,2020.1.3,Win32,60,0.168518519,-0.430555556,1,0,0,1.71516,scale,,,,,,0.302267034,0.244948974,0.2468,0.2,stimuli/lakes/60106_left.png,stimuli/lakes/60106_right.png,,,,0,118,118,6,1,,,,,
,,,,,,$5ed590bf481c4512b168946f,2020-07-21_16h44.00.837,fisher_task,2020.1.3,Win32,60,-0.143518519,-0.340740741,1,0,0,3.041595,scale,,,,,,0.275930788,0.223606798,0.275930788,0.223606798,stimuli/lakes/507093_left.png,stimuli/lakes/507093_right.png,,,,0,119,119,93,1,,,,,
,,,,,,$5ed590bf481c4512b168946f,2020-07-21_16h44.00.837,fisher_task,2020.1.3,Win32,60,-0.111111111,-0.27037037,1,0,0,4.062395,scale,,,,,,0.1234,0.1,0.3702,0.3,stimuli/lakes/106080_left.png,stimuli/lakes/106080_right.png,,,,0,120,120,80,1,,,,,
,,,,,,$5ed590bf481c4512b168946f,2020-07-21_16h44.00.837,fisher_task,2020.1.3,Win32,60,-0.169444444,-0.42037037,1,0,0,1.97928,scale,,,,,,0.3702,0.3,0.1234,0.1,stimuli/lakes/907097_left.png,stimuli/lakes/907097_right.png,,,,0,121,121,97,1,,,,,
,,,,,,$5ed590bf481c4512b168946f,2020-07-21_16h44.00.837,fisher_task,2020.1.3,Win32,60,-0.171296296,-0.435185185,1,0,0,1.59713,scale,,,,,,0.326485712,0.264575131,0.21373507,0.173205081,stimuli/lakes/7080117_left.png,stimuli/lakes/7080117_right.png,,,,0,122,122,117,1,,,,,
,,,,,,$5ed590bf481c4512b168946f,2020-07-21_16h44.00.837,fisher_task,2020.1.3,Win32,60,0.113888889,-0.288888889,1,0,0,3.29853,scale,,,,,,0.3702,0.3,0.1234,0.1,stimuli/lakes/903040_left.png,stimuli/lakes/903040_right.png,,,,0,123,123,40,1,,,,,
,,,,,,$5ed590bf481c4512b168946f,2020-07-21_16h44.00.837,fisher_task,2020.1.3,Win32,60,0.112962963,-0.286111111,1,0,0,3.13183,scale,,,,,,0.174513954,0.141421356,0.349027907,0.282842712,stimuli/lakes/206072_left.png,stimuli/lakes/206072_right.png,,,,0,124,124,72,1,,,,,
,,,,,,$5ed590bf481c4512b168946f,2020-07-21_16h44.00.837,fisher_task,2020.1.3,Win32,60,-0.159259259,-0.358333333,1,0,0,2.145925,scale,,,,,,0.326485712,0.264575131,0.21373507,0.173205081,stimuli/lakes/7070104_left.png,stimuli/lakes/7070104_right.png,,,,0,125,125,104,1,,,,,
,,,,,,$5ed590bf481c4512b168946f,2020-07-21_16h44.00.837,fisher_task,2020.1.3,Win32,60,0.124074074,-0.293518519,1,0,0,2.166565,scale,,,,,,0.1234,0.1,0.3702,0.3,stimuli/lakes/106071_left.png,stimuli/lakes/106071_right.png,,,,0,126,126,71,1,,,,,
,,,,,,$5ed590bf481c4512b168946f,2020-07-21_16h44.00.837,fisher_task,2020.1.3,Win32,60,-0.150925926,-0.391666667,1,0,0,3.701305,scale,,,,,,0.349027907,0.282842712,0.174513954,0.141421356,stimuli/lakes/806087_left.png,stimuli/lakes/806087_right.png,,,,0,127,127,87,1,,,,,
,,,,,,$5ed590bf481c4512b168946f,2020-07-21_16h44.00.837,fisher_task,2020.1.3,Win32,60,0.162037037,-0.409259259,1,0,0,2.79158,scale,,,,,,0.21373507,0.173205081,0.326485712,0.264575131,stimuli/lakes/305061_left.png,stimuli/lakes/305061_right.png,,,,0,128,128,61,1,,,,,
,,,,,,$5ed590bf481c4512b168946f,2020-07-21_16h44.00.837,fisher_task,2020.1.3,Win32,60,-0.161111111,-0.362037037,1,0,0,1.88184,scale,,,,,,0.326485712,0.264575131,0.21373507,0.173205081,stimuli/lakes/707095_left.png,stimuli/lakes/707095_right.png,,,,0,129,129,95,1,,,,,
,,,,,,$5ed590bf481c4512b168946f,2020-07-21_16h44.00.837,fisher_task,2020.1.3,Win32,60,,,,,,,,,,,,,,,,,,,,,,,,,,,,space,9.70321,space,26.21453
