keySpace.keys,keySpace.rt,instructions.thisRepN,instructions.thisTrialN,instructions.thisN,instructions.thisIndex,instructions.ran,participant,date,expName,psychopyVersion,OS,frameRate,mouse.x,mouse.y,mouse.leftButton,mouse.midButton,mouse.rightButton,mouse.time,mouse.clicked_name,training.thisRepN,training.thisTrialN,training.thisN,training.thisIndex,training.ran,widthBasketLeft,heightBasketLeft,widthBasketRight,heightBasketRight,leftLake,rightLake,space2.keys,space2.rt,space1.keys,trials.thisRepN,trials.thisTrialN,trials.thisN,trials.thisIndex,trials.ran,space1.rt,finalSpace1.keys,finalSpace1.rt,finalSpace2.keys,finalSpace2.rt
space,3.48129,0,0,0,0,1,$5e63d41865e2a61530a6f4cc,2020-07-20_06h29.24.409,fisher_task,2020.1.3,Win32,60,,,,,,,,,,,,,,,,,,,,,,,,,,,,,,,
,,1,0,1,0,1,$5e63d41865e2a61530a6f4cc,2020-07-20_06h29.24.409,fisher_task,2020.1.3,Win32,60,,,,,,,,,,,,,,,,,,,,,,,,,,,,,,,
,,,,,,,$5e63d41865e2a61530a6f4cc,2020-07-20_06h29.24.409,fisher_task,2020.1.3,Win32,60,0.147135417,-0.416666667,1,0,0,4.700025,scale,0,0,0,0,1,0.275930788,0.223606798,0.275930788,0.223606798,stimuli/training/20_left.png,stimuli/training/20_right.png,,,,,,,,,,,,,
,,,,,,,$5e63d41865e2a61530a6f4cc,2020-07-20_06h29.24.409,fisher_task,2020.1.3,Win32,60,-0.002604167,-0.4296875,1,0,0,1.39935,scale,0,1,1,1,1,0.275930788,0.223606798,0.275930788,0.223606798,stimuli/training/80_left.png,stimuli/training/80_right.png,,,,,,,,,,,,,
,,,,,,,$5e63d41865e2a61530a6f4cc,2020-07-20_06h29.24.409,fisher_task,2020.1.3,Win32,60,0.115885417,-0.307291667,1,0,0,2.066515,scale,0,2,2,2,1,0.174513954,0.141421356,0.349027907,0.282842712,stimuli/training/50_left.png,stimuli/training/50_right.png,,,,,,,,,,,,,
,,,,,,,$5e63d41865e2a61530a6f4cc,2020-07-20_06h29.24.409,fisher_task,2020.1.3,Win32,60,0.053385417,-0.309895833,1,0,0,1.51682,scale,0,3,3,3,1,0.349027907,0.282842712,0.174513954,0.141421356,stimuli/training/50_left.png,stimuli/training/50_right.png,,,,,,,,,,,,,
,,,,,,,$5e63d41865e2a61530a6f4cc,2020-07-20_06h29.24.409,fisher_task,2020.1.3,Win32,60,-0.005208333,0.002604167,1,0,0,0.3165,scale,0,4,4,4,1,0.275930788,0.223606798,0.275930788,0.223606798,stimuli/training/50_left.png,stimuli/training/50_right.png,,,,,,,,,,,,,
,,,,,,,$5e63d41865e2a61530a6f4cc,2020-07-20_06h29.24.409,fisher_task,2020.1.3,Win32,60,0.087239583,-0.321614583,0,0,1,0.36648,scale,0,5,5,5,1,0.174513954,0.141421356,0.349027907,0.282842712,stimuli/training/20_left.png,stimuli/training/20_right.png,,,,,,,,,,,,,
,,,,,,,$5e63d41865e2a61530a6f4cc,2020-07-20_06h29.24.409,fisher_task,2020.1.3,Win32,60,-0.243489583,0.299479167,1,0,0,1.733475,scale,0,6,6,6,1,0.349027907,0.282842712,0.174513954,0.141421356,stimuli/training/80_left.png,stimuli/training/80_right.png,,,,,,,,,,,,,
,,,,,,,$5e63d41865e2a61530a6f4cc,2020-07-20_06h29.24.409,fisher_task,2020.1.3,Win32,60,0.266927083,-0.432291667,1,0,0,6.38282,scale,0,7,7,7,1,0.1234,0.1,0.3702,0.3,stimuli/training/30_left.png,stimuli/training/30_right.png,,,,,,,,,,,,,
,,,,,,,$5e63d41865e2a61530a6f4cc,2020-07-20_06h29.24.409,fisher_task,2020.1.3,Win32,60,-0.16015625,-0.358072917,1,0,0,1.85009,scale,0,8,8,8,1,0.3702,0.3,0.1234,0.1,stimuli/training/70_left.png,stimuli/training/70_right.png,,,,,,,,,,,,,
,,,,,,,$5e63d41865e2a61530a6f4cc,2020-07-20_06h29.24.409,fisher_task,2020.1.3,Win32,60,-0.186197917,-0.432291667,1,0,0,1.81652,scale,0,9,9,9,1,0.326485712,0.264575131,0.21373507,0.173205081,stimuli/training/90_left.png,stimuli/training/90_right.png,,,,,,,,,,,,,
,,,,,,,$5e63d41865e2a61530a6f4cc,2020-07-20_06h29.24.409,fisher_task,2020.1.3,Win32,60,0.1640625,-0.43359375,1,0,0,1.91658,scale,0,10,10,10,1,0.21373507,0.173205081,0.326485712,0.264575131,stimuli/training/10_left.png,stimuli/training/10_right.png,,,,,,,,,,,,,
,,,,,,,$5e63d41865e2a61530a6f4cc,2020-07-20_06h29.24.409,fisher_task,2020.1.3,Win32,60,0.16796875,-0.428385417,1,0,0,2.149905,scale,,,,,,0.2468,0.2,0.302267034,0.244948974,stimuli/lakes/402015_left.png,stimuli/lakes/402015_right.png,space,9.344165,,0,0,0,15,1,,,,,
,,,,,,,$5e63d41865e2a61530a6f4cc,2020-07-20_06h29.24.409,fisher_task,2020.1.3,Win32,60,0.001302083,-0.256510417,1,0,0,8.800235,scale,,,,,,0.326485712,0.264575131,0.21373507,0.173205081,stimuli/lakes/705068_left.png,stimuli/lakes/705068_right.png,,,,0,1,1,68,1,,,,,
,,,,,,,$5e63d41865e2a61530a6f4cc,2020-07-20_06h29.24.409,fisher_task,2020.1.3,Win32,60,0.139322917,-0.375,1,0,0,2.23321,scale,,,,,,0.174513954,0.141421356,0.349027907,0.282842712,stimuli/lakes/204042_left.png,stimuli/lakes/204042_right.png,,,,0,2,2,42,1,,,,,
,,,,,,,$5e63d41865e2a61530a6f4cc,2020-07-20_06h29.24.409,fisher_task,2020.1.3,Win32,60,-0.157552083,-0.364583333,1,0,0,7.066905,scale,,,,,,0.3702,0.3,0.1234,0.1,stimuli/lakes/907097_left.png,stimuli/lakes/907097_right.png,,,,0,3,3,97,1,,,,,
,,,,,,,$5e63d41865e2a61530a6f4cc,2020-07-20_06h29.24.409,fisher_task,2020.1.3,Win32,60,-0.151041667,-0.420572917,1,0,0,3.466405,scale,,,,,,0.21373507,0.173205081,0.326485712,0.264575131,stimuli/lakes/3070100_left.png,stimuli/lakes/3070100_right.png,,,,0,4,4,100,1,,,,,
,,,,,,,$5e63d41865e2a61530a6f4cc,2020-07-20_06h29.24.409,fisher_task,2020.1.3,Win32,60,-0.091145833,-0.2890625,1,0,0,5.666705,scale,,,,,,0.2468,0.2,0.302267034,0.244948974,stimuli/lakes/4080111_left.png,stimuli/lakes/4080111_right.png,,,,0,5,5,111,1,,,,,
,,,,,,,$5e63d41865e2a61530a6f4cc,2020-07-20_06h29.24.409,fisher_task,2020.1.3,Win32,60,0.173177083,-0.423177083,1,0,0,2.51634,scale,,,,,,0.174513954,0.141421356,0.349027907,0.282842712,stimuli/lakes/203024_left.png,stimuli/lakes/203024_right.png,,,,0,6,6,24,1,,,,,
,,,,,,,$5e63d41865e2a61530a6f4cc,2020-07-20_06h29.24.409,fisher_task,2020.1.3,Win32,60,-0.141927083,-0.3359375,1,0,0,4.1664,scale,,,,,,0.3702,0.3,0.1234,0.1,stimuli/lakes/902022_left.png,stimuli/lakes/902022_right.png,,,,0,7,7,22,1,,,,,
,,,,,,,$5e63d41865e2a61530a6f4cc,2020-07-20_06h29.24.409,fisher_task,2020.1.3,Win32,60,-0.158854167,-0.384114583,1,0,0,3.2333,scale,,,,,,0.326485712,0.264575131,0.21373507,0.173205081,stimuli/lakes/706077_left.png,stimuli/lakes/706077_right.png,,,,0,8,8,77,1,,,,,
,,,,,,,$5e63d41865e2a61530a6f4cc,2020-07-20_06h29.24.409,fisher_task,2020.1.3,Win32,60,0.122395833,-0.299479167,1,0,0,3.4166,scale,,,,,,0.302267034,0.244948974,0.2468,0.2,stimuli/lakes/60105_left.png,stimuli/lakes/60105_right.png,,,,0,9,9,5,1,,,,,
,,,,,,,$5e63d41865e2a61530a6f4cc,2020-07-20_06h29.24.409,fisher_task,2020.1.3,Win32,60,-0.00390625,-0.26171875,1,0,0,4.01689,scale,,,,,,0.174513954,0.141421356,0.349027907,0.282842712,stimuli/lakes/2080108_left.png,stimuli/lakes/2080108_right.png,,,,0,10,10,108,1,,,,,
,,,,,,,$5e63d41865e2a61530a6f4cc,2020-07-20_06h29.24.409,fisher_task,2020.1.3,Win32,60,0.096354167,-0.305989583,1,0,0,2.33339,scale,,,,,,0.326485712,0.264575131,0.21373507,0.173205081,stimuli/lakes/704056_left.png,stimuli/lakes/704056_right.png,,,,0,11,11,56,1,,,,,
,,,,,,,$5e63d41865e2a61530a6f4cc,2020-07-20_06h29.24.409,fisher_task,2020.1.3,Win32,60,0.145833333,-0.361979167,1,0,0,2.516825,scale,,,,,,0.21373507,0.173205081,0.326485712,0.264575131,stimuli/lakes/305061_left.png,stimuli/lakes/305061_right.png,,,,0,12,12,61,1,,,,,
,,,,,,,$5e63d41865e2a61530a6f4cc,2020-07-20_06h29.24.409,fisher_task,2020.1.3,Win32,60,-0.139322917,-0.346354167,1,0,0,2.599665,scale,,,,,,0.326485712,0.264575131,0.21373507,0.173205081,stimuli/lakes/705067_left.png,stimuli/lakes/705067_right.png,,,,0,13,13,67,1,,,,,
,,,,,,,$5e63d41865e2a61530a6f4cc,2020-07-20_06h29.24.409,fisher_task,2020.1.3,Win32,60,0.16796875,-0.4140625,1,0,0,1.3499,scale,,,,,,0.21373507,0.173205081,0.326485712,0.264575131,stimuli/lakes/302013_left.png,stimuli/lakes/302013_right.png,,,,0,14,14,13,1,,,,,
,,,,,,,$5e63d41865e2a61530a6f4cc,2020-07-20_06h29.24.409,fisher_task,2020.1.3,Win32,60,-0.080729167,-0.268229167,1,0,0,2.69972,scale,,,,,,0.174513954,0.141421356,0.349027907,0.282842712,stimuli/lakes/207099_left.png,stimuli/lakes/207099_right.png,,,,0,15,15,99,1,,,,,
,,,,,,,$5e63d41865e2a61530a6f4cc,2020-07-20_06h29.24.409,fisher_task,2020.1.3,Win32,60,0.079427083,-0.274739583,1,0,0,3.08305,scale,,,,,,0.2468,0.2,0.302267034,0.244948974,stimuli/lakes/4070101_left.png,stimuli/lakes/4070101_right.png,,,,0,16,16,101,1,,,,,
,,,,,,,$5e63d41865e2a61530a6f4cc,2020-07-20_06h29.24.409,fisher_task,2020.1.3,Win32,60,0.130208333,-0.338541667,1,0,0,5.34998,scale,,,,,,0.3702,0.3,0.1234,0.1,stimuli/lakes/904058_left.png,stimuli/lakes/904058_right.png,,,,0,17,17,58,1,,,,,
,,,,,,,$5e63d41865e2a61530a6f4cc,2020-07-20_06h29.24.409,fisher_task,2020.1.3,Win32,60,-0.08984375,-0.27734375,1,0,0,3.633005,scale,,,,,,0.349027907,0.282842712,0.174513954,0.141421356,stimuli/lakes/803039_left.png,stimuli/lakes/803039_right.png,,,,0,18,18,39,1,,,,,
,,,,,,,$5e63d41865e2a61530a6f4cc,2020-07-20_06h29.24.409,fisher_task,2020.1.3,Win32,60,0.115885417,-0.302083333,1,0,0,3.21661,scale,,,,,,0.21373507,0.173205081,0.326485712,0.264575131,stimuli/lakes/3080110_left.png,stimuli/lakes/3080110_right.png,,,,0,19,19,110,1,,,,,
,,,,,,,$5e63d41865e2a61530a6f4cc,2020-07-20_06h29.24.409,fisher_task,2020.1.3,Win32,60,0.119791667,-0.309895833,1,0,0,2.18322,scale,,,,,,0.21373507,0.173205081,0.326485712,0.264575131,stimuli/lakes/307091_left.png,stimuli/lakes/307091_right.png,,,,0,20,20,91,1,,,,,
,,,,,,,$5e63d41865e2a61530a6f4cc,2020-07-20_06h29.24.409,fisher_task,2020.1.3,Win32,60,-0.1640625,-0.423177083,1,0,0,1.566345,scale,,,,,,0.326485712,0.264575131,0.21373507,0.173205081,stimuli/lakes/7070104_left.png,stimuli/lakes/7070104_right.png,,,,0,21,21,104,1,,,,,
,,,,,,,$5e63d41865e2a61530a6f4cc,2020-07-20_06h29.24.409,fisher_task,2020.1.3,Win32,60,0.036458333,-0.259114583,1,0,0,2.53295,scale,,,,,,0.174513954,0.141421356,0.349027907,0.282842712,stimuli/lakes/2090120_left.png,stimuli/lakes/2090120_right.png,,,space,0,22,22,120,1,3.92179,,,,
,,,,,,,$5e63d41865e2a61530a6f4cc,2020-07-20_06h29.24.409,fisher_task,2020.1.3,Win32,60,0.100260417,-0.2890625,1,0,0,2.749935,scale,,,,,,0.174513954,0.141421356,0.349027907,0.282842712,stimuli/lakes/206081_left.png,stimuli/lakes/206081_right.png,,,,0,23,23,81,1,,,,,
,,,,,,,$5e63d41865e2a61530a6f4cc,2020-07-20_06h29.24.409,fisher_task,2020.1.3,Win32,60,-0.102864583,-0.290364583,1,0,0,7.25053,scale,,,,,,0.21373507,0.173205081,0.326485712,0.264575131,stimuli/lakes/3090121_left.png,stimuli/lakes/3090121_right.png,,,,0,24,24,121,1,,,,,
,,,,,,,$5e63d41865e2a61530a6f4cc,2020-07-20_06h29.24.409,fisher_task,2020.1.3,Win32,60,0.09375,-0.29296875,1,0,0,3.1501,scale,,,,,,0.2468,0.2,0.302267034,0.244948974,stimuli/lakes/404053_left.png,stimuli/lakes/404053_right.png,,,,0,25,25,53,1,,,,,
,,,,,,,$5e63d41865e2a61530a6f4cc,2020-07-20_06h29.24.409,fisher_task,2020.1.3,Win32,60,-0.092447917,-0.272135417,1,0,0,3.13324,scale,,,,,,0.21373507,0.173205081,0.326485712,0.264575131,stimuli/lakes/3090122_left.png,stimuli/lakes/3090122_right.png,,,,0,26,26,122,1,,,,,
,,,,,,,$5e63d41865e2a61530a6f4cc,2020-07-20_06h29.24.409,fisher_task,2020.1.3,Win32,60,-0.12109375,-0.30859375,1,0,0,2.03322,scale,,,,,,0.349027907,0.282842712,0.174513954,0.141421356,stimuli/lakes/806087_left.png,stimuli/lakes/806087_right.png,,,,0,27,27,87,1,,,,,
,,,,,,,$5e63d41865e2a61530a6f4cc,2020-07-20_06h29.24.409,fisher_task,2020.1.3,Win32,60,0.1640625,-0.393229167,1,0,0,1.71635,scale,,,,,,0.2468,0.2,0.302267034,0.244948974,stimuli/lakes/405063_left.png,stimuli/lakes/405063_right.png,,,,0,28,28,63,1,,,,,
,,,,,,,$5e63d41865e2a61530a6f4cc,2020-07-20_06h29.24.409,fisher_task,2020.1.3,Win32,60,-0.13671875,-0.317708333,1,0,0,4.850005,scale,,,,,,0.275930788,0.223606798,0.275930788,0.223606798,stimuli/lakes/506075_left.png,stimuli/lakes/506075_right.png,,,,0,29,29,75,1,,,,,
,,,,,,,$5e63d41865e2a61530a6f4cc,2020-07-20_06h29.24.409,fisher_task,2020.1.3,Win32,60,-0.166666667,-0.4140625,1,0,0,1.883285,scale,,,,,,0.302267034,0.244948974,0.2468,0.2,stimuli/lakes/607094_left.png,stimuli/lakes/607094_right.png,,,,0,30,30,94,1,,,,,
,,,,,,,$5e63d41865e2a61530a6f4cc,2020-07-20_06h29.24.409,fisher_task,2020.1.3,Win32,60,0.14453125,-0.364583333,1,0,0,1.916395,scale,,,,,,0.1234,0.1,0.3702,0.3,stimuli/lakes/107089_left.png,stimuli/lakes/107089_right.png,,,,0,31,31,89,1,,,,,
,,,,,,,$5e63d41865e2a61530a6f4cc,2020-07-20_06h29.24.409,fisher_task,2020.1.3,Win32,60,0.15234375,-0.404947917,1,0,0,2.166315,scale,,,,,,0.21373507,0.173205081,0.326485712,0.264575131,stimuli/lakes/304043_left.png,stimuli/lakes/304043_right.png,,,,0,32,32,43,1,,,,,
,,,,,,,$5e63d41865e2a61530a6f4cc,2020-07-20_06h29.24.409,fisher_task,2020.1.3,Win32,60,-0.139322917,-0.333333333,1,0,0,1.616175,scale,,,,,,0.349027907,0.282842712,0.174513954,0.141421356,stimuli/lakes/805069_left.png,stimuli/lakes/805069_right.png,,,,0,33,33,69,1,,,,,
,,,,,,,$5e63d41865e2a61530a6f4cc,2020-07-20_06h29.24.409,fisher_task,2020.1.3,Win32,60,-0.111979167,-0.286458333,1,0,0,3.44995,scale,,,,,,0.302267034,0.244948974,0.2468,0.2,stimuli/lakes/603028_left.png,stimuli/lakes/603028_right.png,,,,0,34,34,28,1,,,,,
,,,,,,,$5e63d41865e2a61530a6f4cc,2020-07-20_06h29.24.409,fisher_task,2020.1.3,Win32,60,-0.153645833,-0.373697917,1,0,0,2.53317,scale,,,,,,0.302267034,0.244948974,0.2468,0.2,stimuli/lakes/6080114_left.png,stimuli/lakes/6080114_right.png,,,,0,35,35,114,1,,,,,
,,,,,,,$5e63d41865e2a61530a6f4cc,2020-07-20_06h29.24.409,fisher_task,2020.1.3,Win32,60,0.149739583,-0.390625,1,0,0,1.98312,scale,,,,,,0.1234,0.1,0.3702,0.3,stimuli/lakes/105059_left.png,stimuli/lakes/105059_right.png,,,,0,36,36,59,1,,,,,
,,,,,,,$5e63d41865e2a61530a6f4cc,2020-07-20_06h29.24.409,fisher_task,2020.1.3,Win32,60,0.151041667,-0.415364583,1,0,0,2.183215,scale,,,,,,0.2468,0.2,0.302267034,0.244948974,stimuli/lakes/40103_left.png,stimuli/lakes/40103_right.png,,,,0,37,37,3,1,,,,,
,,,,,,,$5e63d41865e2a61530a6f4cc,2020-07-20_06h29.24.409,fisher_task,2020.1.3,Win32,60,-0.083333333,-0.26953125,1,0,0,2.966895,scale,,,,,,0.349027907,0.282842712,0.174513954,0.141421356,stimuli/lakes/802021_left.png,stimuli/lakes/802021_right.png,,,,0,38,38,21,1,,,,,
,,,,,,,$5e63d41865e2a61530a6f4cc,2020-07-20_06h29.24.409,fisher_task,2020.1.3,Win32,60,0.002604167,-0.252604167,1,0,0,4.85001,scale,,,,,,0.326485712,0.264575131,0.21373507,0.173205081,stimuli/lakes/70108_left.png,stimuli/lakes/70108_right.png,,,,0,39,39,8,1,,,,,
,,,,,,,$5e63d41865e2a61530a6f4cc,2020-07-20_06h29.24.409,fisher_task,2020.1.3,Win32,60,0.1640625,-0.427083333,1,0,0,1.866525,scale,,,,,,0.326485712,0.264575131,0.21373507,0.173205081,stimuli/lakes/70107_left.png,stimuli/lakes/70107_right.png,,,,0,40,40,7,1,,,,,
,,,,,,,$5e63d41865e2a61530a6f4cc,2020-07-20_06h29.24.409,fisher_task,2020.1.3,Win32,60,0.08984375,-0.287760417,1,0,0,2.81657,scale,,,,,,0.275930788,0.223606798,0.275930788,0.223606798,stimuli/lakes/504054_left.png,stimuli/lakes/504054_right.png,,,,0,41,41,54,1,,,,,
,,,,,,,$5e63d41865e2a61530a6f4cc,2020-07-20_06h29.24.409,fisher_task,2020.1.3,Win32,60,0.098958333,-0.303385417,1,0,0,2.299885,scale,,,,,,0.275930788,0.223606798,0.275930788,0.223606798,stimuli/lakes/503036_left.png,stimuli/lakes/503036_right.png,,,,0,42,42,36,1,,,,,
,,,,,,,$5e63d41865e2a61530a6f4cc,2020-07-20_06h29.24.409,fisher_task,2020.1.3,Win32,60,0.026041667,-0.25,1,0,0,2.61659,scale,,,,,,0.1234,0.1,0.3702,0.3,stimuli/lakes/1090119_left.png,stimuli/lakes/1090119_right.png,,,,0,43,43,119,1,,,,,
,,,,,,,$5e63d41865e2a61530a6f4cc,2020-07-20_06h29.24.409,fisher_task,2020.1.3,Win32,60,-0.063802083,-0.259114583,1,0,0,2.61633,scale,,,,,,0.326485712,0.264575131,0.21373507,0.173205081,stimuli/lakes/703038_left.png,stimuli/lakes/703038_right.png,,,space,0,44,44,38,1,2.436755,,,,
,,,,,,,$5e63d41865e2a61530a6f4cc,2020-07-20_06h29.24.409,fisher_task,2020.1.3,Win32,60,-0.01953125,-0.248697917,1,0,0,3.04994,scale,,,,,,0.302267034,0.244948974,0.2468,0.2,stimuli/lakes/60106_left.png,stimuli/lakes/60106_right.png,,,,0,45,45,6,1,,,,,
,,,,,,,$5e63d41865e2a61530a6f4cc,2020-07-20_06h29.24.409,fisher_task,2020.1.3,Win32,60,0.153645833,-0.416666667,1,0,0,1.4832,scale,,,,,,0.1234,0.1,0.3702,0.3,stimuli/lakes/104041_left.png,stimuli/lakes/104041_right.png,,,,0,46,46,41,1,,,,,
,,,,,,,$5e63d41865e2a61530a6f4cc,2020-07-20_06h29.24.409,fisher_task,2020.1.3,Win32,60,-0.092447917,-0.270833333,1,0,0,3.30001,scale,,,,,,0.326485712,0.264575131,0.21373507,0.173205081,stimuli/lakes/703029_left.png,stimuli/lakes/703029_right.png,,,,0,47,47,29,1,,,,,
,,,,,,,$5e63d41865e2a61530a6f4cc,2020-07-20_06h29.24.409,fisher_task,2020.1.3,Win32,60,-0.1640625,-0.40625,1,0,0,1.88302,scale,,,,,,0.3702,0.3,0.1234,0.1,stimuli/lakes/906079_left.png,stimuli/lakes/906079_right.png,,,,0,48,48,79,1,,,,,
,,,,,,,$5e63d41865e2a61530a6f4cc,2020-07-20_06h29.24.409,fisher_task,2020.1.3,Win32,60,0.14453125,-0.341145833,1,0,0,3.0829,scale,,,,,,0.21373507,0.173205081,0.326485712,0.264575131,stimuli/lakes/303025_left.png,stimuli/lakes/303025_right.png,,,,0,49,49,25,1,,,,,
,,,,,,,$5e63d41865e2a61530a6f4cc,2020-07-20_06h29.24.409,fisher_task,2020.1.3,Win32,60,0.154947917,-0.403645833,1,0,0,2.28305,scale,,,,,,0.2468,0.2,0.302267034,0.244948974,stimuli/lakes/402014_left.png,stimuli/lakes/402014_right.png,,,,0,50,50,14,1,,,,,
,,,,,,,$5e63d41865e2a61530a6f4cc,2020-07-20_06h29.24.409,fisher_task,2020.1.3,Win32,60,-0.161458333,-0.389322917,1,0,0,1.933045,scale,,,,,,0.326485712,0.264575131,0.21373507,0.173205081,stimuli/lakes/7090128_left.png,stimuli/lakes/7090128_right.png,,,,0,51,51,128,1,,,,,
,,,,,,,$5e63d41865e2a61530a6f4cc,2020-07-20_06h29.24.409,fisher_task,2020.1.3,Win32,60,-0.15234375,-0.390625,1,0,0,1.999895,scale,,,,,,0.302267034,0.244948974,0.2468,0.2,stimuli/lakes/606076_left.png,stimuli/lakes/606076_right.png,,,,0,52,52,76,1,,,,,
,,,,,,,$5e63d41865e2a61530a6f4cc,2020-07-20_06h29.24.409,fisher_task,2020.1.3,Win32,60,0.151041667,-0.397135417,1,0,0,1.583245,scale,,,,,,0.21373507,0.173205081,0.326485712,0.264575131,stimuli/lakes/303034_left.png,stimuli/lakes/303034_right.png,,,,0,53,53,34,1,,,,,
,,,,,,,$5e63d41865e2a61530a6f4cc,2020-07-20_06h29.24.409,fisher_task,2020.1.3,Win32,60,-0.125,-0.309895833,1,0,0,2.999795,scale,,,,,,0.326485712,0.264575131,0.21373507,0.173205081,stimuli/lakes/704047_left.png,stimuli/lakes/704047_right.png,,,,0,54,54,47,1,,,,,
,,,,,,,$5e63d41865e2a61530a6f4cc,2020-07-20_06h29.24.409,fisher_task,2020.1.3,Win32,60,0.125,-0.32421875,1,0,0,1.482985,scale,,,,,,0.21373507,0.173205081,0.326485712,0.264575131,stimuli/lakes/306073_left.png,stimuli/lakes/306073_right.png,,,,0,55,55,73,1,,,,,
,,,,,,,$5e63d41865e2a61530a6f4cc,2020-07-20_06h29.24.409,fisher_task,2020.1.3,Win32,60,-0.151041667,-0.372395833,1,0,0,2.51658,scale,,,,,,0.3702,0.3,0.1234,0.1,stimuli/lakes/903040_left.png,stimuli/lakes/903040_right.png,,,,0,56,56,40,1,,,,,
,,,,,,,$5e63d41865e2a61530a6f4cc,2020-07-20_06h29.24.409,fisher_task,2020.1.3,Win32,60,-0.158854167,-0.415364583,1,0,0,1.93325,scale,,,,,,0.349027907,0.282842712,0.174513954,0.141421356,stimuli/lakes/807096_left.png,stimuli/lakes/807096_right.png,,,,0,57,57,96,1,,,,,
,,,,,,,$5e63d41865e2a61530a6f4cc,2020-07-20_06h29.24.409,fisher_task,2020.1.3,Win32,60,0.14453125,-0.41796875,1,0,0,2.3668,scale,,,,,,0.174513954,0.141421356,0.349027907,0.282842712,stimuli/lakes/202011_left.png,stimuli/lakes/202011_right.png,,,,0,58,58,11,1,,,,,
,,,,,,,$5e63d41865e2a61530a6f4cc,2020-07-20_06h29.24.409,fisher_task,2020.1.3,Win32,60,0.1171875,-0.31640625,1,0,0,6.16672,scale,,,,,,0.2468,0.2,0.302267034,0.244948974,stimuli/lakes/406074_left.png,stimuli/lakes/406074_right.png,,,,0,59,59,74,1,,,,,
,,,,,,,$5e63d41865e2a61530a6f4cc,2020-07-20_06h29.24.409,fisher_task,2020.1.3,Win32,60,-0.161458333,-0.40625,1,0,0,2.466575,scale,,,,,,0.302267034,0.244948974,0.2468,0.2,stimuli/lakes/6090126_left.png,stimuli/lakes/6090126_right.png,,,,0,60,60,126,1,,,,,
,,,,,,,$5e63d41865e2a61530a6f4cc,2020-07-20_06h29.24.409,fisher_task,2020.1.3,Win32,60,0.106770833,-0.3046875,1,0,0,1.683155,scale,,,,,,0.2468,0.2,0.302267034,0.244948974,stimuli/lakes/404044_left.png,stimuli/lakes/404044_right.png,,,,0,61,61,44,1,,,,,
,,,,,,,$5e63d41865e2a61530a6f4cc,2020-07-20_06h29.24.409,fisher_task,2020.1.3,Win32,60,0.126302083,-0.329427083,1,0,0,1.733265,scale,,,,,,0.174513954,0.141421356,0.349027907,0.282842712,stimuli/lakes/206072_left.png,stimuli/lakes/206072_right.png,,,,0,62,62,72,1,,,,,
,,,,,,,$5e63d41865e2a61530a6f4cc,2020-07-20_06h29.24.409,fisher_task,2020.1.3,Win32,60,-0.048177083,-0.2578125,1,0,0,1.832945,scale,,,,,,0.326485712,0.264575131,0.21373507,0.173205081,stimuli/lakes/702020_left.png,stimuli/lakes/702020_right.png,,,,0,63,63,20,1,,,,,
,,,,,,,$5e63d41865e2a61530a6f4cc,2020-07-20_06h29.24.409,fisher_task,2020.1.3,Win32,60,0.1484375,-0.393229167,1,0,0,4.13306,scale,,,,,,0.1234,0.1,0.3702,0.3,stimuli/lakes/103032_left.png,stimuli/lakes/103032_right.png,,,,0,64,64,32,1,,,,,
,,,,,,,$5e63d41865e2a61530a6f4cc,2020-07-20_06h29.24.409,fisher_task,2020.1.3,Win32,60,-0.041666667,-0.255208333,1,0,0,1.5833,scale,,,,,,0.3702,0.3,0.1234,0.1,stimuli/lakes/903031_left.png,stimuli/lakes/903031_right.png,,,,0,65,65,31,1,,,,,
,,,,,,,$5e63d41865e2a61530a6f4cc,2020-07-20_06h29.24.409,fisher_task,2020.1.3,Win32,60,-0.059895833,-0.265625,1,0,0,2.583265,scale,,,,,,0.3702,0.3,0.1234,0.1,stimuli/lakes/901010_left.png,stimuli/lakes/901010_right.png,,,space,0,66,66,10,1,1.553655,,,,
,,,,,,,$5e63d41865e2a61530a6f4cc,2020-07-20_06h29.24.409,fisher_task,2020.1.3,Win32,60,0.110677083,-0.286458333,1,0,0,1.34947,scale,,,,,,0.275930788,0.223606798,0.275930788,0.223606798,stimuli/lakes/504045_left.png,stimuli/lakes/504045_right.png,,,,0,67,67,45,1,,,,,
,,,,,,,$5e63d41865e2a61530a6f4cc,2020-07-20_06h29.24.409,fisher_task,2020.1.3,Win32,60,0.14453125,-0.37109375,1,0,0,1.499855,scale,,,,,,0.275930788,0.223606798,0.275930788,0.223606798,stimuli/lakes/502016_left.png,stimuli/lakes/502016_right.png,,,,0,68,68,16,1,,,,,
,,,,,,,$5e63d41865e2a61530a6f4cc,2020-07-20_06h29.24.409,fisher_task,2020.1.3,Win32,60,-0.0859375,-0.279947917,1,0,0,3.09967,scale,,,,,,0.3702,0.3,0.1234,0.1,stimuli/lakes/904049_left.png,stimuli/lakes/904049_right.png,,,,0,69,69,49,1,,,,,
,,,,,,,$5e63d41865e2a61530a6f4cc,2020-07-20_06h29.24.409,fisher_task,2020.1.3,Win32,60,-0.078125,-0.2734375,1,0,0,1.66679,scale,,,,,,0.302267034,0.244948974,0.2468,0.2,stimuli/lakes/604046_left.png,stimuli/lakes/604046_right.png,,,,0,70,70,46,1,,,,,
,,,,,,,$5e63d41865e2a61530a6f4cc,2020-07-20_06h29.24.409,fisher_task,2020.1.3,Win32,60,-0.032552083,-0.2578125,1,0,0,2.29991,scale,,,,,,0.349027907,0.282842712,0.174513954,0.141421356,stimuli/lakes/803030_left.png,stimuli/lakes/803030_right.png,,,,0,71,71,30,1,,,,,
,,,,,,,$5e63d41865e2a61530a6f4cc,2020-07-20_06h29.24.409,fisher_task,2020.1.3,Win32,60,0.118489583,-0.3203125,1,0,0,2.78326,scale,,,,,,0.2468,0.2,0.302267034,0.244948974,stimuli/lakes/405064_left.png,stimuli/lakes/405064_right.png,,,,0,72,72,64,1,,,,,
,,,,,,,$5e63d41865e2a61530a6f4cc,2020-07-20_06h29.24.409,fisher_task,2020.1.3,Win32,60,-0.16796875,-0.421875,1,0,0,1.81634,scale,,,,,,0.349027907,0.282842712,0.174513954,0.141421356,stimuli/lakes/8080118_left.png,stimuli/lakes/8080118_right.png,,,,0,73,73,118,1,,,,,
,,,,,,,$5e63d41865e2a61530a6f4cc,2020-07-20_06h29.24.409,fisher_task,2020.1.3,Win32,60,-0.018229167,-0.2578125,1,0,0,1.483225,scale,,,,,,0.349027907,0.282842712,0.174513954,0.141421356,stimuli/lakes/80109_left.png,stimuli/lakes/80109_right.png,,,,0,74,74,9,1,,,,,
,,,,,,,$5e63d41865e2a61530a6f4cc,2020-07-20_06h29.24.409,fisher_task,2020.1.3,Win32,60,0.153645833,-0.391927083,1,0,0,2.31657,scale,,,,,,0.2468,0.2,0.302267034,0.244948974,stimuli/lakes/40102_left.png,stimuli/lakes/40102_right.png,,,,0,75,75,2,1,,,,,
,,,,,,,$5e63d41865e2a61530a6f4cc,2020-07-20_06h29.24.409,fisher_task,2020.1.3,Win32,60,-0.154947917,-0.41796875,1,0,0,1.94988,scale,,,,,,0.349027907,0.282842712,0.174513954,0.141421356,stimuli/lakes/8070105_left.png,stimuli/lakes/8070105_right.png,,,,0,76,76,105,1,,,,,
,,,,,,,$5e63d41865e2a61530a6f4cc,2020-07-20_06h29.24.409,fisher_task,2020.1.3,Win32,60,-0.15625,-0.404947917,1,0,0,1.93331,scale,,,,,,0.349027907,0.282842712,0.174513954,0.141421356,stimuli/lakes/806078_left.png,stimuli/lakes/806078_right.png,,,,0,77,77,78,1,,,,,
,,,,,,,$5e63d41865e2a61530a6f4cc,2020-07-20_06h29.24.409,fisher_task,2020.1.3,Win32,60,-0.1484375,-0.36328125,1,0,0,3.333335,scale,,,,,,0.275930788,0.223606798,0.275930788,0.223606798,stimuli/lakes/5090125_left.png,stimuli/lakes/5090125_right.png,,,,0,78,78,125,1,,,,,
,,,,,,,$5e63d41865e2a61530a6f4cc,2020-07-20_06h29.24.409,fisher_task,2020.1.3,Win32,60,0.147135417,-0.412760417,1,0,0,1.85012,scale,,,,,,0.1234,0.1,0.3702,0.3,stimuli/lakes/103023_left.png,stimuli/lakes/103023_right.png,,,,0,79,79,23,1,,,,,
,,,,,,,$5e63d41865e2a61530a6f4cc,2020-07-20_06h29.24.409,fisher_task,2020.1.3,Win32,60,0.069010417,-0.26953125,1,0,0,2.715765,scale,,,,,,0.174513954,0.141421356,0.349027907,0.282842712,stimuli/lakes/207090_left.png,stimuli/lakes/207090_right.png,,,,0,80,80,90,1,,,,,
,,,,,,,$5e63d41865e2a61530a6f4cc,2020-07-20_06h29.24.409,fisher_task,2020.1.3,Win32,60,-0.098958333,-0.294270833,1,0,0,2.833305,scale,,,,,,0.349027907,0.282842712,0.174513954,0.141421356,stimuli/lakes/804048_left.png,stimuli/lakes/804048_right.png,,,,0,81,81,48,1,,,,,
,,,,,,,$5e63d41865e2a61530a6f4cc,2020-07-20_06h29.24.409,fisher_task,2020.1.3,Win32,60,0.122395833,-0.322916667,1,0,0,2.566595,scale,,,,,,0.302267034,0.244948974,0.2468,0.2,stimuli/lakes/602018_left.png,stimuli/lakes/602018_right.png,,,,0,82,82,18,1,,,,,
,,,,,,,$5e63d41865e2a61530a6f4cc,2020-07-20_06h29.24.409,fisher_task,2020.1.3,Win32,60,0.12890625,-0.338541667,1,0,0,2.033245,scale,,,,,,0.275930788,0.223606798,0.275930788,0.223606798,stimuli/lakes/50104_left.png,stimuli/lakes/50104_right.png,,,,0,83,83,4,1,,,,,
,,,,,,,$5e63d41865e2a61530a6f4cc,2020-07-20_06h29.24.409,fisher_task,2020.1.3,Win32,60,-0.028645833,-0.25,1,0,0,1.66637,scale,,,,,,0.326485712,0.264575131,0.21373507,0.173205081,stimuli/lakes/702019_left.png,stimuli/lakes/702019_right.png,,,,0,84,84,19,1,,,,,
,,,,,,,$5e63d41865e2a61530a6f4cc,2020-07-20_06h29.24.409,fisher_task,2020.1.3,Win32,60,-0.162760417,-0.41015625,1,0,0,1.88323,scale,,,,,,0.302267034,0.244948974,0.2468,0.2,stimuli/lakes/6090127_left.png,stimuli/lakes/6090127_right.png,,,,0,85,85,127,1,,,,,
,,,,,,,$5e63d41865e2a61530a6f4cc,2020-07-20_06h29.24.409,fisher_task,2020.1.3,Win32,60,-0.134114583,-0.333333333,1,0,0,2.71657,scale,,,,,,0.21373507,0.173205081,0.326485712,0.264575131,stimuli/lakes/306082_left.png,stimuli/lakes/306082_right.png,,,,0,86,86,82,1,,,,,
,,,,,,,$5e63d41865e2a61530a6f4cc,2020-07-20_06h29.24.409,fisher_task,2020.1.3,Win32,60,0.138020833,-0.33984375,1,0,0,1.633655,scale,,,,,,0.275930788,0.223606798,0.275930788,0.223606798,stimuli/lakes/503027_left.png,stimuli/lakes/503027_right.png,,,,0,87,87,27,1,,,,,
,,,,,,,$5e63d41865e2a61530a6f4cc,2020-07-20_06h29.24.409,fisher_task,2020.1.3,Win32,60,-0.010416667,-0.255208333,1,0,0,3.73335,scale,,,,,,0.302267034,0.244948974,0.2468,0.2,stimuli/lakes/604055_left.png,stimuli/lakes/604055_right.png,,,space,0,88,88,55,1,1.652855,,,,
,,,,,,,$5e63d41865e2a61530a6f4cc,2020-07-20_06h29.24.409,fisher_task,2020.1.3,Win32,60,0.044270833,-0.263020833,1,0,0,3.51635,scale,,,,,,0.2468,0.2,0.302267034,0.244948974,stimuli/lakes/4090123_left.png,stimuli/lakes/4090123_right.png,,,,0,89,89,123,1,,,,,
,,,,,,,$5e63d41865e2a61530a6f4cc,2020-07-20_06h29.24.409,fisher_task,2020.1.3,Win32,60,0.102864583,-0.309895833,1,0,0,3.199825,scale,,,,,,0.2468,0.2,0.302267034,0.244948974,stimuli/lakes/403026_left.png,stimuli/lakes/403026_right.png,,,,0,90,90,26,1,,,,,
,,,,,,,$5e63d41865e2a61530a6f4cc,2020-07-20_06h29.24.409,fisher_task,2020.1.3,Win32,60,-0.161458333,-0.40234375,1,0,0,1.933325,scale,,,,,,0.302267034,0.244948974,0.2468,0.2,stimuli/lakes/6080115_left.png,stimuli/lakes/6080115_right.png,,,,0,91,91,115,1,,,,,
,,,,,,,$5e63d41865e2a61530a6f4cc,2020-07-20_06h29.24.409,fisher_task,2020.1.3,Win32,60,-0.16015625,-0.40625,1,0,0,1.68324,scale,,,,,,0.3702,0.3,0.1234,0.1,stimuli/lakes/9070106_left.png,stimuli/lakes/9070106_right.png,,,,0,92,92,106,1,,,,,
,,,,,,,$5e63d41865e2a61530a6f4cc,2020-07-20_06h29.24.409,fisher_task,2020.1.3,Win32,60,0.063802083,-0.268229167,1,0,0,2.766585,scale,,,,,,0.21373507,0.173205081,0.326485712,0.264575131,stimuli/lakes/3080109_left.png,stimuli/lakes/3080109_right.png,,,,0,93,93,109,1,,,,,
,,,,,,,$5e63d41865e2a61530a6f4cc,2020-07-20_06h29.24.409,fisher_task,2020.1.3,Win32,60,0.115885417,-0.315104167,1,0,0,2.60005,scale,,,,,,0.174513954,0.141421356,0.349027907,0.282842712,stimuli/lakes/205060_left.png,stimuli/lakes/205060_right.png,,,,0,94,94,60,1,,,,,
,,,,,,,$5e63d41865e2a61530a6f4cc,2020-07-20_06h29.24.409,fisher_task,2020.1.3,Win32,60,0.135416667,-0.358072917,1,0,0,2.26658,scale,,,,,,0.1234,0.1,0.3702,0.3,stimuli/lakes/106071_left.png,stimuli/lakes/106071_right.png,,,,0,95,95,71,1,,,,,
,,,,,,,$5e63d41865e2a61530a6f4cc,2020-07-20_06h29.24.409,fisher_task,2020.1.3,Win32,60,0.053385417,-0.268229167,1,0,0,3.000035,scale,,,,,,0.2468,0.2,0.302267034,0.244948974,stimuli/lakes/4080112_left.png,stimuli/lakes/4080112_right.png,,,,0,96,96,112,1,,,,,
,,,,,,,$5e63d41865e2a61530a6f4cc,2020-07-20_06h29.24.409,fisher_task,2020.1.3,Win32,60,-0.162760417,-0.40234375,1,0,0,1.366505,scale,,,,,,0.326485712,0.264575131,0.21373507,0.173205081,stimuli/lakes/707095_left.png,stimuli/lakes/707095_right.png,,,,0,97,97,95,1,,,,,
,,,,,,,$5e63d41865e2a61530a6f4cc,2020-07-20_06h29.24.409,fisher_task,2020.1.3,Win32,60,-0.147135417,-0.358072917,1,0,0,2.599995,scale,,,,,,0.302267034,0.244948974,0.2468,0.2,stimuli/lakes/605066_left.png,stimuli/lakes/605066_right.png,,,,0,98,98,66,1,,,,,
,,,,,,,$5e63d41865e2a61530a6f4cc,2020-07-20_06h29.24.409,fisher_task,2020.1.3,Win32,60,-0.0625,-0.265625,1,0,0,7.050095,scale,,,,,,0.2468,0.2,0.302267034,0.244948974,stimuli/lakes/4090124_left.png,stimuli/lakes/4090124_right.png,,,,0,99,99,124,1,,,,,
,,,,,,,$5e63d41865e2a61530a6f4cc,2020-07-20_06h29.24.409,fisher_task,2020.1.3,Win32,60,-0.158854167,-0.40234375,1,0,0,2.533195,scale,,,,,,0.302267034,0.244948974,0.2468,0.2,stimuli/lakes/606085_left.png,stimuli/lakes/606085_right.png,,,,0,100,100,85,1,,,,,
,,,,,,,$5e63d41865e2a61530a6f4cc,2020-07-20_06h29.24.409,fisher_task,2020.1.3,Win32,60,-0.07421875,-0.263020833,1,0,0,2.13327,scale,,,,,,0.302267034,0.244948974,0.2468,0.2,stimuli/lakes/6070103_left.png,stimuli/lakes/6070103_right.png,,,,0,101,101,103,1,,,,,
,,,,,,,$5e63d41865e2a61530a6f4cc,2020-07-20_06h29.24.409,fisher_task,2020.1.3,Win32,60,0.100260417,-0.294270833,1,0,0,2.116585,scale,,,,,,0.1234,0.1,0.3702,0.3,stimuli/lakes/107098_left.png,stimuli/lakes/107098_right.png,,,,0,102,102,98,1,,,,,
,,,,,,,$5e63d41865e2a61530a6f4cc,2020-07-20_06h29.24.409,fisher_task,2020.1.3,Win32,60,-0.170572917,-0.41796875,1,0,0,2.183245,scale,,,,,,0.326485712,0.264575131,0.21373507,0.173205081,stimuli/lakes/7090129_left.png,stimuli/lakes/7090129_right.png,,,,0,103,103,129,1,,,,,
,,,,,,,$5e63d41865e2a61530a6f4cc,2020-07-20_06h29.24.409,fisher_task,2020.1.3,Win32,60,0.115885417,-0.313802083,1,0,0,2.18329,scale,,,,,,0.275930788,0.223606798,0.275930788,0.223606798,stimuli/lakes/506084_left.png,stimuli/lakes/506084_right.png,,,,0,104,104,84,1,,,,,
,,,,,,,$5e63d41865e2a61530a6f4cc,2020-07-20_06h29.24.409,fisher_task,2020.1.3,Win32,60,-0.154947917,-0.420572917,1,0,0,1.49989,scale,,,,,,0.326485712,0.264575131,0.21373507,0.173205081,stimuli/lakes/7080117_left.png,stimuli/lakes/7080117_right.png,,,,0,105,105,117,1,,,,,
,,,,,,,$5e63d41865e2a61530a6f4cc,2020-07-20_06h29.24.409,fisher_task,2020.1.3,Win32,60,-0.147135417,-0.34765625,1,0,0,2.083385,scale,,,,,,0.302267034,0.244948974,0.2468,0.2,stimuli/lakes/605065_left.png,stimuli/lakes/605065_right.png,,,,0,106,106,65,1,,,,,
,,,,,,,$5e63d41865e2a61530a6f4cc,2020-07-20_06h29.24.409,fisher_task,2020.1.3,Win32,60,-0.092447917,-0.283854167,1,0,0,8.70024,scale,,,,,,0.302267034,0.244948974,0.2468,0.2,stimuli/lakes/603037_left.png,stimuli/lakes/603037_right.png,,,,0,107,107,37,1,,,,,
,,,,,,,$5e63d41865e2a61530a6f4cc,2020-07-20_06h29.24.409,fisher_task,2020.1.3,Win32,60,0.147135417,-0.408854167,1,0,0,2.083675,scale,,,,,,0.21373507,0.173205081,0.326485712,0.264575131,stimuli/lakes/30101_left.png,stimuli/lakes/30101_right.png,,,,0,108,108,1,1,,,,,
,,,,,,,$5e63d41865e2a61530a6f4cc,2020-07-20_06h29.24.409,fisher_task,2020.1.3,Win32,60,-0.165364583,-0.403645833,1,0,0,1.88298,scale,,,,,,0.326485712,0.264575131,0.21373507,0.173205081,stimuli/lakes/7080116_left.png,stimuli/lakes/7080116_right.png,,,,0,109,109,116,1,,,,,
,,,,,,,$5e63d41865e2a61530a6f4cc,2020-07-20_06h29.24.409,fisher_task,2020.1.3,Win32,60,-0.140625,-0.337239583,1,0,0,2.483005,scale,,,,,,0.3702,0.3,0.1234,0.1,stimuli/lakes/905070_left.png,stimuli/lakes/905070_right.png,,,space,0,110,110,70,1,1.199745,,,,
,,,,,,,$5e63d41865e2a61530a6f4cc,2020-07-20_06h29.24.409,fisher_task,2020.1.3,Win32,60,0.14453125,-0.358072917,1,0,0,1.94992,scale,,,,,,0.21373507,0.173205081,0.326485712,0.264575131,stimuli/lakes/304052_left.png,stimuli/lakes/304052_right.png,,,,0,111,111,52,1,,,,,
,,,,,,,$5e63d41865e2a61530a6f4cc,2020-07-20_06h29.24.409,fisher_task,2020.1.3,Win32,60,-0.130208333,-0.325520833,1,0,0,3.383275,scale,,,,,,0.349027907,0.282842712,0.174513954,0.141421356,stimuli/lakes/804057_left.png,stimuli/lakes/804057_right.png,,,,0,112,112,57,1,,,,,
,,,,,,,$5e63d41865e2a61530a6f4cc,2020-07-20_06h29.24.409,fisher_task,2020.1.3,Win32,60,0.141927083,-0.345052083,1,0,0,2.36649,scale,,,,,,0.1234,0.1,0.3702,0.3,stimuli/lakes/106080_left.png,stimuli/lakes/106080_right.png,,,,0,113,113,80,1,,,,,
,,,,,,,$5e63d41865e2a61530a6f4cc,2020-07-20_06h29.24.409,fisher_task,2020.1.3,Win32,60,0.083333333,-0.276041667,1,0,0,3.49998,scale,,,,,,0.2468,0.2,0.302267034,0.244948974,stimuli/lakes/406083_left.png,stimuli/lakes/406083_right.png,,,,0,114,114,83,1,,,,,
,,,,,,,$5e63d41865e2a61530a6f4cc,2020-07-20_06h29.24.409,fisher_task,2020.1.3,Win32,60,-0.134114583,-0.338541667,1,0,0,1.84988,scale,,,,,,0.275930788,0.223606798,0.275930788,0.223606798,stimuli/lakes/507093_left.png,stimuli/lakes/507093_right.png,,,,0,115,115,93,1,,,,,
,,,,,,,$5e63d41865e2a61530a6f4cc,2020-07-20_06h29.24.409,fisher_task,2020.1.3,Win32,60,-0.12890625,-0.325520833,1,0,0,5.60011,scale,,,,,,0.326485712,0.264575131,0.21373507,0.173205081,stimuli/lakes/706086_left.png,stimuli/lakes/706086_right.png,,,,0,116,116,86,1,,,,,
,,,,,,,$5e63d41865e2a61530a6f4cc,2020-07-20_06h29.24.409,fisher_task,2020.1.3,Win32,60,0.15625,-0.380208333,1,0,0,1.36633,scale,,,,,,0.174513954,0.141421356,0.349027907,0.282842712,stimuli/lakes/203033_left.png,stimuli/lakes/203033_right.png,,,,0,117,117,33,1,,,,,
,,,,,,,$5e63d41865e2a61530a6f4cc,2020-07-20_06h29.24.409,fisher_task,2020.1.3,Win32,60,0.118489583,-0.329427083,1,0,0,1.683,scale,,,,,,0.174513954,0.141421356,0.349027907,0.282842712,stimuli/lakes/204051_left.png,stimuli/lakes/204051_right.png,,,,0,118,118,51,1,,,,,
,,,,,,,$5e63d41865e2a61530a6f4cc,2020-07-20_06h29.24.409,fisher_task,2020.1.3,Win32,60,-0.15625,-0.388020833,1,0,0,2.19969,scale,,,,,,0.3702,0.3,0.1234,0.1,stimuli/lakes/906088_left.png,stimuli/lakes/906088_right.png,,,,0,119,119,88,1,,,,,
,,,,,,,$5e63d41865e2a61530a6f4cc,2020-07-20_06h29.24.409,fisher_task,2020.1.3,Win32,60,0.134114583,-0.348958333,1,0,0,1.81627,scale,,,,,,0.21373507,0.173205081,0.326485712,0.264575131,stimuli/lakes/305062_left.png,stimuli/lakes/305062_right.png,,,,0,120,120,62,1,,,,,
,,,,,,,$5e63d41865e2a61530a6f4cc,2020-07-20_06h29.24.409,fisher_task,2020.1.3,Win32,60,0.12890625,-0.337239583,1,0,0,3.316575,scale,,,,,,0.302267034,0.244948974,0.2468,0.2,stimuli/lakes/602017_left.png,stimuli/lakes/602017_right.png,,,,0,121,121,17,1,,,,,
,,,,,,,$5e63d41865e2a61530a6f4cc,2020-07-20_06h29.24.409,fisher_task,2020.1.3,Win32,60,0.083333333,-0.279947917,1,0,0,3.833125,scale,,,,,,0.2468,0.2,0.302267034,0.244948974,stimuli/lakes/407092_left.png,stimuli/lakes/407092_right.png,,,,0,122,122,92,1,,,,,
,,,,,,,$5e63d41865e2a61530a6f4cc,2020-07-20_06h29.24.409,fisher_task,2020.1.3,Win32,60,0.046875,-0.2578125,1,0,0,3.73335,scale,,,,,,0.1234,0.1,0.3702,0.3,stimuli/lakes/1080107_left.png,stimuli/lakes/1080107_right.png,,,,0,123,123,107,1,,,,,
,,,,,,,$5e63d41865e2a61530a6f4cc,2020-07-20_06h29.24.409,fisher_task,2020.1.3,Win32,60,-0.147135417,-0.360677083,1,0,0,5.683395,scale,,,,,,0.275930788,0.223606798,0.275930788,0.223606798,stimuli/lakes/5070102_left.png,stimuli/lakes/5070102_right.png,,,,0,124,124,102,1,,,,,
,,,,,,,$5e63d41865e2a61530a6f4cc,2020-07-20_06h29.24.409,fisher_task,2020.1.3,Win32,60,-0.157552083,-0.39453125,1,0,0,2.266955,scale,,,,,,0.275930788,0.223606798,0.275930788,0.223606798,stimuli/lakes/5080113_left.png,stimuli/lakes/5080113_right.png,,,,0,125,125,113,1,,,,,
,,,,,,,$5e63d41865e2a61530a6f4cc,2020-07-20_06h29.24.409,fisher_task,2020.1.3,Win32,60,0.157552083,-0.407552083,1,0,0,2.61664,scale,,,,,,0.21373507,0.173205081,0.326485712,0.264575131,stimuli/lakes/30100_left.png,stimuli/lakes/30100_right.png,,,,0,126,126,0,1,,,,,
,,,,,,,$5e63d41865e2a61530a6f4cc,2020-07-20_06h29.24.409,fisher_task,2020.1.3,Win32,60,0.153645833,-0.407552083,1,0,0,1.73316,scale,,,,,,0.1234,0.1,0.3702,0.3,stimuli/lakes/104050_left.png,stimuli/lakes/104050_right.png,,,,0,127,127,50,1,,,,,
,,,,,,,$5e63d41865e2a61530a6f4cc,2020-07-20_06h29.24.409,fisher_task,2020.1.3,Win32,60,0.134114583,-0.33984375,1,0,0,2.049965,scale,,,,,,0.2468,0.2,0.302267034,0.244948974,stimuli/lakes/403035_left.png,stimuli/lakes/403035_right.png,,,,0,128,128,35,1,,,,,
,,,,,,,$5e63d41865e2a61530a6f4cc,2020-07-20_06h29.24.409,fisher_task,2020.1.3,Win32,60,0.153645833,-0.411458333,1,0,0,1.999995,scale,,,,,,0.21373507,0.173205081,0.326485712,0.264575131,stimuli/lakes/302012_left.png,stimuli/lakes/302012_right.png,,,,0,129,129,12,1,,,,,
,,,,,,,$5e63d41865e2a61530a6f4cc,2020-07-20_06h29.24.409,fisher_task,2020.1.3,Win32,60,,,,,,,,,,,,,,,,,,,,,,,,,,,,space,8.537315,space,38.15738
