keySpace.keys,instructions.thisRepN,instructions.thisTrialN,instructions.thisN,instructions.thisIndex,instructions.ran,participant,date,expName,psychopyVersion,OS,frameRate,mouse.x,mouse.y,mouse.leftButton,mouse.midButton,mouse.rightButton,mouse.time,mouse.clicked_name,training.thisRepN,training.thisTrialN,training.thisN,training.thisIndex,training.ran,widthBasketLeft,heightBasketLeft,widthBasketRight,heightBasketRight,leftLake,rightLake,space2.keys,space2.rt,space1.keys,trials.thisRepN,trials.thisTrialN,trials.thisN,trials.thisIndex,trials.ran,space1.rt,finalSpace1.keys,finalSpace1.rt,finalSpace2.keys,finalSpace2.rt
,0,0,0,0,1,$5ea079d45f2eaf03fdb21a1c,2020-07-21_16h44.25.720,fisher_task,2020.1.3,Win32,60,,,,,,,,,,,,,,,,,,,,,,,,,,,,,,,
,,,,,,$5ea079d45f2eaf03fdb21a1c,2020-07-21_16h44.25.720,fisher_task,2020.1.3,Win32,60,-0.205555556,-0.017592593,1,0,0,0.0998,scale,0,0,0,0,1,0.275930788,0.223606798,0.275930788,0.223606798,stimuli/training/20_left.png,stimuli/training/20_right.png,,,,,,,,,,,,,
,,,,,,$5ea079d45f2eaf03fdb21a1c,2020-07-21_16h44.25.720,fisher_task,2020.1.3,Win32,60,0.139814815,-0.365740741,1,0,0,1.699475,scale,0,1,1,1,1,0.275930788,0.223606798,0.275930788,0.223606798,stimuli/training/80_left.png,stimuli/training/80_right.png,,,,,,,,,,,,,
,,,,,,$5ea079d45f2eaf03fdb21a1c,2020-07-21_16h44.25.720,fisher_task,2020.1.3,Win32,60,0.137037037,-0.365740741,1,0,0,2.03288,scale,0,2,2,2,1,0.174513954,0.141421356,0.349027907,0.282842712,stimuli/training/50_left.png,stimuli/training/50_right.png,,,,,,,,,,,,,
,,,,,,$5ea079d45f2eaf03fdb21a1c,2020-07-21_16h44.25.720,fisher_task,2020.1.3,Win32,60,-0.221296296,-0.450925926,1,0,0,2.8334,scale,0,3,3,3,1,0.349027907,0.282842712,0.174513954,0.141421356,stimuli/training/50_left.png,stimuli/training/50_right.png,,,,,,,,,,,,,
,,,,,,$5ea079d45f2eaf03fdb21a1c,2020-07-21_16h44.25.720,fisher_task,2020.1.3,Win32,60,0.113888889,-0.278703704,1,0,0,0.48319,scale,0,4,4,4,1,0.275930788,0.223606798,0.275930788,0.223606798,stimuli/training/50_left.png,stimuli/training/50_right.png,,,,,,,,,,,,,
,,,,,,$5ea079d45f2eaf03fdb21a1c,2020-07-21_16h44.25.720,fisher_task,2020.1.3,Win32,60,0.165740741,-0.071296296,1,0,0,0.749495,scale,0,5,5,5,1,0.174513954,0.141421356,0.349027907,0.282842712,stimuli/training/20_left.png,stimuli/training/20_right.png,,,,,,,,,,,,,
,,,,,,$5ea079d45f2eaf03fdb21a1c,2020-07-21_16h44.25.720,fisher_task,2020.1.3,Win32,60,-0.146296296,-0.405555556,1,0,0,1.633045,scale,0,6,6,6,1,0.349027907,0.282842712,0.174513954,0.141421356,stimuli/training/80_left.png,stimuli/training/80_right.png,,,,,,,,,,,,,
,,,,,,$5ea079d45f2eaf03fdb21a1c,2020-07-21_16h44.25.720,fisher_task,2020.1.3,Win32,60,0.216666667,-0.476851852,1,0,0,1.33319,scale,0,7,7,7,1,0.1234,0.1,0.3702,0.3,stimuli/training/30_left.png,stimuli/training/30_right.png,,,,,,,,,,,,,
,,,,,,$5ea079d45f2eaf03fdb21a1c,2020-07-21_16h44.25.720,fisher_task,2020.1.3,Win32,60,-0.162037037,-0.428703704,1,0,0,1.165945,scale,0,8,8,8,1,0.3702,0.3,0.1234,0.1,stimuli/training/70_left.png,stimuli/training/70_right.png,,,,,,,,,,,,,
,,,,,,$5ea079d45f2eaf03fdb21a1c,2020-07-21_16h44.25.720,fisher_task,2020.1.3,Win32,60,0.169102296,-0.46868476,1,0,0,0.73296,scale,0,9,9,9,1,0.326485712,0.264575131,0.21373507,0.173205081,stimuli/training/90_left.png,stimuli/training/90_right.png,,,,,,,,,,,,,
,,,,,,$5ea079d45f2eaf03fdb21a1c,2020-07-21_16h44.25.720,fisher_task,2020.1.3,Win32,60,0.151851852,-0.37037037,1,0,0,13.33321,scale,0,10,10,10,1,0.21373507,0.173205081,0.326485712,0.264575131,stimuli/training/10_left.png,stimuli/training/10_right.png,,,,,,,,,,,,,
,,,,,,$5ea079d45f2eaf03fdb21a1c,2020-07-21_16h44.25.720,fisher_task,2020.1.3,Win32,60,0.155555556,-0.338888889,1,0,0,1.716435,scale,,,,,,0.21373507,0.173205081,0.326485712,0.264575131,stimuli/lakes/306082_left.png,stimuli/lakes/306082_right.png,space,3.229885,,0,0,0,82,1,,,,,
,,,,,,$5ea079d45f2eaf03fdb21a1c,2020-07-21_16h44.25.720,fisher_task,2020.1.3,Win32,60,0.112962963,-0.325925926,1,0,0,2.249685,scale,,,,,,0.2468,0.2,0.302267034,0.244948974,stimuli/lakes/406083_left.png,stimuli/lakes/406083_right.png,,,,0,1,1,83,1,,,,,
,,,,,,$5ea079d45f2eaf03fdb21a1c,2020-07-21_16h44.25.720,fisher_task,2020.1.3,Win32,60,-0.142592593,-0.323148148,1,0,0,1.099565,scale,,,,,,0.302267034,0.244948974,0.2468,0.2,stimuli/lakes/6070103_left.png,stimuli/lakes/6070103_right.png,,,,0,2,2,103,1,,,,,
,,,,,,$5ea079d45f2eaf03fdb21a1c,2020-07-21_16h44.25.720,fisher_task,2020.1.3,Win32,60,0.164814815,-0.358333333,1,0,0,1.68314,scale,,,,,,0.275930788,0.223606798,0.275930788,0.223606798,stimuli/lakes/504054_left.png,stimuli/lakes/504054_right.png,,,,0,3,3,54,1,,,,,
,,,,,,$5ea079d45f2eaf03fdb21a1c,2020-07-21_16h44.25.720,fisher_task,2020.1.3,Win32,60,0.136111111,-0.338888889,1,0,0,1.74971,scale,,,,,,0.275930788,0.223606798,0.275930788,0.223606798,stimuli/lakes/503027_left.png,stimuli/lakes/503027_right.png,,,,0,4,4,27,1,,,,,
,,,,,,$5ea079d45f2eaf03fdb21a1c,2020-07-21_16h44.25.720,fisher_task,2020.1.3,Win32,60,-0.138888889,-0.312962963,1,0,0,1.699835,scale,,,,,,0.349027907,0.282842712,0.174513954,0.141421356,stimuli/lakes/805069_left.png,stimuli/lakes/805069_right.png,,,,0,5,5,69,1,,,,,
,,,,,,$5ea079d45f2eaf03fdb21a1c,2020-07-21_16h44.25.720,fisher_task,2020.1.3,Win32,60,-0.137962963,-0.325,1,0,0,3.48304,scale,,,,,,0.302267034,0.244948974,0.2468,0.2,stimuli/lakes/606076_left.png,stimuli/lakes/606076_right.png,,,,0,6,6,76,1,,,,,
,,,,,,$5ea079d45f2eaf03fdb21a1c,2020-07-21_16h44.25.720,fisher_task,2020.1.3,Win32,60,-0.123148148,-0.298148148,1,0,0,1.666125,scale,,,,,,0.3702,0.3,0.1234,0.1,stimuli/lakes/903040_left.png,stimuli/lakes/903040_right.png,,,,0,7,7,40,1,,,,,
,,,,,,$5ea079d45f2eaf03fdb21a1c,2020-07-21_16h44.25.720,fisher_task,2020.1.3,Win32,60,0.136111111,-0.32037037,1,0,0,2.2495,scale,,,,,,0.302267034,0.244948974,0.2468,0.2,stimuli/lakes/60105_left.png,stimuli/lakes/60105_right.png,,,,0,8,8,5,1,,,,,
,,,,,,$5ea079d45f2eaf03fdb21a1c,2020-07-21_16h44.25.720,fisher_task,2020.1.3,Win32,60,0.174074074,-0.393518519,1,0,0,4.332655,scale,,,,,,0.2468,0.2,0.302267034,0.244948974,stimuli/lakes/405063_left.png,stimuli/lakes/405063_right.png,,,,0,9,9,63,1,,,,,
,,,,,,$5ea079d45f2eaf03fdb21a1c,2020-07-21_16h44.25.720,fisher_task,2020.1.3,Win32,60,-0.153703704,-0.398148148,1,0,0,1.916355,scale,,,,,,0.302267034,0.244948974,0.2468,0.2,stimuli/lakes/605066_left.png,stimuli/lakes/605066_right.png,,,,0,10,10,66,1,,,,,
,,,,,,$5ea079d45f2eaf03fdb21a1c,2020-07-21_16h44.25.720,fisher_task,2020.1.3,Win32,60,-0.116666667,-0.291666667,1,0,0,2.21633,scale,,,,,,0.326485712,0.264575131,0.21373507,0.173205081,stimuli/lakes/704056_left.png,stimuli/lakes/704056_right.png,,,,0,11,11,56,1,,,,,
,,,,,,$5ea079d45f2eaf03fdb21a1c,2020-07-21_16h44.25.720,fisher_task,2020.1.3,Win32,60,-0.152777778,-0.389814815,1,0,0,1.616375,scale,,,,,,0.275930788,0.223606798,0.275930788,0.223606798,stimuli/lakes/507093_left.png,stimuli/lakes/507093_right.png,,,,0,12,12,93,1,,,,,
,,,,,,$5ea079d45f2eaf03fdb21a1c,2020-07-21_16h44.25.720,fisher_task,2020.1.3,Win32,60,0.161111111,-0.423148148,1,0,0,6.91625,scale,,,,,,0.326485712,0.264575131,0.21373507,0.173205081,stimuli/lakes/703038_left.png,stimuli/lakes/703038_right.png,,,,0,13,13,38,1,,,,,
,,,,,,$5ea079d45f2eaf03fdb21a1c,2020-07-21_16h44.25.720,fisher_task,2020.1.3,Win32,60,0.182407407,-0.428703704,1,0,0,2.949765,scale,,,,,,0.1234,0.1,0.3702,0.3,stimuli/lakes/107089_left.png,stimuli/lakes/107089_right.png,,,,0,14,14,89,1,,,,,
,,,,,,$5ea079d45f2eaf03fdb21a1c,2020-07-21_16h44.25.720,fisher_task,2020.1.3,Win32,60,-0.151851852,-0.346296296,1,0,0,4.58314,scale,,,,,,0.326485712,0.264575131,0.21373507,0.173205081,stimuli/lakes/705067_left.png,stimuli/lakes/705067_right.png,,,,0,15,15,67,1,,,,,
,,,,,,$5ea079d45f2eaf03fdb21a1c,2020-07-21_16h44.25.720,fisher_task,2020.1.3,Win32,60,-0.146296296,-0.327777778,1,0,0,11.89993,scale,,,,,,0.174513954,0.141421356,0.349027907,0.282842712,stimuli/lakes/207090_left.png,stimuli/lakes/207090_right.png,,,,0,16,16,90,1,,,,,
,,,,,,$5ea079d45f2eaf03fdb21a1c,2020-07-21_16h44.25.720,fisher_task,2020.1.3,Win32,60,-0.131481481,-0.348148148,1,0,0,14.182865,scale,,,,,,0.3702,0.3,0.1234,0.1,stimuli/lakes/906079_left.png,stimuli/lakes/906079_right.png,,,,0,17,17,79,1,,,,,
,,,,,,$5ea079d45f2eaf03fdb21a1c,2020-07-21_16h44.25.720,fisher_task,2020.1.3,Win32,60,0.147222222,-0.330555556,1,0,0,1.53217,scale,,,,,,0.2468,0.2,0.302267034,0.244948974,stimuli/lakes/404044_left.png,stimuli/lakes/404044_right.png,,,,0,18,18,44,1,,,,,
,,,,,,$5ea079d45f2eaf03fdb21a1c,2020-07-21_16h44.25.720,fisher_task,2020.1.3,Win32,60,0.149074074,-0.425,1,0,0,2.033005,scale,,,,,,0.275930788,0.223606798,0.275930788,0.223606798,stimuli/lakes/502016_left.png,stimuli/lakes/502016_right.png,,,,0,19,19,16,1,,,,,
,,,,,,$5ea079d45f2eaf03fdb21a1c,2020-07-21_16h44.25.720,fisher_task,2020.1.3,Win32,60,-0.151851852,-0.336111111,1,0,0,1.54992,scale,,,,,,0.326485712,0.264575131,0.21373507,0.173205081,stimuli/lakes/707095_left.png,stimuli/lakes/707095_right.png,,,,0,20,20,95,1,,,,,
,,,,,,$5ea079d45f2eaf03fdb21a1c,2020-07-21_16h44.25.720,fisher_task,2020.1.3,Win32,60,0.162037037,-0.37037037,1,0,0,3.749225,scale,,,,,,0.2468,0.2,0.302267034,0.244948974,stimuli/lakes/402015_left.png,stimuli/lakes/402015_right.png,,,,0,21,21,15,1,,,,,
,,,,,,$5ea079d45f2eaf03fdb21a1c,2020-07-21_16h44.25.720,fisher_task,2020.1.3,Win32,60,-0.165740741,-0.425925926,1,0,0,1.41609,scale,,,,,,0.326485712,0.264575131,0.21373507,0.173205081,stimuli/lakes/7080117_left.png,stimuli/lakes/7080117_right.png,,,space,0,22,22,117,1,4.783895,,,,
,,,,,,$5ea079d45f2eaf03fdb21a1c,2020-07-21_16h44.25.720,fisher_task,2020.1.3,Win32,60,-0.144444444,-0.352777778,1,0,0,1.4665,scale,,,,,,0.349027907,0.282842712,0.174513954,0.141421356,stimuli/lakes/806078_left.png,stimuli/lakes/806078_right.png,,,,0,23,23,78,1,,,,,
,,,,,,$5ea079d45f2eaf03fdb21a1c,2020-07-21_16h44.25.720,fisher_task,2020.1.3,Win32,60,0.12037037,-0.300925926,1,0,0,2.416135,scale,,,,,,0.21373507,0.173205081,0.326485712,0.264575131,stimuli/lakes/307091_left.png,stimuli/lakes/307091_right.png,,,,0,24,24,91,1,,,,,
,,,,,,$5ea079d45f2eaf03fdb21a1c,2020-07-21_16h44.25.720,fisher_task,2020.1.3,Win32,60,-0.163888889,-0.425925926,1,0,0,1.432675,scale,,,,,,0.3702,0.3,0.1234,0.1,stimuli/lakes/9070106_left.png,stimuli/lakes/9070106_right.png,,,,0,25,25,106,1,,,,,
,,,,,,$5ea079d45f2eaf03fdb21a1c,2020-07-21_16h44.25.720,fisher_task,2020.1.3,Win32,60,-0.222222222,-0.461111111,1,0,0,1.032995,scale,,,,,,0.326485712,0.264575131,0.21373507,0.173205081,stimuli/lakes/7090129_left.png,stimuli/lakes/7090129_right.png,,,,0,26,26,129,1,,,,,
,,,,,,$5ea079d45f2eaf03fdb21a1c,2020-07-21_16h44.25.720,fisher_task,2020.1.3,Win32,60,0.155555556,-0.373148148,1,0,0,1.68293,scale,,,,,,0.2468,0.2,0.302267034,0.244948974,stimuli/lakes/403035_left.png,stimuli/lakes/403035_right.png,,,,0,27,27,35,1,,,,,
,,,,,,$5ea079d45f2eaf03fdb21a1c,2020-07-21_16h44.25.720,fisher_task,2020.1.3,Win32,60,0.14537037,-0.424074074,1,0,0,1.449785,scale,,,,,,0.1234,0.1,0.3702,0.3,stimuli/lakes/104041_left.png,stimuli/lakes/104041_right.png,,,,0,28,28,41,1,,,,,
,,,,,,$5ea079d45f2eaf03fdb21a1c,2020-07-21_16h44.25.720,fisher_task,2020.1.3,Win32,60,-0.147222222,-0.358333333,1,0,0,1.86657,scale,,,,,,0.349027907,0.282842712,0.174513954,0.141421356,stimuli/lakes/804057_left.png,stimuli/lakes/804057_right.png,,,,0,29,29,57,1,,,,,
,,,,,,$5ea079d45f2eaf03fdb21a1c,2020-07-21_16h44.25.720,fisher_task,2020.1.3,Win32,60,-0.184259259,-0.425,1,0,0,3.199465,scale,,,,,,0.174513954,0.141421356,0.349027907,0.282842712,stimuli/lakes/2090120_left.png,stimuli/lakes/2090120_right.png,,,,0,30,30,120,1,,,,,
,,,,,,$5ea079d45f2eaf03fdb21a1c,2020-07-21_16h44.25.720,fisher_task,2020.1.3,Win32,60,-0.169444444,-0.422222222,1,0,0,1.31639,scale,,,,,,0.349027907,0.282842712,0.174513954,0.141421356,stimuli/lakes/8080118_left.png,stimuli/lakes/8080118_right.png,,,,0,31,31,118,1,,,,,
,,,,,,$5ea079d45f2eaf03fdb21a1c,2020-07-21_16h44.25.720,fisher_task,2020.1.3,Win32,60,-0.173148148,-0.389814815,1,0,0,0.94934,scale,,,,,,0.302267034,0.244948974,0.2468,0.2,stimuli/lakes/606085_left.png,stimuli/lakes/606085_right.png,,,,0,32,32,85,1,,,,,
,,,,,,$5ea079d45f2eaf03fdb21a1c,2020-07-21_16h44.25.720,fisher_task,2020.1.3,Win32,60,0.175925926,-0.4,1,0,0,0.966305,scale,,,,,,0.2468,0.2,0.302267034,0.244948974,stimuli/lakes/40103_left.png,stimuli/lakes/40103_right.png,,,,0,33,33,3,1,,,,,
,,,,,,$5ea079d45f2eaf03fdb21a1c,2020-07-21_16h44.25.720,fisher_task,2020.1.3,Win32,60,-0.168518519,-0.423148148,1,0,0,1.432965,scale,,,,,,0.3702,0.3,0.1234,0.1,stimuli/lakes/904049_left.png,stimuli/lakes/904049_right.png,,,,0,34,34,49,1,,,,,
,,,,,,$5ea079d45f2eaf03fdb21a1c,2020-07-21_16h44.25.720,fisher_task,2020.1.3,Win32,60,0.075925926,-0.273148148,1,0,0,2.566245,scale,,,,,,0.326485712,0.264575131,0.21373507,0.173205081,stimuli/lakes/703029_left.png,stimuli/lakes/703029_right.png,,,,0,35,35,29,1,,,,,
,,,,,,$5ea079d45f2eaf03fdb21a1c,2020-07-21_16h44.25.720,fisher_task,2020.1.3,Win32,60,0.147222222,-0.424074074,1,0,0,1.365835,scale,,,,,,0.275930788,0.223606798,0.275930788,0.223606798,stimuli/lakes/50104_left.png,stimuli/lakes/50104_right.png,,,,0,36,36,4,1,,,,,
,,,,,,$5ea079d45f2eaf03fdb21a1c,2020-07-21_16h44.25.720,fisher_task,2020.1.3,Win32,60,0.149074074,-0.416666667,1,0,0,1.199655,scale,,,,,,0.174513954,0.141421356,0.349027907,0.282842712,stimuli/lakes/204051_left.png,stimuli/lakes/204051_right.png,,,,0,37,37,51,1,,,,,
,,,,,,$5ea079d45f2eaf03fdb21a1c,2020-07-21_16h44.25.720,fisher_task,2020.1.3,Win32,60,0.117592593,-0.296296296,1,0,0,1.598775,scale,,,,,,0.302267034,0.244948974,0.2468,0.2,stimuli/lakes/603028_left.png,stimuli/lakes/603028_right.png,,,,0,38,38,28,1,,,,,
,,,,,,$5ea079d45f2eaf03fdb21a1c,2020-07-21_16h44.25.720,fisher_task,2020.1.3,Win32,60,-0.168518519,-0.42037037,1,0,0,1.282985,scale,,,,,,0.3702,0.3,0.1234,0.1,stimuli/lakes/907097_left.png,stimuli/lakes/907097_right.png,,,,0,39,39,97,1,,,,,
,,,,,,$5ea079d45f2eaf03fdb21a1c,2020-07-21_16h44.25.720,fisher_task,2020.1.3,Win32,60,-0.139814815,-0.311111111,1,0,0,2.41616,scale,,,,,,0.174513954,0.141421356,0.349027907,0.282842712,stimuli/lakes/2080108_left.png,stimuli/lakes/2080108_right.png,,,,0,40,40,108,1,,,,,
,,,,,,$5ea079d45f2eaf03fdb21a1c,2020-07-21_16h44.25.720,fisher_task,2020.1.3,Win32,60,0.123148148,-0.297222222,1,0,0,1.149355,scale,,,,,,0.174513954,0.141421356,0.349027907,0.282842712,stimuli/lakes/206081_left.png,stimuli/lakes/206081_right.png,,,,0,41,41,81,1,,,,,
,,,,,,$5ea079d45f2eaf03fdb21a1c,2020-07-21_16h44.25.720,fisher_task,2020.1.3,Win32,60,-0.157407407,-0.415740741,1,0,0,1.349405,scale,,,,,,0.3702,0.3,0.1234,0.1,stimuli/lakes/906088_left.png,stimuli/lakes/906088_right.png,,,,0,42,42,88,1,,,,,
,,,,,,$5ea079d45f2eaf03fdb21a1c,2020-07-21_16h44.25.720,fisher_task,2020.1.3,Win32,60,0.147222222,-0.268518519,1,0,0,1.31612,scale,,,,,,0.1234,0.1,0.3702,0.3,stimuli/lakes/106071_left.png,stimuli/lakes/106071_right.png,,,,0,43,43,71,1,,,,,
,,,,,,$5ea079d45f2eaf03fdb21a1c,2020-07-21_16h44.25.720,fisher_task,2020.1.3,Win32,60,-0.17037037,-0.412037037,1,0,0,1.58295,scale,,,,,,0.326485712,0.264575131,0.21373507,0.173205081,stimuli/lakes/7080116_left.png,stimuli/lakes/7080116_right.png,,,space,0,44,44,116,1,2.93299,,,,
,,,,,,$5ea079d45f2eaf03fdb21a1c,2020-07-21_16h44.25.720,fisher_task,2020.1.3,Win32,60,0.15,-0.343518519,1,0,0,1.566335,scale,,,,,,0.349027907,0.282842712,0.174513954,0.141421356,stimuli/lakes/80109_left.png,stimuli/lakes/80109_right.png,,,,0,45,45,9,1,,,,,
,,,,,,$5ea079d45f2eaf03fdb21a1c,2020-07-21_16h44.25.720,fisher_task,2020.1.3,Win32,60,0.14537037,-0.387962963,1,0,0,1.2995,scale,,,,,,0.21373507,0.173205081,0.326485712,0.264575131,stimuli/lakes/30100_left.png,stimuli/lakes/30100_right.png,,,,0,46,46,0,1,,,,,
,,,,,,$5ea079d45f2eaf03fdb21a1c,2020-07-21_16h44.25.720,fisher_task,2020.1.3,Win32,60,-0.118518519,-0.3,1,0,0,1.16663,scale,,,,,,0.275930788,0.223606798,0.275930788,0.223606798,stimuli/lakes/506075_left.png,stimuli/lakes/506075_right.png,,,,0,47,47,75,1,,,,,
,,,,,,$5ea079d45f2eaf03fdb21a1c,2020-07-21_16h44.25.720,fisher_task,2020.1.3,Win32,60,0.14537037,-0.383333333,1,0,0,1.182795,scale,,,,,,0.21373507,0.173205081,0.326485712,0.264575131,stimuli/lakes/303025_left.png,stimuli/lakes/303025_right.png,,,,0,48,48,25,1,,,,,
,,,,,,$5ea079d45f2eaf03fdb21a1c,2020-07-21_16h44.25.720,fisher_task,2020.1.3,Win32,60,-0.165740741,-0.364814815,1,0,0,1.29971,scale,,,,,,0.302267034,0.244948974,0.2468,0.2,stimuli/lakes/607094_left.png,stimuli/lakes/607094_right.png,,,,0,49,49,94,1,,,,,
,,,,,,$5ea079d45f2eaf03fdb21a1c,2020-07-21_16h44.25.720,fisher_task,2020.1.3,Win32,60,-0.173148148,-0.423148148,1,0,0,1.13331,scale,,,,,,0.275930788,0.223606798,0.275930788,0.223606798,stimuli/lakes/5090125_left.png,stimuli/lakes/5090125_right.png,,,,0,50,50,125,1,,,,,
,,,,,,$5ea079d45f2eaf03fdb21a1c,2020-07-21_16h44.25.720,fisher_task,2020.1.3,Win32,60,-0.168518519,-0.405555556,1,0,0,1.08317,scale,,,,,,0.2468,0.2,0.302267034,0.244948974,stimuli/lakes/4080112_left.png,stimuli/lakes/4080112_right.png,,,,0,51,51,112,1,,,,,
,,,,,,$5ea079d45f2eaf03fdb21a1c,2020-07-21_16h44.25.720,fisher_task,2020.1.3,Win32,60,-0.142592593,-0.309259259,1,0,0,1.36599,scale,,,,,,0.326485712,0.264575131,0.21373507,0.173205081,stimuli/lakes/706086_left.png,stimuli/lakes/706086_right.png,,,,0,52,52,86,1,,,,,
,,,,,,$5ea079d45f2eaf03fdb21a1c,2020-07-21_16h44.25.720,fisher_task,2020.1.3,Win32,60,0.011111111,-0.24537037,1,0,0,2.216625,scale,,,,,,0.21373507,0.173205081,0.326485712,0.264575131,stimuli/lakes/3070100_left.png,stimuli/lakes/3070100_right.png,,,,0,53,53,100,1,,,,,
,,,,,,$5ea079d45f2eaf03fdb21a1c,2020-07-21_16h44.25.720,fisher_task,2020.1.3,Win32,60,0.162037037,-0.413888889,1,0,0,1.466555,scale,,,,,,0.2468,0.2,0.302267034,0.244948974,stimuli/lakes/403026_left.png,stimuli/lakes/403026_right.png,,,,0,54,54,26,1,,,,,
,,,,,,$5ea079d45f2eaf03fdb21a1c,2020-07-21_16h44.25.720,fisher_task,2020.1.3,Win32,60,0.140740741,-0.338888889,1,0,0,3.266165,scale,,,,,,0.21373507,0.173205081,0.326485712,0.264575131,stimuli/lakes/306073_left.png,stimuli/lakes/306073_right.png,,,,0,55,55,73,1,,,,,
,,,,,,$5ea079d45f2eaf03fdb21a1c,2020-07-21_16h44.25.720,fisher_task,2020.1.3,Win32,60,-0.165740741,-0.384259259,1,0,0,2.54945,scale,,,,,,0.2468,0.2,0.302267034,0.244948974,stimuli/lakes/4090123_left.png,stimuli/lakes/4090123_right.png,,,,0,56,56,123,1,,,,,
,,,,,,$5ea079d45f2eaf03fdb21a1c,2020-07-21_16h44.25.720,fisher_task,2020.1.3,Win32,60,-0.139814815,-0.310185185,1,0,0,1.533385,scale,,,,,,0.3702,0.3,0.1234,0.1,stimuli/lakes/905070_left.png,stimuli/lakes/905070_right.png,,,,0,57,57,70,1,,,,,
,,,,,,$5ea079d45f2eaf03fdb21a1c,2020-07-21_16h44.25.720,fisher_task,2020.1.3,Win32,60,-0.159259259,-0.367592593,1,0,0,1.36641,scale,,,,,,0.326485712,0.264575131,0.21373507,0.173205081,stimuli/lakes/705068_left.png,stimuli/lakes/705068_right.png,,,,0,58,58,68,1,,,,,
,,,,,,$5ea079d45f2eaf03fdb21a1c,2020-07-21_16h44.25.720,fisher_task,2020.1.3,Win32,60,0.133333333,-0.364814815,1,0,0,2.2161,scale,,,,,,0.349027907,0.282842712,0.174513954,0.141421356,stimuli/lakes/802021_left.png,stimuli/lakes/802021_right.png,,,,0,59,59,21,1,,,,,
,,,,,,$5ea079d45f2eaf03fdb21a1c,2020-07-21_16h44.25.720,fisher_task,2020.1.3,Win32,60,-0.15,-0.362962963,1,0,0,2.7829,scale,,,,,,0.2468,0.2,0.302267034,0.244948974,stimuli/lakes/4070101_left.png,stimuli/lakes/4070101_right.png,,,,0,60,60,101,1,,,,,
,,,,,,$5ea079d45f2eaf03fdb21a1c,2020-07-21_16h44.25.720,fisher_task,2020.1.3,Win32,60,-0.131481481,-0.318518519,1,0,0,2.549655,scale,,,,,,0.302267034,0.244948974,0.2468,0.2,stimuli/lakes/604046_left.png,stimuli/lakes/604046_right.png,,,,0,61,61,46,1,,,,,
,,,,,,$5ea079d45f2eaf03fdb21a1c,2020-07-21_16h44.25.720,fisher_task,2020.1.3,Win32,60,0.148148148,-0.407407407,1,0,0,1.11619,scale,,,,,,0.21373507,0.173205081,0.326485712,0.264575131,stimuli/lakes/302013_left.png,stimuli/lakes/302013_right.png,,,,0,62,62,13,1,,,,,
,,,,,,$5ea079d45f2eaf03fdb21a1c,2020-07-21_16h44.25.720,fisher_task,2020.1.3,Win32,60,-0.157407407,-0.399074074,1,0,0,1.34972,scale,,,,,,0.326485712,0.264575131,0.21373507,0.173205081,stimuli/lakes/7070104_left.png,stimuli/lakes/7070104_right.png,,,,0,63,63,104,1,,,,,
,,,,,,$5ea079d45f2eaf03fdb21a1c,2020-07-21_16h44.25.720,fisher_task,2020.1.3,Win32,60,0.144444444,-0.35462963,1,0,0,3.08297,scale,,,,,,0.326485712,0.264575131,0.21373507,0.173205081,stimuli/lakes/702020_left.png,stimuli/lakes/702020_right.png,,,,0,64,64,20,1,,,,,
,,,,,,$5ea079d45f2eaf03fdb21a1c,2020-07-21_16h44.25.720,fisher_task,2020.1.3,Win32,60,0.142592593,-0.37962963,1,0,0,1.000065,scale,,,,,,0.174513954,0.141421356,0.349027907,0.282842712,stimuli/lakes/203024_left.png,stimuli/lakes/203024_right.png,,,,0,65,65,24,1,,,,,
,,,,,,$5ea079d45f2eaf03fdb21a1c,2020-07-21_16h44.25.720,fisher_task,2020.1.3,Win32,60,0.136111111,-0.353703704,1,0,0,1.84977,scale,,,,,,0.2468,0.2,0.302267034,0.244948974,stimuli/lakes/402014_left.png,stimuli/lakes/402014_right.png,,,space,0,66,66,14,1,29.337425,,,,
,,,,,,$5ea079d45f2eaf03fdb21a1c,2020-07-21_16h44.25.720,fisher_task,2020.1.3,Win32,60,-0.162037037,-0.392592593,1,0,0,1.099345,scale,,,,,,0.302267034,0.244948974,0.2468,0.2,stimuli/lakes/6090127_left.png,stimuli/lakes/6090127_right.png,,,,0,67,67,127,1,,,,,
,,,,,,$5ea079d45f2eaf03fdb21a1c,2020-07-21_16h44.25.720,fisher_task,2020.1.3,Win32,60,-0.171296296,-0.34537037,1,0,0,1.766085,scale,,,,,,0.326485712,0.264575131,0.21373507,0.173205081,stimuli/lakes/706077_left.png,stimuli/lakes/706077_right.png,,,,0,68,68,77,1,,,,,
,,,,,,$5ea079d45f2eaf03fdb21a1c,2020-07-21_16h44.25.720,fisher_task,2020.1.3,Win32,60,-0.151851852,-0.418518519,1,0,0,1.349365,scale,,,,,,0.2468,0.2,0.302267034,0.244948974,stimuli/lakes/4090124_left.png,stimuli/lakes/4090124_right.png,,,,0,69,69,124,1,,,,,
,,,,,,$5ea079d45f2eaf03fdb21a1c,2020-07-21_16h44.25.720,fisher_task,2020.1.3,Win32,60,-0.119444444,-0.310185185,1,0,0,1.84927,scale,,,,,,0.3702,0.3,0.1234,0.1,stimuli/lakes/903031_left.png,stimuli/lakes/903031_right.png,,,,0,70,70,31,1,,,,,
,,,,,,$5ea079d45f2eaf03fdb21a1c,2020-07-21_16h44.25.720,fisher_task,2020.1.3,Win32,60,-0.163888889,-0.42037037,1,0,0,1.249825,scale,,,,,,0.302267034,0.244948974,0.2468,0.2,stimuli/lakes/6090126_left.png,stimuli/lakes/6090126_right.png,,,,0,71,71,126,1,,,,,
,,,,,,$5ea079d45f2eaf03fdb21a1c,2020-07-21_16h44.25.720,fisher_task,2020.1.3,Win32,60,0.141666667,-0.337037037,1,0,0,1.26598,scale,,,,,,0.275930788,0.223606798,0.275930788,0.223606798,stimuli/lakes/503036_left.png,stimuli/lakes/503036_right.png,,,,0,72,72,36,1,,,,,
,,,,,,$5ea079d45f2eaf03fdb21a1c,2020-07-21_16h44.25.720,fisher_task,2020.1.3,Win32,60,0.140740741,-0.371296296,1,0,0,1.066175,scale,,,,,,0.21373507,0.173205081,0.326485712,0.264575131,stimuli/lakes/303034_left.png,stimuli/lakes/303034_right.png,,,,0,73,73,34,1,,,,,
,,,,,,$5ea079d45f2eaf03fdb21a1c,2020-07-21_16h44.25.720,fisher_task,2020.1.3,Win32,60,0.150925926,-0.384259259,1,0,0,1.166595,scale,,,,,,0.1234,0.1,0.3702,0.3,stimuli/lakes/104050_left.png,stimuli/lakes/104050_right.png,,,,0,74,74,50,1,,,,,
,,,,,,$5ea079d45f2eaf03fdb21a1c,2020-07-21_16h44.25.720,fisher_task,2020.1.3,Win32,60,0.142592593,-0.326851852,1,0,0,1.266275,scale,,,,,,0.326485712,0.264575131,0.21373507,0.173205081,stimuli/lakes/704047_left.png,stimuli/lakes/704047_right.png,,,,0,75,75,47,1,,,,,
,,,,,,$5ea079d45f2eaf03fdb21a1c,2020-07-21_16h44.25.720,fisher_task,2020.1.3,Win32,60,0.152777778,-0.362962963,1,0,0,1.09947,scale,,,,,,0.21373507,0.173205081,0.326485712,0.264575131,stimuli/lakes/304043_left.png,stimuli/lakes/304043_right.png,,,,0,76,76,43,1,,,,,
,,,,,,$5ea079d45f2eaf03fdb21a1c,2020-07-21_16h44.25.720,fisher_task,2020.1.3,Win32,60,-0.138888889,-0.328703704,1,0,0,2.099745,scale,,,,,,0.174513954,0.141421356,0.349027907,0.282842712,stimuli/lakes/207099_left.png,stimuli/lakes/207099_right.png,,,,0,77,77,99,1,,,,,
,,,,,,$5ea079d45f2eaf03fdb21a1c,2020-07-21_16h44.25.720,fisher_task,2020.1.3,Win32,60,-0.151851852,-0.336111111,1,0,0,1.199765,scale,,,,,,0.1234,0.1,0.3702,0.3,stimuli/lakes/107098_left.png,stimuli/lakes/107098_right.png,,,,0,78,78,98,1,,,,,
,,,,,,$5ea079d45f2eaf03fdb21a1c,2020-07-21_16h44.25.720,fisher_task,2020.1.3,Win32,60,0.147222222,-0.356481481,1,0,0,1.31444,scale,,,,,,0.302267034,0.244948974,0.2468,0.2,stimuli/lakes/602017_left.png,stimuli/lakes/602017_right.png,,,,0,79,79,17,1,,,,,
,,,,,,$5ea079d45f2eaf03fdb21a1c,2020-07-21_16h44.25.720,fisher_task,2020.1.3,Win32,60,-0.132407407,-0.300925926,1,0,0,1.96635,scale,,,,,,0.1234,0.1,0.3702,0.3,stimuli/lakes/1080107_left.png,stimuli/lakes/1080107_right.png,,,,0,80,80,107,1,,,,,
,,,,,,$5ea079d45f2eaf03fdb21a1c,2020-07-21_16h44.25.720,fisher_task,2020.1.3,Win32,60,0.000925926,-0.244444444,1,0,0,2.182855,scale,,,,,,0.302267034,0.244948974,0.2468,0.2,stimuli/lakes/60106_left.png,stimuli/lakes/60106_right.png,,,,0,81,81,6,1,,,,,
,,,,,,$5ea079d45f2eaf03fdb21a1c,2020-07-21_16h44.25.720,fisher_task,2020.1.3,Win32,60,-0.101851852,-0.289814815,1,0,0,1.84976,scale,,,,,,0.1234,0.1,0.3702,0.3,stimuli/lakes/105059_left.png,stimuli/lakes/105059_right.png,,,,0,82,82,59,1,,,,,
,,,,,,$5ea079d45f2eaf03fdb21a1c,2020-07-21_16h44.25.720,fisher_task,2020.1.3,Win32,60,0.162037037,-0.352777778,1,0,0,5.183035,scale,,,,,,0.275930788,0.223606798,0.275930788,0.223606798,stimuli/lakes/504045_left.png,stimuli/lakes/504045_right.png,,,,0,83,83,45,1,,,,,
,,,,,,$5ea079d45f2eaf03fdb21a1c,2020-07-21_16h44.25.720,fisher_task,2020.1.3,Win32,60,-0.180555556,-0.418518519,1,0,0,1.34966,scale,,,,,,0.326485712,0.264575131,0.21373507,0.173205081,stimuli/lakes/7090128_left.png,stimuli/lakes/7090128_right.png,,,,0,84,84,128,1,,,,,
,,,,,,$5ea079d45f2eaf03fdb21a1c,2020-07-21_16h44.25.720,fisher_task,2020.1.3,Win32,60,-0.101851852,-0.280555556,1,0,0,4.999455,scale,,,,,,0.21373507,0.173205081,0.326485712,0.264575131,stimuli/lakes/3080109_left.png,stimuli/lakes/3080109_right.png,,,,0,85,85,109,1,,,,,
,,,,,,$5ea079d45f2eaf03fdb21a1c,2020-07-21_16h44.25.720,fisher_task,2020.1.3,Win32,60,0.133333333,-0.321296296,1,0,0,1.79944,scale,,,,,,0.21373507,0.173205081,0.326485712,0.264575131,stimuli/lakes/305062_left.png,stimuli/lakes/305062_right.png,,,,0,86,86,62,1,,,,,
,,,,,,$5ea079d45f2eaf03fdb21a1c,2020-07-21_16h44.25.720,fisher_task,2020.1.3,Win32,60,0.148148148,-0.376851852,1,0,0,1.18293,scale,,,,,,0.174513954,0.141421356,0.349027907,0.282842712,stimuli/lakes/205060_left.png,stimuli/lakes/205060_right.png,,,,0,87,87,60,1,,,,,
,,,,,,$5ea079d45f2eaf03fdb21a1c,2020-07-21_16h44.25.720,fisher_task,2020.1.3,Win32,60,-0.1,-0.290740741,1,0,0,1.48309,scale,,,,,,0.275930788,0.223606798,0.275930788,0.223606798,stimuli/lakes/506084_left.png,stimuli/lakes/506084_right.png,,,space,0,88,88,84,1,69.53709,,,,
,,,,,,$5ea079d45f2eaf03fdb21a1c,2020-07-21_16h44.25.720,fisher_task,2020.1.3,Win32,60,-0.151851852,-0.323148148,1,0,0,2.6995,scale,,,,,,0.21373507,0.173205081,0.326485712,0.264575131,stimuli/lakes/3080110_left.png,stimuli/lakes/3080110_right.png,,,,0,89,89,110,1,,,,,
,,,,,,$5ea079d45f2eaf03fdb21a1c,2020-07-21_16h44.25.720,fisher_task,2020.1.3,Win32,60,0.146296296,-0.312962963,1,0,0,1.58337,scale,,,,,,0.326485712,0.264575131,0.21373507,0.173205081,stimuli/lakes/70108_left.png,stimuli/lakes/70108_right.png,,,,0,90,90,8,1,,,,,
,,,,,,$5ea079d45f2eaf03fdb21a1c,2020-07-21_16h44.25.720,fisher_task,2020.1.3,Win32,60,-0.175,-0.425,1,0,0,1.683065,scale,,,,,,0.21373507,0.173205081,0.326485712,0.264575131,stimuli/lakes/3090121_left.png,stimuli/lakes/3090121_right.png,,,,0,91,91,121,1,,,,,
,,,,,,$5ea079d45f2eaf03fdb21a1c,2020-07-21_16h44.25.720,fisher_task,2020.1.3,Win32,60,-0.007407407,-0.237037037,1,0,0,1.76603,scale,,,,,,0.326485712,0.264575131,0.21373507,0.173205081,stimuli/lakes/70107_left.png,stimuli/lakes/70107_right.png,,,,0,92,92,7,1,,,,,
,,,,,,$5ea079d45f2eaf03fdb21a1c,2020-07-21_16h44.25.720,fisher_task,2020.1.3,Win32,60,-0.124074074,-0.341666667,1,0,0,2.01623,scale,,,,,,0.302267034,0.244948974,0.2468,0.2,stimuli/lakes/6080114_left.png,stimuli/lakes/6080114_right.png,,,,0,93,93,114,1,,,,,
,,,,,,$5ea079d45f2eaf03fdb21a1c,2020-07-21_16h44.25.720,fisher_task,2020.1.3,Win32,60,0.150925926,-0.425,1,0,0,4.54985,scale,,,,,,0.3702,0.3,0.1234,0.1,stimuli/lakes/901010_left.png,stimuli/lakes/901010_right.png,,,,0,94,94,10,1,,,,,
,,,,,,$5ea079d45f2eaf03fdb21a1c,2020-07-21_16h44.25.720,fisher_task,2020.1.3,Win32,60,0.012037037,-0.263888889,1,0,0,4.26618,scale,,,,,,0.2468,0.2,0.302267034,0.244948974,stimuli/lakes/405064_left.png,stimuli/lakes/405064_right.png,,,,0,95,95,64,1,,,,,
,,,,,,$5ea079d45f2eaf03fdb21a1c,2020-07-21_16h44.25.720,fisher_task,2020.1.3,Win32,60,-0.107407407,-0.284259259,1,0,0,1.283265,scale,,,,,,0.349027907,0.282842712,0.174513954,0.141421356,stimuli/lakes/803039_left.png,stimuli/lakes/803039_right.png,,,,0,96,96,39,1,,,,,
,,,,,,$5ea079d45f2eaf03fdb21a1c,2020-07-21_16h44.25.720,fisher_task,2020.1.3,Win32,60,-0.162037037,-0.408333333,1,0,0,1.9497,scale,,,,,,0.349027907,0.282842712,0.174513954,0.141421356,stimuli/lakes/8070105_left.png,stimuli/lakes/8070105_right.png,,,,0,97,97,105,1,,,,,
,,,,,,$5ea079d45f2eaf03fdb21a1c,2020-07-21_16h44.25.720,fisher_task,2020.1.3,Win32,60,-0.092592593,-0.284259259,1,0,0,2.28276,scale,,,,,,0.2468,0.2,0.302267034,0.244948974,stimuli/lakes/406074_left.png,stimuli/lakes/406074_right.png,,,,0,98,98,74,1,,,,,
,,,,,,$5ea079d45f2eaf03fdb21a1c,2020-07-21_16h44.25.720,fisher_task,2020.1.3,Win32,60,-0.132407407,-0.300925926,1,0,0,1.033245,scale,,,,,,0.275930788,0.223606798,0.275930788,0.223606798,stimuli/lakes/5080113_left.png,stimuli/lakes/5080113_right.png,,,,0,99,99,113,1,,,,,
,,,,,,$5ea079d45f2eaf03fdb21a1c,2020-07-21_16h44.25.720,fisher_task,2020.1.3,Win32,60,0.160185185,-0.389814815,1,0,0,1.49923,scale,,,,,,0.174513954,0.141421356,0.349027907,0.282842712,stimuli/lakes/202011_left.png,stimuli/lakes/202011_right.png,,,,0,100,100,11,1,,,,,
,,,,,,$5ea079d45f2eaf03fdb21a1c,2020-07-21_16h44.25.720,fisher_task,2020.1.3,Win32,60,0.14537037,-0.362962963,1,0,0,1.149915,scale,,,,,,0.1234,0.1,0.3702,0.3,stimuli/lakes/103032_left.png,stimuli/lakes/103032_right.png,,,,0,101,101,32,1,,,,,
,,,,,,$5ea079d45f2eaf03fdb21a1c,2020-07-21_16h44.25.720,fisher_task,2020.1.3,Win32,60,-0.149074074,-0.311111111,1,0,0,1.36631,scale,,,,,,0.302267034,0.244948974,0.2468,0.2,stimuli/lakes/605065_left.png,stimuli/lakes/605065_right.png,,,,0,102,102,65,1,,,,,
,,,,,,$5ea079d45f2eaf03fdb21a1c,2020-07-21_16h44.25.720,fisher_task,2020.1.3,Win32,60,-0.113888889,-0.281481481,1,0,0,1.91589,scale,,,,,,0.1234,0.1,0.3702,0.3,stimuli/lakes/106080_left.png,stimuli/lakes/106080_right.png,,,,0,103,103,80,1,,,,,
,,,,,,$5ea079d45f2eaf03fdb21a1c,2020-07-21_16h44.25.720,fisher_task,2020.1.3,Win32,60,0.147222222,-0.346296296,1,0,0,1.632555,scale,,,,,,0.21373507,0.173205081,0.326485712,0.264575131,stimuli/lakes/304052_left.png,stimuli/lakes/304052_right.png,,,,0,104,104,52,1,,,,,
,,,,,,$5ea079d45f2eaf03fdb21a1c,2020-07-21_16h44.25.720,fisher_task,2020.1.3,Win32,60,0.143518519,-0.326851852,1,0,0,1.233605,scale,,,,,,0.349027907,0.282842712,0.174513954,0.141421356,stimuli/lakes/803030_left.png,stimuli/lakes/803030_right.png,,,,0,105,105,30,1,,,,,
,,,,,,$5ea079d45f2eaf03fdb21a1c,2020-07-21_16h44.25.720,fisher_task,2020.1.3,Win32,60,0.140740741,-0.352777778,1,0,0,1.233085,scale,,,,,,0.174513954,0.141421356,0.349027907,0.282842712,stimuli/lakes/204042_left.png,stimuli/lakes/204042_right.png,,,,0,106,106,42,1,,,,,
,,,,,,$5ea079d45f2eaf03fdb21a1c,2020-07-21_16h44.25.720,fisher_task,2020.1.3,Win32,60,0.138888889,-0.371296296,1,0,0,1.13272,scale,,,,,,0.21373507,0.173205081,0.326485712,0.264575131,stimuli/lakes/30101_left.png,stimuli/lakes/30101_right.png,,,,0,107,107,1,1,,,,,
,,,,,,$5ea079d45f2eaf03fdb21a1c,2020-07-21_16h44.25.720,fisher_task,2020.1.3,Win32,60,-0.137037037,-0.322222222,1,0,0,1.08289,scale,,,,,,0.302267034,0.244948974,0.2468,0.2,stimuli/lakes/6080115_left.png,stimuli/lakes/6080115_right.png,,,,0,108,108,115,1,,,,,
,,,,,,$5ea079d45f2eaf03fdb21a1c,2020-07-21_16h44.25.720,fisher_task,2020.1.3,Win32,60,-0.135185185,-0.306481481,1,0,0,1.31639,scale,,,,,,0.174513954,0.141421356,0.349027907,0.282842712,stimuli/lakes/206072_left.png,stimuli/lakes/206072_right.png,,,,0,109,109,72,1,,,,,
,,,,,,$5ea079d45f2eaf03fdb21a1c,2020-07-21_16h44.25.720,fisher_task,2020.1.3,Win32,60,-0.156481481,-0.347222222,1,0,0,2.116345,scale,,,,,,0.2468,0.2,0.302267034,0.244948974,stimuli/lakes/4080111_left.png,stimuli/lakes/4080111_right.png,,,space,0,110,110,111,1,2.318075,,,,
,,,,,,$5ea079d45f2eaf03fdb21a1c,2020-07-21_16h44.25.720,fisher_task,2020.1.3,Win32,60,-0.15462963,-0.349074074,1,0,0,1.06678,scale,,,,,,0.275930788,0.223606798,0.275930788,0.223606798,stimuli/lakes/5070102_left.png,stimuli/lakes/5070102_right.png,,,,0,111,111,102,1,,,,,
,,,,,,$5ea079d45f2eaf03fdb21a1c,2020-07-21_16h44.25.720,fisher_task,2020.1.3,Win32,60,-0.15462963,-0.344444444,1,0,0,1.682785,scale,,,,,,0.2468,0.2,0.302267034,0.244948974,stimuli/lakes/404053_left.png,stimuli/lakes/404053_right.png,,,,0,112,112,53,1,,,,,
,,,,,,$5ea079d45f2eaf03fdb21a1c,2020-07-21_16h44.25.720,fisher_task,2020.1.3,Win32,60,-0.140740741,-0.317592593,1,0,0,1.832715,scale,,,,,,0.1234,0.1,0.3702,0.3,stimuli/lakes/1090119_left.png,stimuli/lakes/1090119_right.png,,,,0,113,113,119,1,,,,,
,,,,,,$5ea079d45f2eaf03fdb21a1c,2020-07-21_16h44.25.720,fisher_task,2020.1.3,Win32,60,0.135185185,-0.293518519,1,0,0,1.5828,scale,,,,,,0.302267034,0.244948974,0.2468,0.2,stimuli/lakes/602018_left.png,stimuli/lakes/602018_right.png,,,,0,114,114,18,1,,,,,
,,,,,,$5ea079d45f2eaf03fdb21a1c,2020-07-21_16h44.25.720,fisher_task,2020.1.3,Win32,60,0.102777778,-0.291666667,1,0,0,1.899235,scale,,,,,,0.3702,0.3,0.1234,0.1,stimuli/lakes/902022_left.png,stimuli/lakes/902022_right.png,,,,0,115,115,22,1,,,,,
,,,,,,$5ea079d45f2eaf03fdb21a1c,2020-07-21_16h44.25.720,fisher_task,2020.1.3,Win32,60,-0.168518519,-0.369444444,1,0,0,1.516455,scale,,,,,,0.349027907,0.282842712,0.174513954,0.141421356,stimuli/lakes/807096_left.png,stimuli/lakes/807096_right.png,,,,0,116,116,96,1,,,,,
,,,,,,$5ea079d45f2eaf03fdb21a1c,2020-07-21_16h44.25.720,fisher_task,2020.1.3,Win32,60,-0.122222222,-0.303703704,1,0,0,1.14981,scale,,,,,,0.3702,0.3,0.1234,0.1,stimuli/lakes/904058_left.png,stimuli/lakes/904058_right.png,,,,0,117,117,58,1,,,,,
,,,,,,$5ea079d45f2eaf03fdb21a1c,2020-07-21_16h44.25.720,fisher_task,2020.1.3,Win32,60,0.144444444,-0.319444444,1,0,0,1.182935,scale,,,,,,0.21373507,0.173205081,0.326485712,0.264575131,stimuli/lakes/305061_left.png,stimuli/lakes/305061_right.png,,,,0,118,118,61,1,,,,,
,,,,,,$5ea079d45f2eaf03fdb21a1c,2020-07-21_16h44.25.720,fisher_task,2020.1.3,Win32,60,0.016666667,-0.258333333,1,0,0,1.983215,scale,,,,,,0.302267034,0.244948974,0.2468,0.2,stimuli/lakes/603037_left.png,stimuli/lakes/603037_right.png,,,,0,119,119,37,1,,,,,
,,,,,,$5ea079d45f2eaf03fdb21a1c,2020-07-21_16h44.25.720,fisher_task,2020.1.3,Win32,60,-0.147222222,-0.337037037,1,0,0,2.11627,scale,,,,,,0.349027907,0.282842712,0.174513954,0.141421356,stimuli/lakes/806087_left.png,stimuli/lakes/806087_right.png,,,,0,120,120,87,1,,,,,
,,,,,,$5ea079d45f2eaf03fdb21a1c,2020-07-21_16h44.25.720,fisher_task,2020.1.3,Win32,60,0.086111111,-0.260185185,1,0,0,2.06627,scale,,,,,,0.326485712,0.264575131,0.21373507,0.173205081,stimuli/lakes/702019_left.png,stimuli/lakes/702019_right.png,,,,0,121,121,19,1,,,,,
,,,,,,$5ea079d45f2eaf03fdb21a1c,2020-07-21_16h44.25.720,fisher_task,2020.1.3,Win32,60,0.123148148,-0.302777778,1,0,0,1.16638,scale,,,,,,0.302267034,0.244948974,0.2468,0.2,stimuli/lakes/604055_left.png,stimuli/lakes/604055_right.png,,,,0,122,122,55,1,,,,,
,,,,,,$5ea079d45f2eaf03fdb21a1c,2020-07-21_16h44.25.720,fisher_task,2020.1.3,Win32,60,-0.175,-0.300925926,1,0,0,1.316435,scale,,,,,,0.2468,0.2,0.302267034,0.244948974,stimuli/lakes/407092_left.png,stimuli/lakes/407092_right.png,,,,0,123,123,92,1,,,,,
,,,,,,$5ea079d45f2eaf03fdb21a1c,2020-07-21_16h44.25.720,fisher_task,2020.1.3,Win32,60,-0.125925926,-0.292592593,1,0,0,1.316135,scale,,,,,,0.21373507,0.173205081,0.326485712,0.264575131,stimuli/lakes/3090122_left.png,stimuli/lakes/3090122_right.png,,,,0,124,124,122,1,,,,,
,,,,,,$5ea079d45f2eaf03fdb21a1c,2020-07-21_16h44.25.720,fisher_task,2020.1.3,Win32,60,0.147222222,-0.32962963,1,0,0,1.3496,scale,,,,,,0.174513954,0.141421356,0.349027907,0.282842712,stimuli/lakes/203033_left.png,stimuli/lakes/203033_right.png,,,,0,125,125,33,1,,,,,
,,,,,,$5ea079d45f2eaf03fdb21a1c,2020-07-21_16h44.25.720,fisher_task,2020.1.3,Win32,60,0.149074074,-0.382407407,1,0,0,1.19955,scale,,,,,,0.1234,0.1,0.3702,0.3,stimuli/lakes/103023_left.png,stimuli/lakes/103023_right.png,,,,0,126,126,23,1,,,,,
,,,,,,$5ea079d45f2eaf03fdb21a1c,2020-07-21_16h44.25.720,fisher_task,2020.1.3,Win32,60,0.149074074,-0.426851852,1,0,0,1.716345,scale,,,,,,0.2468,0.2,0.302267034,0.244948974,stimuli/lakes/40102_left.png,stimuli/lakes/40102_right.png,,,,0,127,127,2,1,,,,,
,,,,,,$5ea079d45f2eaf03fdb21a1c,2020-07-21_16h44.25.720,fisher_task,2020.1.3,Win32,60,0.137037037,-0.434259259,1,0,0,1.03292,scale,,,,,,0.21373507,0.173205081,0.326485712,0.264575131,stimuli/lakes/302012_left.png,stimuli/lakes/302012_right.png,,,,0,128,128,12,1,,,,,
,,,,,,$5ea079d45f2eaf03fdb21a1c,2020-07-21_16h44.25.720,fisher_task,2020.1.3,Win32,60,-0.099074074,-0.263888889,1,0,0,1.48268,scale,,,,,,0.349027907,0.282842712,0.174513954,0.141421356,stimuli/lakes/804048_left.png,stimuli/lakes/804048_right.png,,,,0,129,129,48,1,,,,,
,,,,,,$5ea079d45f2eaf03fdb21a1c,2020-07-21_16h44.25.720,fisher_task,2020.1.3,Win32,60,,,,,,,,,,,,,,,,,,,,,,,,,,,,space,6.05351,space,12.381115
