keySpace.keys,instructions.thisRepN,instructions.thisTrialN,instructions.thisN,instructions.thisIndex,instructions.ran,participant,date,expName,psychopyVersion,OS,frameRate,mouse.x,mouse.y,mouse.leftButton,mouse.midButton,mouse.rightButton,mouse.time,mouse.clicked_name,training.thisRepN,training.thisTrialN,training.thisN,training.thisIndex,training.ran,widthBasketLeft,heightBasketLeft,widthBasketRight,heightBasketRight,leftLake,rightLake,space2.keys,space2.rt,space1.keys,trials.thisRepN,trials.thisTrialN,trials.thisN,trials.thisIndex,trials.ran,space1.rt,finalSpace1.keys,finalSpace1.rt,finalSpace2.keys,finalSpace2.rt
,0,0,0,0,1,$5cf688097ca223000108ac23,2020-07-21_16h45.38.635,fisher_task,2020.1.3,Win32,60,,,,,,,,,,,,,,,,,,,,,,,,,,,,,,,
,,,,,,$5cf688097ca223000108ac23,2020-07-21_16h45.38.635,fisher_task,2020.1.3,Win32,60,0.13,-0.322222222,1,0,0,2.746315,scale,0,0,0,0,1,0.275930788,0.223606798,0.275930788,0.223606798,stimuli/training/20_left.png,stimuli/training/20_right.png,,,,,,,,,,,,,
,,,,,,$5cf688097ca223000108ac23,2020-07-21_16h45.38.635,fisher_task,2020.1.3,Win32,60,-0.148888889,-0.383333333,1,0,0,1.815275,scale,0,1,1,1,1,0.275930788,0.223606798,0.275930788,0.223606798,stimuli/training/80_left.png,stimuli/training/80_right.png,,,,,,,,,,,,,
,,,,,,$5cf688097ca223000108ac23,2020-07-21_16h45.38.635,fisher_task,2020.1.3,Win32,60,0.142222222,-0.347777778,1,0,0,2.14621,scale,0,2,2,2,1,0.174513954,0.141421356,0.349027907,0.282842712,stimuli/training/50_left.png,stimuli/training/50_right.png,,,,,,,,,,,,,
,,,,,,$5cf688097ca223000108ac23,2020-07-21_16h45.38.635,fisher_task,2020.1.3,Win32,60,0.073333333,-0.267777778,1,0,0,2.14718,scale,0,3,3,3,1,0.349027907,0.282842712,0.174513954,0.141421356,stimuli/training/50_left.png,stimuli/training/50_right.png,,,,,,,,,,,,,
,,,,,,$5cf688097ca223000108ac23,2020-07-21_16h45.38.635,fisher_task,2020.1.3,Win32,60,-0.135555556,-0.3,1,0,0,2.213205,scale,0,4,4,4,1,0.275930788,0.223606798,0.275930788,0.223606798,stimuli/training/50_left.png,stimuli/training/50_right.png,,,,,,,,,,,,,
,,,,,,$5cf688097ca223000108ac23,2020-07-21_16h45.38.635,fisher_task,2020.1.3,Win32,60,0.145555556,-0.406666667,1,0,0,1.51391,scale,0,5,5,5,1,0.174513954,0.141421356,0.349027907,0.282842712,stimuli/training/20_left.png,stimuli/training/20_right.png,,,,,,,,,,,,,
,,,,,,$5cf688097ca223000108ac23,2020-07-21_16h45.38.635,fisher_task,2020.1.3,Win32,60,-0.164444444,-0.432222222,1,0,0,1.331735,scale,0,6,6,6,1,0.349027907,0.282842712,0.174513954,0.141421356,stimuli/training/80_left.png,stimuli/training/80_right.png,,,,,,,,,,,,,
,,,,,,$5cf688097ca223000108ac23,2020-07-21_16h45.38.635,fisher_task,2020.1.3,Win32,60,0.183333333,-0.427777778,1,0,0,1.4971,scale,0,7,7,7,1,0.1234,0.1,0.3702,0.3,stimuli/training/30_left.png,stimuli/training/30_right.png,,,,,,,,,,,,,
,,,,,,$5cf688097ca223000108ac23,2020-07-21_16h45.38.635,fisher_task,2020.1.3,Win32,60,-0.158888889,-0.407777778,1,0,0,2.029325,scale,0,8,8,8,1,0.3702,0.3,0.1234,0.1,stimuli/training/70_left.png,stimuli/training/70_right.png,,,,,,,,,,,,,
,,,,,,$5cf688097ca223000108ac23,2020-07-21_16h45.38.635,fisher_task,2020.1.3,Win32,60,-0.151111111,-0.423333333,1,0,0,1.446715,scale,0,9,9,9,1,0.326485712,0.264575131,0.21373507,0.173205081,stimuli/training/90_left.png,stimuli/training/90_right.png,,,,,,,,,,,,,
,,,,,,$5cf688097ca223000108ac23,2020-07-21_16h45.38.635,fisher_task,2020.1.3,Win32,60,0.171111111,-0.421111111,1,0,0,1.248765,scale,0,10,10,10,1,0.21373507,0.173205081,0.326485712,0.264575131,stimuli/training/10_left.png,stimuli/training/10_right.png,,,,,,,,,,,,,
,,,,,,$5cf688097ca223000108ac23,2020-07-21_16h45.38.635,fisher_task,2020.1.3,Win32,60,0.153333333,-0.407777778,1,0,0,1.63088,scale,,,,,,0.2468,0.2,0.302267034,0.244948974,stimuli/lakes/402015_left.png,stimuli/lakes/402015_right.png,space,7.56655,,0,0,0,15,1,,,,,
,,,,,,$5cf688097ca223000108ac23,2020-07-21_16h45.38.635,fisher_task,2020.1.3,Win32,60,0.047777778,-0.262222222,1,0,0,2.329345,scale,,,,,,0.326485712,0.264575131,0.21373507,0.173205081,stimuli/lakes/704047_left.png,stimuli/lakes/704047_right.png,,,,0,1,1,47,1,,,,,
,,,,,,$5cf688097ca223000108ac23,2020-07-21_16h45.38.635,fisher_task,2020.1.3,Win32,60,-0.072222222,-0.275555556,1,0,0,1.99929,scale,,,,,,0.21373507,0.173205081,0.326485712,0.264575131,stimuli/lakes/3080109_left.png,stimuli/lakes/3080109_right.png,,,,0,2,2,109,1,,,,,
,,,,,,$5cf688097ca223000108ac23,2020-07-21_16h45.38.635,fisher_task,2020.1.3,Win32,60,0.147777778,-0.41,1,0,0,1.848165,scale,,,,,,0.174513954,0.141421356,0.349027907,0.282842712,stimuli/lakes/203024_left.png,stimuli/lakes/203024_right.png,,,,0,3,3,24,1,,,,,
,,,,,,$5cf688097ca223000108ac23,2020-07-21_16h45.38.635,fisher_task,2020.1.3,Win32,60,-0.13,-0.313333333,1,0,0,2.097595,scale,,,,,,0.1234,0.1,0.3702,0.3,stimuli/lakes/1090119_left.png,stimuli/lakes/1090119_right.png,,,,0,4,4,119,1,,,,,
,,,,,,$5cf688097ca223000108ac23,2020-07-21_16h45.38.635,fisher_task,2020.1.3,Win32,60,0.162222222,-0.381111111,1,0,0,1.9968,scale,,,,,,0.326485712,0.264575131,0.21373507,0.173205081,stimuli/lakes/702020_left.png,stimuli/lakes/702020_right.png,,,,0,5,5,20,1,,,,,
,,,,,,$5cf688097ca223000108ac23,2020-07-21_16h45.38.635,fisher_task,2020.1.3,Win32,60,-0.183333333,-0.426666667,1,0,0,1.614645,scale,,,,,,0.302267034,0.244948974,0.2468,0.2,stimuli/lakes/6090126_left.png,stimuli/lakes/6090126_right.png,,,,0,6,6,126,1,,,,,
,,,,,,$5cf688097ca223000108ac23,2020-07-21_16h45.38.635,fisher_task,2020.1.3,Win32,60,0.01,-0.252222222,1,0,0,2.413505,scale,,,,,,0.174513954,0.141421356,0.349027907,0.282842712,stimuli/lakes/206072_left.png,stimuli/lakes/206072_right.png,,,,0,7,7,72,1,,,,,
,,,,,,$5cf688097ca223000108ac23,2020-07-21_16h45.38.635,fisher_task,2020.1.3,Win32,60,0.057777778,-0.26,1,0,0,1.78059,scale,,,,,,0.302267034,0.244948974,0.2468,0.2,stimuli/lakes/603037_left.png,stimuli/lakes/603037_right.png,,,,0,8,8,37,1,,,,,
,,,,,,$5cf688097ca223000108ac23,2020-07-21_16h45.38.635,fisher_task,2020.1.3,Win32,60,0.114444444,-0.312222222,1,0,0,1.92943,scale,,,,,,0.21373507,0.173205081,0.326485712,0.264575131,stimuli/lakes/303034_left.png,stimuli/lakes/303034_right.png,,,,0,9,9,34,1,,,,,
,,,,,,$5cf688097ca223000108ac23,2020-07-21_16h45.38.635,fisher_task,2020.1.3,Win32,60,0.115555556,-0.315555556,1,0,0,2.21289,scale,,,,,,0.326485712,0.264575131,0.21373507,0.173205081,stimuli/lakes/70108_left.png,stimuli/lakes/70108_right.png,,,,0,10,10,8,1,,,,,
,,,,,,$5cf688097ca223000108ac23,2020-07-21_16h45.38.635,fisher_task,2020.1.3,Win32,60,-0.181111111,-0.413333333,1,0,0,2.14594,scale,,,,,,0.349027907,0.282842712,0.174513954,0.141421356,stimuli/lakes/807096_left.png,stimuli/lakes/807096_right.png,,,,0,11,11,96,1,,,,,
,,,,,,$5cf688097ca223000108ac23,2020-07-21_16h45.38.635,fisher_task,2020.1.3,Win32,60,0.148888889,-0.387777778,1,0,0,1.647345,scale,,,,,,0.21373507,0.173205081,0.326485712,0.264575131,stimuli/lakes/304043_left.png,stimuli/lakes/304043_right.png,,,,0,12,12,43,1,,,,,
,,,,,,$5cf688097ca223000108ac23,2020-07-21_16h45.38.635,fisher_task,2020.1.3,Win32,60,-0.06,-0.238888889,1,0,0,1.96389,scale,,,,,,0.174513954,0.141421356,0.349027907,0.282842712,stimuli/lakes/2080108_left.png,stimuli/lakes/2080108_right.png,,,,0,13,13,108,1,,,,,
,,,,,,$5cf688097ca223000108ac23,2020-07-21_16h45.38.635,fisher_task,2020.1.3,Win32,60,0.141111111,-0.36,1,0,0,1.781655,scale,,,,,,0.1234,0.1,0.3702,0.3,stimuli/lakes/103023_left.png,stimuli/lakes/103023_right.png,,,,0,14,14,23,1,,,,,
,,,,,,$5cf688097ca223000108ac23,2020-07-21_16h45.38.635,fisher_task,2020.1.3,Win32,60,0.044444444,-0.253333333,1,0,0,1.997045,scale,,,,,,0.326485712,0.264575131,0.21373507,0.173205081,stimuli/lakes/703029_left.png,stimuli/lakes/703029_right.png,,,,0,15,15,29,1,,,,,
,,,,,,$5cf688097ca223000108ac23,2020-07-21_16h45.38.635,fisher_task,2020.1.3,Win32,60,0.036666667,-0.246666667,1,0,0,2.146465,scale,,,,,,0.3702,0.3,0.1234,0.1,stimuli/lakes/904058_left.png,stimuli/lakes/904058_right.png,,,,0,16,16,58,1,,,,,
,,,,,,$5cf688097ca223000108ac23,2020-07-21_16h45.38.635,fisher_task,2020.1.3,Win32,60,-0.093333333,-0.273333333,1,0,0,2.16404,scale,,,,,,0.21373507,0.173205081,0.326485712,0.264575131,stimuli/lakes/3090122_left.png,stimuli/lakes/3090122_right.png,,,,0,17,17,122,1,,,,,
,,,,,,$5cf688097ca223000108ac23,2020-07-21_16h45.38.635,fisher_task,2020.1.3,Win32,60,0.047777778,-0.248888889,1,0,0,2.063415,scale,,,,,,0.174513954,0.141421356,0.349027907,0.282842712,stimuli/lakes/205060_left.png,stimuli/lakes/205060_right.png,,,,0,18,18,60,1,,,,,
,,,,,,$5cf688097ca223000108ac23,2020-07-21_16h45.38.635,fisher_task,2020.1.3,Win32,60,-0.093333333,-0.262222222,1,0,0,1.51569,scale,,,,,,0.1234,0.1,0.3702,0.3,stimuli/lakes/1080107_left.png,stimuli/lakes/1080107_right.png,,,,0,19,19,107,1,,,,,
,,,,,,$5cf688097ca223000108ac23,2020-07-21_16h45.38.635,fisher_task,2020.1.3,Win32,60,0.131111111,-0.347777778,1,0,0,1.61405,scale,,,,,,0.174513954,0.141421356,0.349027907,0.282842712,stimuli/lakes/204042_left.png,stimuli/lakes/204042_right.png,,,,0,20,20,42,1,,,,,
,,,,,,$5cf688097ca223000108ac23,2020-07-21_16h45.38.635,fisher_task,2020.1.3,Win32,60,-0.04,-0.244444444,1,0,0,1.92991,scale,,,,,,0.21373507,0.173205081,0.326485712,0.264575131,stimuli/lakes/307091_left.png,stimuli/lakes/307091_right.png,,,,0,21,21,91,1,,,,,
,,,,,,$5cf688097ca223000108ac23,2020-07-21_16h45.38.635,fisher_task,2020.1.3,Win32,60,-0.146666667,-0.332222222,1,0,0,1.513875,scale,,,,,,0.275930788,0.223606798,0.275930788,0.223606798,stimuli/lakes/507093_left.png,stimuli/lakes/507093_right.png,,,space,0,22,22,93,1,35.21475,,,,
,,,,,,$5cf688097ca223000108ac23,2020-07-21_16h45.38.635,fisher_task,2020.1.3,Win32,60,0.052222222,-0.262222222,1,0,0,1.331735,scale,,,,,,0.349027907,0.282842712,0.174513954,0.141421356,stimuli/lakes/802021_left.png,stimuli/lakes/802021_right.png,,,,0,23,23,21,1,,,,,
,,,,,,$5cf688097ca223000108ac23,2020-07-21_16h45.38.635,fisher_task,2020.1.3,Win32,60,0.114444444,-0.281111111,1,0,0,1.597265,scale,,,,,,0.3702,0.3,0.1234,0.1,stimuli/lakes/903040_left.png,stimuli/lakes/903040_right.png,,,,0,24,24,40,1,,,,,
,,,,,,$5cf688097ca223000108ac23,2020-07-21_16h45.38.635,fisher_task,2020.1.3,Win32,60,-0.136666667,-0.316666667,1,0,0,1.697695,scale,,,,,,0.302267034,0.244948974,0.2468,0.2,stimuli/lakes/606085_left.png,stimuli/lakes/606085_right.png,,,,0,25,25,85,1,,,,,
,,,,,,$5cf688097ca223000108ac23,2020-07-21_16h45.38.635,fisher_task,2020.1.3,Win32,60,-0.155555556,-0.394444444,1,0,0,1.46432,scale,,,,,,0.275930788,0.223606798,0.275930788,0.223606798,stimuli/lakes/5090125_left.png,stimuli/lakes/5090125_right.png,,,,0,26,26,125,1,,,,,
,,,,,,$5cf688097ca223000108ac23,2020-07-21_16h45.38.635,fisher_task,2020.1.3,Win32,60,0.038888889,-0.232222222,1,0,0,1.88082,scale,,,,,,0.2468,0.2,0.302267034,0.244948974,stimuli/lakes/404053_left.png,stimuli/lakes/404053_right.png,,,,0,27,27,53,1,,,,,
,,,,,,$5cf688097ca223000108ac23,2020-07-21_16h45.38.635,fisher_task,2020.1.3,Win32,60,0.167777778,-0.423333333,1,0,0,1.66322,scale,,,,,,0.21373507,0.173205081,0.326485712,0.264575131,stimuli/lakes/302012_left.png,stimuli/lakes/302012_right.png,,,,0,28,28,12,1,,,,,
,,,,,,$5cf688097ca223000108ac23,2020-07-21_16h45.38.635,fisher_task,2020.1.3,Win32,60,0.154444444,-0.437777778,1,0,0,1.43109,scale,,,,,,0.21373507,0.173205081,0.326485712,0.264575131,stimuli/lakes/30101_left.png,stimuli/lakes/30101_right.png,,,,0,29,29,1,1,,,,,
,,,,,,$5cf688097ca223000108ac23,2020-07-21_16h45.38.635,fisher_task,2020.1.3,Win32,60,-0.02,-0.245555556,1,0,0,2.4121,scale,,,,,,0.349027907,0.282842712,0.174513954,0.141421356,stimuli/lakes/803039_left.png,stimuli/lakes/803039_right.png,,,,0,30,30,39,1,,,,,
,,,,,,$5cf688097ca223000108ac23,2020-07-21_16h45.38.635,fisher_task,2020.1.3,Win32,60,-0.052222222,-0.266666667,1,0,0,2.69622,scale,,,,,,0.326485712,0.264575131,0.21373507,0.173205081,stimuli/lakes/705067_left.png,stimuli/lakes/705067_right.png,,,,0,31,31,67,1,,,,,
,,,,,,$5cf688097ca223000108ac23,2020-07-21_16h45.38.635,fisher_task,2020.1.3,Win32,60,-0.156666667,-0.403333333,1,0,0,1.79675,scale,,,,,,0.349027907,0.282842712,0.174513954,0.141421356,stimuli/lakes/8070105_left.png,stimuli/lakes/8070105_right.png,,,,0,32,32,105,1,,,,,
,,,,,,$5cf688097ca223000108ac23,2020-07-21_16h45.38.635,fisher_task,2020.1.3,Win32,60,-0.057777778,-0.251111111,1,0,0,2.29693,scale,,,,,,0.2468,0.2,0.302267034,0.244948974,stimuli/lakes/4080112_left.png,stimuli/lakes/4080112_right.png,,,,0,33,33,112,1,,,,,
,,,,,,$5cf688097ca223000108ac23,2020-07-21_16h45.38.635,fisher_task,2020.1.3,Win32,60,-0.186666667,-0.427777778,1,0,0,1.51476,scale,,,,,,0.326485712,0.264575131,0.21373507,0.173205081,stimuli/lakes/7090129_left.png,stimuli/lakes/7090129_right.png,,,,0,34,34,129,1,,,,,
,,,,,,$5cf688097ca223000108ac23,2020-07-21_16h45.38.635,fisher_task,2020.1.3,Win32,60,0.075555556,-0.271111111,1,0,0,1.76279,scale,,,,,,0.21373507,0.173205081,0.326485712,0.264575131,stimuli/lakes/305062_left.png,stimuli/lakes/305062_right.png,,,,0,35,35,62,1,,,,,
,,,,,,$5cf688097ca223000108ac23,2020-07-21_16h45.38.635,fisher_task,2020.1.3,Win32,60,0.08,-0.247777778,1,0,0,1.930705,scale,,,,,,0.302267034,0.244948974,0.2468,0.2,stimuli/lakes/602018_left.png,stimuli/lakes/602018_right.png,,,,0,36,36,18,1,,,,,
,,,,,,$5cf688097ca223000108ac23,2020-07-21_16h45.38.635,fisher_task,2020.1.3,Win32,60,0.174444444,-0.418888889,1,0,0,1.481655,scale,,,,,,0.21373507,0.173205081,0.326485712,0.264575131,stimuli/lakes/30100_left.png,stimuli/lakes/30100_right.png,,,,0,37,37,0,1,,,,,
,,,,,,$5cf688097ca223000108ac23,2020-07-21_16h45.38.635,fisher_task,2020.1.3,Win32,60,-0.007777778,-0.238888889,1,0,0,2.229665,scale,,,,,,0.1234,0.1,0.3702,0.3,stimuli/lakes/106080_left.png,stimuli/lakes/106080_right.png,,,,0,38,38,80,1,,,,,
,,,,,,$5cf688097ca223000108ac23,2020-07-21_16h45.38.635,fisher_task,2020.1.3,Win32,60,-0.045555556,-0.26,1,0,0,2.196445,scale,,,,,,0.3702,0.3,0.1234,0.1,stimuli/lakes/904049_left.png,stimuli/lakes/904049_right.png,,,,0,39,39,49,1,,,,,
,,,,,,$5cf688097ca223000108ac23,2020-07-21_16h45.38.635,fisher_task,2020.1.3,Win32,60,0.161111111,-0.365555556,1,0,0,1.463745,scale,,,,,,0.302267034,0.244948974,0.2468,0.2,stimuli/lakes/60106_left.png,stimuli/lakes/60106_right.png,,,,0,40,40,6,1,,,,,
,,,,,,$5cf688097ca223000108ac23,2020-07-21_16h45.38.635,fisher_task,2020.1.3,Win32,60,-0.046666667,-0.232222222,1,0,0,1.78182,scale,,,,,,0.174513954,0.141421356,0.349027907,0.282842712,stimuli/lakes/206081_left.png,stimuli/lakes/206081_right.png,,,,0,41,41,81,1,,,,,
,,,,,,$5cf688097ca223000108ac23,2020-07-21_16h45.38.635,fisher_task,2020.1.3,Win32,60,0.111111111,-0.292222222,1,0,0,1.747015,scale,,,,,,0.2468,0.2,0.302267034,0.244948974,stimuli/lakes/405064_left.png,stimuli/lakes/405064_right.png,,,,0,42,42,64,1,,,,,
,,,,,,$5cf688097ca223000108ac23,2020-07-21_16h45.38.635,fisher_task,2020.1.3,Win32,60,-0.102222222,-0.277777778,1,0,0,1.46458,scale,,,,,,0.349027907,0.282842712,0.174513954,0.141421356,stimuli/lakes/805069_left.png,stimuli/lakes/805069_right.png,,,,0,43,43,69,1,,,,,
,,,,,,$5cf688097ca223000108ac23,2020-07-21_16h45.38.635,fisher_task,2020.1.3,Win32,60,-0.104444444,-0.274444444,1,0,0,1.58123,scale,,,,,,0.2468,0.2,0.302267034,0.244948974,stimuli/lakes/4080111_left.png,stimuli/lakes/4080111_right.png,,,space,0,44,44,111,1,4.6748,,,,
,,,,,,$5cf688097ca223000108ac23,2020-07-21_16h45.38.635,fisher_task,2020.1.3,Win32,60,0.046666667,-0.237777778,1,0,0,2.197525,scale,,,,,,0.302267034,0.244948974,0.2468,0.2,stimuli/lakes/604055_left.png,stimuli/lakes/604055_right.png,,,,0,45,45,55,1,,,,,
,,,,,,$5cf688097ca223000108ac23,2020-07-21_16h45.38.635,fisher_task,2020.1.3,Win32,60,0.002222222,-0.232222222,1,0,0,2.04658,scale,,,,,,0.3702,0.3,0.1234,0.1,stimuli/lakes/903031_left.png,stimuli/lakes/903031_right.png,,,,0,46,46,31,1,,,,,
,,,,,,$5cf688097ca223000108ac23,2020-07-21_16h45.38.635,fisher_task,2020.1.3,Win32,60,0.135555556,-0.311111111,1,0,0,1.29843,scale,,,,,,0.326485712,0.264575131,0.21373507,0.173205081,stimuli/lakes/70107_left.png,stimuli/lakes/70107_right.png,,,,0,47,47,7,1,,,,,
,,,,,,$5cf688097ca223000108ac23,2020-07-21_16h45.38.635,fisher_task,2020.1.3,Win32,60,0.063333333,-0.244444444,1,0,0,2.431155,scale,,,,,,0.326485712,0.264575131,0.21373507,0.173205081,stimuli/lakes/704056_left.png,stimuli/lakes/704056_right.png,,,,0,48,48,56,1,,,,,
,,,,,,$5cf688097ca223000108ac23,2020-07-21_16h45.38.635,fisher_task,2020.1.3,Win32,60,0.17,-0.423333333,1,0,0,1.76455,scale,,,,,,0.21373507,0.173205081,0.326485712,0.264575131,stimuli/lakes/302013_left.png,stimuli/lakes/302013_right.png,,,,0,49,49,13,1,,,,,
,,,,,,$5cf688097ca223000108ac23,2020-07-21_16h45.38.635,fisher_task,2020.1.3,Win32,60,0.047777778,-0.255555556,1,0,0,3.211965,scale,,,,,,0.2468,0.2,0.302267034,0.244948974,stimuli/lakes/406074_left.png,stimuli/lakes/406074_right.png,,,,0,50,50,74,1,,,,,
,,,,,,$5cf688097ca223000108ac23,2020-07-21_16h45.38.635,fisher_task,2020.1.3,Win32,60,-0.173333333,-0.371111111,1,0,0,1.663715,scale,,,,,,0.349027907,0.282842712,0.174513954,0.141421356,stimuli/lakes/806087_left.png,stimuli/lakes/806087_right.png,,,,0,51,51,87,1,,,,,
,,,,,,$5cf688097ca223000108ac23,2020-07-21_16h45.38.635,fisher_task,2020.1.3,Win32,60,-0.061111111,-0.251111111,1,0,0,2.03052,scale,,,,,,0.21373507,0.173205081,0.326485712,0.264575131,stimuli/lakes/3070100_left.png,stimuli/lakes/3070100_right.png,,,,0,52,52,100,1,,,,,
,,,,,,$5cf688097ca223000108ac23,2020-07-21_16h45.38.635,fisher_task,2020.1.3,Win32,60,0.047777778,-0.244444444,1,0,0,2.12957,scale,,,,,,0.1234,0.1,0.3702,0.3,stimuli/lakes/105059_left.png,stimuli/lakes/105059_right.png,,,,0,53,53,59,1,,,,,
,,,,,,$5cf688097ca223000108ac23,2020-07-21_16h45.38.635,fisher_task,2020.1.3,Win32,60,-0.178888889,-0.412222222,1,0,0,1.381865,scale,,,,,,0.3702,0.3,0.1234,0.1,stimuli/lakes/9070106_left.png,stimuli/lakes/9070106_right.png,,,,0,54,54,106,1,,,,,
,,,,,,$5cf688097ca223000108ac23,2020-07-21_16h45.38.635,fisher_task,2020.1.3,Win32,60,0.16,-0.42,1,0,0,1.513325,scale,,,,,,0.2468,0.2,0.302267034,0.244948974,stimuli/lakes/403026_left.png,stimuli/lakes/403026_right.png,,,,0,55,55,26,1,,,,,
,,,,,,$5cf688097ca223000108ac23,2020-07-21_16h45.38.635,fisher_task,2020.1.3,Win32,60,0.05,-0.26,1,0,0,2.69613,scale,,,,,,0.3702,0.3,0.1234,0.1,stimuli/lakes/902022_left.png,stimuli/lakes/902022_right.png,,,,0,56,56,22,1,,,,,
,,,,,,$5cf688097ca223000108ac23,2020-07-21_16h45.38.635,fisher_task,2020.1.3,Win32,60,0.107777778,-0.286666667,1,0,0,1.380875,scale,,,,,,0.3702,0.3,0.1234,0.1,stimuli/lakes/901010_left.png,stimuli/lakes/901010_right.png,,,,0,57,57,10,1,,,,,
,,,,,,$5cf688097ca223000108ac23,2020-07-21_16h45.38.635,fisher_task,2020.1.3,Win32,60,0.153333333,-0.342222222,1,0,0,1.431965,scale,,,,,,0.21373507,0.173205081,0.326485712,0.264575131,stimuli/lakes/303025_left.png,stimuli/lakes/303025_right.png,,,,0,58,58,25,1,,,,,
,,,,,,$5cf688097ca223000108ac23,2020-07-21_16h45.38.635,fisher_task,2020.1.3,Win32,60,-0.156666667,-0.387777778,1,0,0,1.863855,scale,,,,,,0.275930788,0.223606798,0.275930788,0.223606798,stimuli/lakes/5080113_left.png,stimuli/lakes/5080113_right.png,,,,0,59,59,113,1,,,,,
,,,,,,$5cf688097ca223000108ac23,2020-07-21_16h45.38.635,fisher_task,2020.1.3,Win32,60,0.082222222,-0.252222222,1,0,0,1.913405,scale,,,,,,0.174513954,0.141421356,0.349027907,0.282842712,stimuli/lakes/202011_left.png,stimuli/lakes/202011_right.png,,,,0,60,60,11,1,,,,,
,,,,,,$5cf688097ca223000108ac23,2020-07-21_16h45.38.635,fisher_task,2020.1.3,Win32,60,0.145555556,-0.332222222,1,0,0,1.6146,scale,,,,,,0.2468,0.2,0.302267034,0.244948974,stimuli/lakes/404044_left.png,stimuli/lakes/404044_right.png,,,,0,61,61,44,1,,,,,
,,,,,,$5cf688097ca223000108ac23,2020-07-21_16h45.38.635,fisher_task,2020.1.3,Win32,60,0.154444444,-0.363333333,1,0,0,1.531335,scale,,,,,,0.2468,0.2,0.302267034,0.244948974,stimuli/lakes/403035_left.png,stimuli/lakes/403035_right.png,,,,0,62,62,35,1,,,,,
,,,,,,$5cf688097ca223000108ac23,2020-07-21_16h45.38.635,fisher_task,2020.1.3,Win32,60,-0.048888889,-0.267777778,1,0,0,2.04692,scale,,,,,,0.302267034,0.244948974,0.2468,0.2,stimuli/lakes/605065_left.png,stimuli/lakes/605065_right.png,,,,0,63,63,65,1,,,,,
,,,,,,$5cf688097ca223000108ac23,2020-07-21_16h45.38.635,fisher_task,2020.1.3,Win32,60,0.086666667,-0.26,1,0,0,1.93146,scale,,,,,,0.349027907,0.282842712,0.174513954,0.141421356,stimuli/lakes/80109_left.png,stimuli/lakes/80109_right.png,,,,0,64,64,9,1,,,,,
,,,,,,$5cf688097ca223000108ac23,2020-07-21_16h45.38.635,fisher_task,2020.1.3,Win32,60,-0.062222222,-0.241111111,1,0,0,1.979295,scale,,,,,,0.21373507,0.173205081,0.326485712,0.264575131,stimuli/lakes/3090121_left.png,stimuli/lakes/3090121_right.png,,,,0,65,65,121,1,,,,,
,,,,,,$5cf688097ca223000108ac23,2020-07-21_16h45.38.635,fisher_task,2020.1.3,Win32,60,-0.18,-0.432222222,1,0,0,1.51414,scale,,,,,,0.302267034,0.244948974,0.2468,0.2,stimuli/lakes/6090127_left.png,stimuli/lakes/6090127_right.png,,,space,0,66,66,127,1,2.906225,,,,
,,,,,,$5cf688097ca223000108ac23,2020-07-21_16h45.38.635,fisher_task,2020.1.3,Win32,60,-0.157777778,-0.388888889,1,0,0,1.71432,scale,,,,,,0.349027907,0.282842712,0.174513954,0.141421356,stimuli/lakes/806078_left.png,stimuli/lakes/806078_right.png,,,,0,67,67,78,1,,,,,
,,,,,,$5cf688097ca223000108ac23,2020-07-21_16h45.38.635,fisher_task,2020.1.3,Win32,60,-0.133333333,-0.348888889,1,0,0,1.164585,scale,,,,,,0.326485712,0.264575131,0.21373507,0.173205081,stimuli/lakes/707095_left.png,stimuli/lakes/707095_right.png,,,,0,68,68,95,1,,,,,
,,,,,,$5cf688097ca223000108ac23,2020-07-21_16h45.38.635,fisher_task,2020.1.3,Win32,60,-0.148888889,-0.378888889,1,0,0,1.430955,scale,,,,,,0.3702,0.3,0.1234,0.1,stimuli/lakes/907097_left.png,stimuli/lakes/907097_right.png,,,,0,69,69,97,1,,,,,
,,,,,,$5cf688097ca223000108ac23,2020-07-21_16h45.38.635,fisher_task,2020.1.3,Win32,60,-0.145555556,-0.382222222,1,0,0,2.11358,scale,,,,,,0.302267034,0.244948974,0.2468,0.2,stimuli/lakes/6070103_left.png,stimuli/lakes/6070103_right.png,,,,0,70,70,103,1,,,,,
,,,,,,$5cf688097ca223000108ac23,2020-07-21_16h45.38.635,fisher_task,2020.1.3,Win32,60,0.04,-0.236666667,1,0,0,1.89656,scale,,,,,,0.349027907,0.282842712,0.174513954,0.141421356,stimuli/lakes/803030_left.png,stimuli/lakes/803030_right.png,,,,0,71,71,30,1,,,,,
,,,,,,$5cf688097ca223000108ac23,2020-07-21_16h45.38.635,fisher_task,2020.1.3,Win32,60,-0.066666667,-0.275555556,1,0,0,1.796565,scale,,,,,,0.3702,0.3,0.1234,0.1,stimuli/lakes/905070_left.png,stimuli/lakes/905070_right.png,,,,0,72,72,70,1,,,,,
,,,,,,$5cf688097ca223000108ac23,2020-07-21_16h45.38.635,fisher_task,2020.1.3,Win32,60,-0.137777778,-0.405555556,1,0,0,1.182545,scale,,,,,,0.326485712,0.264575131,0.21373507,0.173205081,stimuli/lakes/7090128_left.png,stimuli/lakes/7090128_right.png,,,,0,73,73,128,1,,,,,
,,,,,,$5cf688097ca223000108ac23,2020-07-21_16h45.38.635,fisher_task,2020.1.3,Win32,60,0.098888889,-0.253333333,1,0,0,2.1802,scale,,,,,,0.302267034,0.244948974,0.2468,0.2,stimuli/lakes/60105_left.png,stimuli/lakes/60105_right.png,,,,0,74,74,5,1,,,,,
,,,,,,$5cf688097ca223000108ac23,2020-07-21_16h45.38.635,fisher_task,2020.1.3,Win32,60,0.178888889,-0.431111111,1,0,0,1.46526,scale,,,,,,0.2468,0.2,0.302267034,0.244948974,stimuli/lakes/40103_left.png,stimuli/lakes/40103_right.png,,,,0,75,75,3,1,,,,,
,,,,,,$5cf688097ca223000108ac23,2020-07-21_16h45.38.635,fisher_task,2020.1.3,Win32,60,-0.137777778,-0.307777778,1,0,0,2.396985,scale,,,,,,0.326485712,0.264575131,0.21373507,0.173205081,stimuli/lakes/706086_left.png,stimuli/lakes/706086_right.png,,,,0,76,76,86,1,,,,,
,,,,,,$5cf688097ca223000108ac23,2020-07-21_16h45.38.635,fisher_task,2020.1.3,Win32,60,-0.116666667,-0.304444444,1,0,0,1.51047,scale,,,,,,0.326485712,0.264575131,0.21373507,0.173205081,stimuli/lakes/706077_left.png,stimuli/lakes/706077_right.png,,,,0,77,77,77,1,,,,,
,,,,,,$5cf688097ca223000108ac23,2020-07-21_16h45.38.635,fisher_task,2020.1.3,Win32,60,0.046666667,-0.255555556,1,0,0,3.32857,scale,,,,,,0.326485712,0.264575131,0.21373507,0.173205081,stimuli/lakes/703038_left.png,stimuli/lakes/703038_right.png,,,,0,78,78,38,1,,,,,
,,,,,,$5cf688097ca223000108ac23,2020-07-21_16h45.38.635,fisher_task,2020.1.3,Win32,60,0.096666667,-0.281111111,1,0,0,1.68045,scale,,,,,,0.275930788,0.223606798,0.275930788,0.223606798,stimuli/lakes/504045_left.png,stimuli/lakes/504045_right.png,,,,0,79,79,45,1,,,,,
,,,,,,$5cf688097ca223000108ac23,2020-07-21_16h45.38.635,fisher_task,2020.1.3,Win32,60,-0.15,-0.403333333,1,0,0,2.13045,scale,,,,,,0.326485712,0.264575131,0.21373507,0.173205081,stimuli/lakes/7080117_left.png,stimuli/lakes/7080117_right.png,,,,0,80,80,117,1,,,,,
,,,,,,$5cf688097ca223000108ac23,2020-07-21_16h45.38.635,fisher_task,2020.1.3,Win32,60,-0.095555556,-0.284444444,1,0,0,1.89754,scale,,,,,,0.349027907,0.282842712,0.174513954,0.141421356,stimuli/lakes/804057_left.png,stimuli/lakes/804057_right.png,,,,0,81,81,57,1,,,,,
,,,,,,$5cf688097ca223000108ac23,2020-07-21_16h45.38.635,fisher_task,2020.1.3,Win32,60,-0.145555556,-0.343333333,1,0,0,1.84753,scale,,,,,,0.275930788,0.223606798,0.275930788,0.223606798,stimuli/lakes/506084_left.png,stimuli/lakes/506084_right.png,,,,0,82,82,84,1,,,,,
,,,,,,$5cf688097ca223000108ac23,2020-07-21_16h45.38.635,fisher_task,2020.1.3,Win32,60,-0.14,-0.385555556,1,0,0,1.831045,scale,,,,,,0.302267034,0.244948974,0.2468,0.2,stimuli/lakes/606076_left.png,stimuli/lakes/606076_right.png,,,,0,83,83,76,1,,,,,
,,,,,,$5cf688097ca223000108ac23,2020-07-21_16h45.38.635,fisher_task,2020.1.3,Win32,60,0.07,-0.243333333,1,0,0,1.730815,scale,,,,,,0.275930788,0.223606798,0.275930788,0.223606798,stimuli/lakes/504054_left.png,stimuli/lakes/504054_right.png,,,,0,84,84,54,1,,,,,
,,,,,,$5cf688097ca223000108ac23,2020-07-21_16h45.38.635,fisher_task,2020.1.3,Win32,60,-0.135555556,-0.322222222,1,0,0,2.029345,scale,,,,,,0.275930788,0.223606798,0.275930788,0.223606798,stimuli/lakes/5070102_left.png,stimuli/lakes/5070102_right.png,,,,0,85,85,102,1,,,,,
,,,,,,$5cf688097ca223000108ac23,2020-07-21_16h45.38.635,fisher_task,2020.1.3,Win32,60,0.012222222,-0.25,1,0,0,3.028415,scale,,,,,,0.1234,0.1,0.3702,0.3,stimuli/lakes/107098_left.png,stimuli/lakes/107098_right.png,,,,0,86,86,98,1,,,,,
,,,,,,$5cf688097ca223000108ac23,2020-07-21_16h45.38.635,fisher_task,2020.1.3,Win32,60,0.135555556,-0.314444444,1,0,0,1.43045,scale,,,,,,0.275930788,0.223606798,0.275930788,0.223606798,stimuli/lakes/502016_left.png,stimuli/lakes/502016_right.png,,,,0,87,87,16,1,,,,,
,,,,,,$5cf688097ca223000108ac23,2020-07-21_16h45.38.635,fisher_task,2020.1.3,Win32,60,-0.045555556,-0.258888889,1,0,0,3.245255,scale,,,,,,0.2468,0.2,0.302267034,0.244948974,stimuli/lakes/4070101_left.png,stimuli/lakes/4070101_right.png,,,space,0,88,88,101,1,3.83754,,,,
,,,,,,$5cf688097ca223000108ac23,2020-07-21_16h45.38.635,fisher_task,2020.1.3,Win32,60,0.134444444,-0.342222222,1,0,0,1.84781,scale,,,,,,0.1234,0.1,0.3702,0.3,stimuli/lakes/104050_left.png,stimuli/lakes/104050_right.png,,,,0,89,89,50,1,,,,,
,,,,,,$5cf688097ca223000108ac23,2020-07-21_16h45.38.635,fisher_task,2020.1.3,Win32,60,-0.05,-0.246666667,1,0,0,2.146855,scale,,,,,,0.174513954,0.141421356,0.349027907,0.282842712,stimuli/lakes/207099_left.png,stimuli/lakes/207099_right.png,,,,0,90,90,99,1,,,,,
,,,,,,$5cf688097ca223000108ac23,2020-07-21_16h45.38.635,fisher_task,2020.1.3,Win32,60,0.153333333,-0.351111111,1,0,0,1.381975,scale,,,,,,0.1234,0.1,0.3702,0.3,stimuli/lakes/104041_left.png,stimuli/lakes/104041_right.png,,,,0,91,91,41,1,,,,,
,,,,,,$5cf688097ca223000108ac23,2020-07-21_16h45.38.635,fisher_task,2020.1.3,Win32,60,-0.15,-0.367777778,1,0,0,2.295705,scale,,,,,,0.3702,0.3,0.1234,0.1,stimuli/lakes/906088_left.png,stimuli/lakes/906088_right.png,,,,0,92,92,88,1,,,,,
,,,,,,$5cf688097ca223000108ac23,2020-07-21_16h45.38.635,fisher_task,2020.1.3,Win32,60,0.143333333,-0.363333333,1,0,0,1.49874,scale,,,,,,0.174513954,0.141421356,0.349027907,0.282842712,stimuli/lakes/203033_left.png,stimuli/lakes/203033_right.png,,,,0,93,93,33,1,,,,,
,,,,,,$5cf688097ca223000108ac23,2020-07-21_16h45.38.635,fisher_task,2020.1.3,Win32,60,0.105555556,-0.294444444,1,0,0,1.780775,scale,,,,,,0.21373507,0.173205081,0.326485712,0.264575131,stimuli/lakes/305061_left.png,stimuli/lakes/305061_right.png,,,,0,94,94,61,1,,,,,
,,,,,,$5cf688097ca223000108ac23,2020-07-21_16h45.38.635,fisher_task,2020.1.3,Win32,60,-0.015555556,-0.257777778,1,0,0,2.39769,scale,,,,,,0.21373507,0.173205081,0.326485712,0.264575131,stimuli/lakes/306082_left.png,stimuli/lakes/306082_right.png,,,,0,95,95,82,1,,,,,
,,,,,,$5cf688097ca223000108ac23,2020-07-21_16h45.38.635,fisher_task,2020.1.3,Win32,60,-0.054444444,-0.272222222,1,0,0,1.663645,scale,,,,,,0.1234,0.1,0.3702,0.3,stimuli/lakes/106071_left.png,stimuli/lakes/106071_right.png,,,,0,96,96,71,1,,,,,
,,,,,,$5cf688097ca223000108ac23,2020-07-21_16h45.38.635,fisher_task,2020.1.3,Win32,60,-0.13,-0.405555556,1,0,0,1.247795,scale,,,,,,0.349027907,0.282842712,0.174513954,0.141421356,stimuli/lakes/8080118_left.png,stimuli/lakes/8080118_right.png,,,,0,97,97,118,1,,,,,
,,,,,,$5cf688097ca223000108ac23,2020-07-21_16h45.38.635,fisher_task,2020.1.3,Win32,60,-0.142222222,-0.371111111,1,0,0,2.12888,scale,,,,,,0.302267034,0.244948974,0.2468,0.2,stimuli/lakes/607094_left.png,stimuli/lakes/607094_right.png,,,,0,98,98,94,1,,,,,
,,,,,,$5cf688097ca223000108ac23,2020-07-21_16h45.38.635,fisher_task,2020.1.3,Win32,60,0.052222222,-0.266666667,1,0,0,1.714475,scale,,,,,,0.326485712,0.264575131,0.21373507,0.173205081,stimuli/lakes/702019_left.png,stimuli/lakes/702019_right.png,,,,0,99,99,19,1,,,,,
,,,,,,$5cf688097ca223000108ac23,2020-07-21_16h45.38.635,fisher_task,2020.1.3,Win32,60,-0.004444444,-0.244444444,1,0,0,2.264,scale,,,,,,0.2468,0.2,0.302267034,0.244948974,stimuli/lakes/406083_left.png,stimuli/lakes/406083_right.png,,,,0,100,100,83,1,,,,,
,,,,,,$5cf688097ca223000108ac23,2020-07-21_16h45.38.635,fisher_task,2020.1.3,Win32,60,-0.165555556,-0.408888889,1,0,0,1.747,scale,,,,,,0.3702,0.3,0.1234,0.1,stimuli/lakes/906079_left.png,stimuli/lakes/906079_right.png,,,,0,101,101,79,1,,,,,
,,,,,,$5cf688097ca223000108ac23,2020-07-21_16h45.38.635,fisher_task,2020.1.3,Win32,60,-0.128888889,-0.424444444,1,0,0,1.764505,scale,,,,,,0.302267034,0.244948974,0.2468,0.2,stimuli/lakes/6080114_left.png,stimuli/lakes/6080114_right.png,,,,0,102,102,114,1,,,,,
,,,,,,$5cf688097ca223000108ac23,2020-07-21_16h45.38.635,fisher_task,2020.1.3,Win32,60,-0.141111111,-0.313333333,1,0,0,2.2642,scale,,,,,,0.302267034,0.244948974,0.2468,0.2,stimuli/lakes/6080115_left.png,stimuli/lakes/6080115_right.png,,,,0,103,103,115,1,,,,,
,,,,,,$5cf688097ca223000108ac23,2020-07-21_16h45.38.635,fisher_task,2020.1.3,Win32,60,-0.134444444,-0.425555556,1,0,0,1.563665,scale,,,,,,0.326485712,0.264575131,0.21373507,0.173205081,stimuli/lakes/7080116_left.png,stimuli/lakes/7080116_right.png,,,,0,104,104,116,1,,,,,
,,,,,,$5cf688097ca223000108ac23,2020-07-21_16h45.38.635,fisher_task,2020.1.3,Win32,60,0.155555556,-0.408888889,1,0,0,1.69676,scale,,,,,,0.174513954,0.141421356,0.349027907,0.282842712,stimuli/lakes/204051_left.png,stimuli/lakes/204051_right.png,,,,0,105,105,51,1,,,,,
,,,,,,$5cf688097ca223000108ac23,2020-07-21_16h45.38.635,fisher_task,2020.1.3,Win32,60,0.008888889,-0.248888889,1,0,0,3.895195,scale,,,,,,0.21373507,0.173205081,0.326485712,0.264575131,stimuli/lakes/306073_left.png,stimuli/lakes/306073_right.png,,,,0,106,106,73,1,,,,,
,,,,,,$5cf688097ca223000108ac23,2020-07-21_16h45.38.635,fisher_task,2020.1.3,Win32,60,0.112222222,-0.318888889,1,0,0,1.397375,scale,,,,,,0.275930788,0.223606798,0.275930788,0.223606798,stimuli/lakes/503027_left.png,stimuli/lakes/503027_right.png,,,,0,107,107,27,1,,,,,
,,,,,,$5cf688097ca223000108ac23,2020-07-21_16h45.38.635,fisher_task,2020.1.3,Win32,60,-0.097777778,-0.273333333,1,0,0,1.880945,scale,,,,,,0.2468,0.2,0.302267034,0.244948974,stimuli/lakes/4090123_left.png,stimuli/lakes/4090123_right.png,,,,0,108,108,123,1,,,,,
,,,,,,$5cf688097ca223000108ac23,2020-07-21_16h45.38.635,fisher_task,2020.1.3,Win32,60,-0.002222222,-0.254444444,1,0,0,1.64824,scale,,,,,,0.302267034,0.244948974,0.2468,0.2,stimuli/lakes/604046_left.png,stimuli/lakes/604046_right.png,,,,0,109,109,46,1,,,,,
,,,,,,$5cf688097ca223000108ac23,2020-07-21_16h45.38.635,fisher_task,2020.1.3,Win32,60,-0.003333333,-0.257777778,1,0,0,1.530455,scale,,,,,,0.2468,0.2,0.302267034,0.244948974,stimuli/lakes/4090124_left.png,stimuli/lakes/4090124_right.png,,,space,0,110,110,124,1,4.15616,,,,
,,,,,,$5cf688097ca223000108ac23,2020-07-21_16h45.38.635,fisher_task,2020.1.3,Win32,60,-0.164444444,-0.405555556,1,0,0,1.481325,scale,,,,,,0.326485712,0.264575131,0.21373507,0.173205081,stimuli/lakes/7070104_left.png,stimuli/lakes/7070104_right.png,,,,0,111,111,104,1,,,,,
,,,,,,$5cf688097ca223000108ac23,2020-07-21_16h45.38.635,fisher_task,2020.1.3,Win32,60,-0.027777778,-0.246666667,1,0,0,3.27934,scale,,,,,,0.2468,0.2,0.302267034,0.244948974,stimuli/lakes/405063_left.png,stimuli/lakes/405063_right.png,,,,0,112,112,63,1,,,,,
,,,,,,$5cf688097ca223000108ac23,2020-07-21_16h45.38.635,fisher_task,2020.1.3,Win32,60,0.17,-0.432222222,1,0,0,1.431625,scale,,,,,,0.1234,0.1,0.3702,0.3,stimuli/lakes/103032_left.png,stimuli/lakes/103032_right.png,,,,0,113,113,32,1,,,,,
,,,,,,$5cf688097ca223000108ac23,2020-07-21_16h45.38.635,fisher_task,2020.1.3,Win32,60,0.033333333,-0.273333333,1,0,0,3.028915,scale,,,,,,0.302267034,0.244948974,0.2468,0.2,stimuli/lakes/602017_left.png,stimuli/lakes/602017_right.png,,,,0,114,114,17,1,,,,,
,,,,,,$5cf688097ca223000108ac23,2020-07-21_16h45.38.635,fisher_task,2020.1.3,Win32,60,-0.055555556,-0.264444444,1,0,0,1.647995,scale,,,,,,0.302267034,0.244948974,0.2468,0.2,stimuli/lakes/605066_left.png,stimuli/lakes/605066_right.png,,,,0,115,115,66,1,,,,,
,,,,,,$5cf688097ca223000108ac23,2020-07-21_16h45.38.635,fisher_task,2020.1.3,Win32,60,0.135555556,-0.361111111,1,0,0,1.298065,scale,,,,,,0.275930788,0.223606798,0.275930788,0.223606798,stimuli/lakes/503036_left.png,stimuli/lakes/503036_right.png,,,,0,116,116,36,1,,,,,
,,,,,,$5cf688097ca223000108ac23,2020-07-21_16h45.38.635,fisher_task,2020.1.3,Win32,60,0.064444444,-0.252222222,1,0,0,1.96356,scale,,,,,,0.302267034,0.244948974,0.2468,0.2,stimuli/lakes/603028_left.png,stimuli/lakes/603028_right.png,,,,0,117,117,28,1,,,,,
,,,,,,$5cf688097ca223000108ac23,2020-07-21_16h45.38.635,fisher_task,2020.1.3,Win32,60,-0.095555556,-0.27,1,0,0,1.69789,scale,,,,,,0.174513954,0.141421356,0.349027907,0.282842712,stimuli/lakes/2090120_left.png,stimuli/lakes/2090120_right.png,,,,0,118,118,120,1,,,,,
,,,,,,$5cf688097ca223000108ac23,2020-07-21_16h45.38.635,fisher_task,2020.1.3,Win32,60,0.154444444,-0.397777778,1,0,0,2.03089,scale,,,,,,0.2468,0.2,0.302267034,0.244948974,stimuli/lakes/402014_left.png,stimuli/lakes/402014_right.png,,,,0,119,119,14,1,,,,,
,,,,,,$5cf688097ca223000108ac23,2020-07-21_16h45.38.635,fisher_task,2020.1.3,Win32,60,-0.065555556,-0.254444444,1,0,0,3.162295,scale,,,,,,0.1234,0.1,0.3702,0.3,stimuli/lakes/107089_left.png,stimuli/lakes/107089_right.png,,,,0,120,120,89,1,,,,,
,,,,,,$5cf688097ca223000108ac23,2020-07-21_16h45.38.635,fisher_task,2020.1.3,Win32,60,0.136666667,-0.393333333,1,0,0,1.382205,scale,,,,,,0.2468,0.2,0.302267034,0.244948974,stimuli/lakes/40102_left.png,stimuli/lakes/40102_right.png,,,,0,121,121,2,1,,,,,
,,,,,,$5cf688097ca223000108ac23,2020-07-21_16h45.38.635,fisher_task,2020.1.3,Win32,60,0.138888889,-0.384444444,1,0,0,1.54725,scale,,,,,,0.275930788,0.223606798,0.275930788,0.223606798,stimuli/lakes/50104_left.png,stimuli/lakes/50104_right.png,,,,0,122,122,4,1,,,,,
,,,,,,$5cf688097ca223000108ac23,2020-07-21_16h45.38.635,fisher_task,2020.1.3,Win32,60,-0.091111111,-0.271111111,1,0,0,2.163525,scale,,,,,,0.326485712,0.264575131,0.21373507,0.173205081,stimuli/lakes/705068_left.png,stimuli/lakes/705068_right.png,,,,0,123,123,68,1,,,,,
,,,,,,$5cf688097ca223000108ac23,2020-07-21_16h45.38.635,fisher_task,2020.1.3,Win32,60,-0.078888889,-0.284444444,1,0,0,1.96455,scale,,,,,,0.275930788,0.223606798,0.275930788,0.223606798,stimuli/lakes/506075_left.png,stimuli/lakes/506075_right.png,,,,0,124,124,75,1,,,,,
,,,,,,$5cf688097ca223000108ac23,2020-07-21_16h45.38.635,fisher_task,2020.1.3,Win32,60,-0.043333333,-0.258888889,1,0,0,2.29646,scale,,,,,,0.174513954,0.141421356,0.349027907,0.282842712,stimuli/lakes/207090_left.png,stimuli/lakes/207090_right.png,,,,0,125,125,90,1,,,,,
,,,,,,$5cf688097ca223000108ac23,2020-07-21_16h45.38.635,fisher_task,2020.1.3,Win32,60,-0.075555556,-0.257777778,1,0,0,1.415655,scale,,,,,,0.21373507,0.173205081,0.326485712,0.264575131,stimuli/lakes/3080110_left.png,stimuli/lakes/3080110_right.png,,,,0,126,126,110,1,,,,,
,,,,,,$5cf688097ca223000108ac23,2020-07-21_16h45.38.635,fisher_task,2020.1.3,Win32,60,-0.09,-0.277777778,1,0,0,1.680985,scale,,,,,,0.2468,0.2,0.302267034,0.244948974,stimuli/lakes/407092_left.png,stimuli/lakes/407092_right.png,,,,0,127,127,92,1,,,,,
,,,,,,$5cf688097ca223000108ac23,2020-07-21_16h45.38.635,fisher_task,2020.1.3,Win32,60,-0.011111111,-0.242222222,1,0,0,1.91428,scale,,,,,,0.349027907,0.282842712,0.174513954,0.141421356,stimuli/lakes/804048_left.png,stimuli/lakes/804048_right.png,,,,0,128,128,48,1,,,,,
,,,,,,$5cf688097ca223000108ac23,2020-07-21_16h45.38.635,fisher_task,2020.1.3,Win32,60,0.15,-0.353333333,1,0,0,1.81512,scale,,,,,,0.21373507,0.173205081,0.326485712,0.264575131,stimuli/lakes/304052_left.png,stimuli/lakes/304052_right.png,,,,0,129,129,52,1,,,,,
,,,,,,$5cf688097ca223000108ac23,2020-07-21_16h45.38.635,fisher_task,2020.1.3,Win32,60,,,,,,,,,,,,,,,,,,,,,,,,,,,,space,7.158125,space,24.96139
