keySpace.keys,instructions.thisRepN,instructions.thisTrialN,instructions.thisN,instructions.thisIndex,instructions.ran,participant,date,expName,psychopyVersion,OS,frameRate,mouse.x,mouse.y,mouse.leftButton,mouse.midButton,mouse.rightButton,mouse.time,mouse.clicked_name,training.thisRepN,training.thisTrialN,training.thisN,training.thisIndex,training.ran,widthBasketLeft,heightBasketLeft,widthBasketRight,heightBasketRight,leftLake,rightLake,space2.keys,space2.rt,space1.keys,trials.thisRepN,trials.thisTrialN,trials.thisN,trials.thisIndex,trials.ran,space1.rt,finalSpace1.keys,finalSpace1.rt,finalSpace2.keys,finalSpace2.rt
,0,0,0,0,1,$5cd0b82bae977b00015d30eb,2020-07-21_15h48.39.787,fisher_task,2020.1.3,Win32,60,,,,,,,,,,,,,,,,,,,,,,,,,,,,,,,
,,,,,,$5cd0b82bae977b00015d30eb,2020-07-21_15h48.39.787,fisher_task,2020.1.3,Win32,60,0.15234375,-0.37890625,1,0,0,5.0838,scale,0,0,0,0,1,0.275930788,0.223606798,0.275930788,0.223606798,stimuli/training/20_left.png,stimuli/training/20_right.png,,,,,,,,,,,,,
,,,,,,$5cd0b82bae977b00015d30eb,2020-07-21_15h48.39.787,fisher_task,2020.1.3,Win32,60,-0.16015625,-0.3515625,1,0,0,5.44918,scale,0,1,1,1,1,0.275930788,0.223606798,0.275930788,0.223606798,stimuli/training/80_left.png,stimuli/training/80_right.png,,,,,,,,,,,,,
,,,,,,$5cd0b82bae977b00015d30eb,2020-07-21_15h48.39.787,fisher_task,2020.1.3,Win32,60,0.1640625,-0.372395833,1,0,0,2.299425,scale,0,2,2,2,1,0.174513954,0.141421356,0.349027907,0.282842712,stimuli/training/50_left.png,stimuli/training/50_right.png,,,,,,,,,,,,,
,,,,,,$5cd0b82bae977b00015d30eb,2020-07-21_15h48.39.787,fisher_task,2020.1.3,Win32,60,-0.057291667,-0.28515625,1,0,0,6.865545,scale,0,3,3,3,1,0.349027907,0.282842712,0.174513954,0.141421356,stimuli/training/50_left.png,stimuli/training/50_right.png,,,,,,,,,,,,,
,,,,,,$5cd0b82bae977b00015d30eb,2020-07-21_15h48.39.787,fisher_task,2020.1.3,Win32,60,0.069010417,-0.278645833,1,0,0,5.966325,scale,0,4,4,4,1,0.275930788,0.223606798,0.275930788,0.223606798,stimuli/training/50_left.png,stimuli/training/50_right.png,,,,,,,,,,,,,
,,,,,,$5cd0b82bae977b00015d30eb,2020-07-21_15h48.39.787,fisher_task,2020.1.3,Win32,60,0.1796875,-0.40625,1,0,0,3.799505,scale,0,5,5,5,1,0.174513954,0.141421356,0.349027907,0.282842712,stimuli/training/20_left.png,stimuli/training/20_right.png,,,,,,,,,,,,,
,,,,,,$5cd0b82bae977b00015d30eb,2020-07-21_15h48.39.787,fisher_task,2020.1.3,Win32,60,-0.16015625,-0.407552083,1,0,0,1.94909,scale,0,6,6,6,1,0.349027907,0.282842712,0.174513954,0.141421356,stimuli/training/80_left.png,stimuli/training/80_right.png,,,,,,,,,,,,,
,,,,,,$5cd0b82bae977b00015d30eb,2020-07-21_15h48.39.787,fisher_task,2020.1.3,Win32,60,0.174479167,-0.391927083,1,0,0,3.64822,scale,0,7,7,7,1,0.1234,0.1,0.3702,0.3,stimuli/training/30_left.png,stimuli/training/30_right.png,,,,,,,,,,,,,
,,,,,,$5cd0b82bae977b00015d30eb,2020-07-21_15h48.39.787,fisher_task,2020.1.3,Win32,60,-0.15625,-0.384114583,1,0,0,1.216365,scale,0,8,8,8,1,0.3702,0.3,0.1234,0.1,stimuli/training/70_left.png,stimuli/training/70_right.png,,,,,,,,,,,,,
,,,,,,$5cd0b82bae977b00015d30eb,2020-07-21_15h48.39.787,fisher_task,2020.1.3,Win32,60,-0.1640625,-0.41015625,1,0,0,3.616145,scale,0,9,9,9,1,0.326485712,0.264575131,0.21373507,0.173205081,stimuli/training/90_left.png,stimuli/training/90_right.png,,,,,,,,,,,,,
,,,,,,$5cd0b82bae977b00015d30eb,2020-07-21_15h48.39.787,fisher_task,2020.1.3,Win32,60,0.16015625,-0.430989583,1,0,0,1.58333,scale,0,10,10,10,1,0.21373507,0.173205081,0.326485712,0.264575131,stimuli/training/10_left.png,stimuli/training/10_right.png,,,,,,,,,,,,,
,,,,,,$5cd0b82bae977b00015d30eb,2020-07-21_15h48.39.787,fisher_task,2020.1.3,Win32,60,0.079427083,-0.270833333,1,0,0,13.132315,scale,,,,,,0.349027907,0.282842712,0.174513954,0.141421356,stimuli/lakes/803039_left.png,stimuli/lakes/803039_right.png,space,4.964295,,0,0,0,39,1,,,,,
,,,,,,$5cd0b82bae977b00015d30eb,2020-07-21_15h48.39.787,fisher_task,2020.1.3,Win32,60,-0.084635417,-0.28125,1,0,0,6.115965,scale,,,,,,0.3702,0.3,0.1234,0.1,stimuli/lakes/905070_left.png,stimuli/lakes/905070_right.png,,,,0,1,1,70,1,,,,,
,,,,,,$5cd0b82bae977b00015d30eb,2020-07-21_15h48.39.787,fisher_task,2020.1.3,Win32,60,-0.009114583,-0.268229167,1,0,0,4.849565,scale,,,,,,0.302267034,0.244948974,0.2468,0.2,stimuli/lakes/605066_left.png,stimuli/lakes/605066_right.png,,,,0,2,2,66,1,,,,,
,,,,,,$5cd0b82bae977b00015d30eb,2020-07-21_15h48.39.787,fisher_task,2020.1.3,Win32,60,-0.05859375,-0.272135417,1,0,0,4.016405,scale,,,,,,0.3702,0.3,0.1234,0.1,stimuli/lakes/904049_left.png,stimuli/lakes/904049_right.png,,,,0,3,3,49,1,,,,,
,,,,,,$5cd0b82bae977b00015d30eb,2020-07-21_15h48.39.787,fisher_task,2020.1.3,Win32,60,0.139322917,-0.341145833,1,0,0,2.865275,scale,,,,,,0.174513954,0.141421356,0.349027907,0.282842712,stimuli/lakes/204042_left.png,stimuli/lakes/204042_right.png,,,,0,4,4,42,1,,,,,
,,,,,,$5cd0b82bae977b00015d30eb,2020-07-21_15h48.39.787,fisher_task,2020.1.3,Win32,60,-0.069010417,-0.282552083,1,0,0,9.348775,scale,,,,,,0.349027907,0.282842712,0.174513954,0.141421356,stimuli/lakes/804057_left.png,stimuli/lakes/804057_right.png,,,,0,5,5,57,1,,,,,
,,,,,,$5cd0b82bae977b00015d30eb,2020-07-21_15h48.39.787,fisher_task,2020.1.3,Win32,60,-0.114583333,-0.283854167,1,0,0,3.915965,scale,,,,,,0.326485712,0.264575131,0.21373507,0.173205081,stimuli/lakes/705067_left.png,stimuli/lakes/705067_right.png,,,,0,6,6,67,1,,,,,
,,,,,,$5cd0b82bae977b00015d30eb,2020-07-21_15h48.39.787,fisher_task,2020.1.3,Win32,60,0.140625,-0.3359375,1,0,0,1.30005,scale,,,,,,0.174513954,0.141421356,0.349027907,0.282842712,stimuli/lakes/203033_left.png,stimuli/lakes/203033_right.png,,,,0,7,7,33,1,,,,,
,,,,,,$5cd0b82bae977b00015d30eb,2020-07-21_15h48.39.787,fisher_task,2020.1.3,Win32,60,0.016927083,-0.2578125,1,0,0,5.63277,scale,,,,,,0.326485712,0.264575131,0.21373507,0.173205081,stimuli/lakes/70107_left.png,stimuli/lakes/70107_right.png,,,,0,8,8,7,1,,,,,
,,,,,,$5cd0b82bae977b00015d30eb,2020-07-21_15h48.39.787,fisher_task,2020.1.3,Win32,60,-0.022135417,-0.272135417,1,0,0,1.51622,scale,,,,,,0.349027907,0.282842712,0.174513954,0.141421356,stimuli/lakes/803030_left.png,stimuli/lakes/803030_right.png,,,,0,9,9,30,1,,,,,
,,,,,,$5cd0b82bae977b00015d30eb,2020-07-21_15h48.39.787,fisher_task,2020.1.3,Win32,60,-0.1640625,-0.37109375,1,0,0,1.915675,scale,,,,,,0.326485712,0.264575131,0.21373507,0.173205081,stimuli/lakes/7090129_left.png,stimuli/lakes/7090129_right.png,,,,0,10,10,129,1,,,,,
,,,,,,$5cd0b82bae977b00015d30eb,2020-07-21_15h48.39.787,fisher_task,2020.1.3,Win32,60,-0.0546875,-0.2578125,1,0,0,4.66646,scale,,,,,,0.302267034,0.244948974,0.2468,0.2,stimuli/lakes/603037_left.png,stimuli/lakes/603037_right.png,,,,0,11,11,37,1,,,,,
,,,,,,$5cd0b82bae977b00015d30eb,2020-07-21_15h48.39.787,fisher_task,2020.1.3,Win32,60,0.075520833,-0.2421875,1,0,0,1.99891,scale,,,,,,0.21373507,0.173205081,0.326485712,0.264575131,stimuli/lakes/307091_left.png,stimuli/lakes/307091_right.png,,,,0,12,12,91,1,,,,,
,,,,,,$5cd0b82bae977b00015d30eb,2020-07-21_15h48.39.787,fisher_task,2020.1.3,Win32,60,-0.12109375,-0.309895833,1,0,0,4.816215,scale,,,,,,0.302267034,0.244948974,0.2468,0.2,stimuli/lakes/6080114_left.png,stimuli/lakes/6080114_right.png,,,,0,13,13,114,1,,,,,
,,,,,,$5cd0b82bae977b00015d30eb,2020-07-21_15h48.39.787,fisher_task,2020.1.3,Win32,60,0.08203125,-0.243489583,1,0,0,3.098845,scale,,,,,,0.21373507,0.173205081,0.326485712,0.264575131,stimuli/lakes/306073_left.png,stimuli/lakes/306073_right.png,,,,0,14,14,73,1,,,,,
,,,,,,$5cd0b82bae977b00015d30eb,2020-07-21_15h48.39.787,fisher_task,2020.1.3,Win32,60,-0.00390625,-0.243489583,1,0,0,1.33267,scale,,,,,,0.3702,0.3,0.1234,0.1,stimuli/lakes/901010_left.png,stimuli/lakes/901010_right.png,,,,0,15,15,10,1,,,,,
,,,,,,$5cd0b82bae977b00015d30eb,2020-07-21_15h48.39.787,fisher_task,2020.1.3,Win32,60,-0.006510417,-0.243489583,1,0,0,1.04939,scale,,,,,,0.2468,0.2,0.302267034,0.244948974,stimuli/lakes/405064_left.png,stimuli/lakes/405064_right.png,,,,0,16,16,64,1,,,,,
,,,,,,$5cd0b82bae977b00015d30eb,2020-07-21_15h48.39.787,fisher_task,2020.1.3,Win32,60,0.161458333,-0.407552083,1,0,0,1.166085,scale,,,,,,0.1234,0.1,0.3702,0.3,stimuli/lakes/103023_left.png,stimuli/lakes/103023_right.png,,,,0,17,17,23,1,,,,,
,,,,,,$5cd0b82bae977b00015d30eb,2020-07-21_15h48.39.787,fisher_task,2020.1.3,Win32,60,-0.09375,-0.278645833,1,0,0,1.932285,scale,,,,,,0.275930788,0.223606798,0.275930788,0.223606798,stimuli/lakes/506084_left.png,stimuli/lakes/506084_right.png,,,,0,18,18,84,1,,,,,
,,,,,,$5cd0b82bae977b00015d30eb,2020-07-21_15h48.39.787,fisher_task,2020.1.3,Win32,60,0.157552083,-0.309895833,1,0,0,1.33318,scale,,,,,,0.275930788,0.223606798,0.275930788,0.223606798,stimuli/lakes/503027_left.png,stimuli/lakes/503027_right.png,,,,0,19,19,27,1,,,,,
,,,,,,$5cd0b82bae977b00015d30eb,2020-07-21_15h48.39.787,fisher_task,2020.1.3,Win32,60,-0.049479167,-0.252604167,1,0,0,3.54829,scale,,,,,,0.3702,0.3,0.1234,0.1,stimuli/lakes/903040_left.png,stimuli/lakes/903040_right.png,,,,0,20,20,40,1,,,,,
,,,,,,$5cd0b82bae977b00015d30eb,2020-07-21_15h48.39.787,fisher_task,2020.1.3,Win32,60,-0.15625,-0.372395833,1,0,0,1.149515,scale,,,,,,0.302267034,0.244948974,0.2468,0.2,stimuli/lakes/6080115_left.png,stimuli/lakes/6080115_right.png,,,,0,21,21,115,1,,,,,
,,,,,,$5cd0b82bae977b00015d30eb,2020-07-21_15h48.39.787,fisher_task,2020.1.3,Win32,60,0.122395833,-0.305989583,1,0,0,1.3661,scale,,,,,,0.302267034,0.244948974,0.2468,0.2,stimuli/lakes/60105_left.png,stimuli/lakes/60105_right.png,,,space,0,22,22,5,1,3.727435,,,,
,,,,,,$5cd0b82bae977b00015d30eb,2020-07-21_15h48.39.787,fisher_task,2020.1.3,Win32,60,-0.015625,-0.263020833,1,0,0,1.383345,scale,,,,,,0.21373507,0.173205081,0.326485712,0.264575131,stimuli/lakes/3070100_left.png,stimuli/lakes/3070100_right.png,,,,0,23,23,100,1,,,,,
,,,,,,$5cd0b82bae977b00015d30eb,2020-07-21_15h48.39.787,fisher_task,2020.1.3,Win32,60,0.110677083,-0.334635417,1,0,0,0.48204,scale,,,,,,0.2468,0.2,0.302267034,0.244948974,stimuli/lakes/4080112_left.png,stimuli/lakes/4080112_right.png,,,,0,24,24,112,1,,,,,
,,,,,,$5cd0b82bae977b00015d30eb,2020-07-21_15h48.39.787,fisher_task,2020.1.3,Win32,60,-0.0859375,-0.274739583,1,0,0,3.015675,scale,,,,,,0.349027907,0.282842712,0.174513954,0.141421356,stimuli/lakes/804048_left.png,stimuli/lakes/804048_right.png,,,,0,25,25,48,1,,,,,
,,,,,,$5cd0b82bae977b00015d30eb,2020-07-21_15h48.39.787,fisher_task,2020.1.3,Win32,60,0.045572917,-0.25,1,0,0,0.932865,scale,,,,,,0.1234,0.1,0.3702,0.3,stimuli/lakes/107098_left.png,stimuli/lakes/107098_right.png,,,,0,26,26,98,1,,,,,
,,,,,,$5cd0b82bae977b00015d30eb,2020-07-21_15h48.39.787,fisher_task,2020.1.3,Win32,60,-0.016927083,-0.25390625,1,0,0,1.73331,scale,,,,,,0.1234,0.1,0.3702,0.3,stimuli/lakes/1090119_left.png,stimuli/lakes/1090119_right.png,,,,0,27,27,119,1,,,,,
,,,,,,$5cd0b82bae977b00015d30eb,2020-07-21_15h48.39.787,fisher_task,2020.1.3,Win32,60,-0.102864583,-0.309895833,1,0,0,2.083195,scale,,,,,,0.326485712,0.264575131,0.21373507,0.173205081,stimuli/lakes/704047_left.png,stimuli/lakes/704047_right.png,,,,0,28,28,47,1,,,,,
,,,,,,$5cd0b82bae977b00015d30eb,2020-07-21_15h48.39.787,fisher_task,2020.1.3,Win32,60,0.0859375,-0.25390625,1,0,0,1.38454,scale,,,,,,0.1234,0.1,0.3702,0.3,stimuli/lakes/107089_left.png,stimuli/lakes/107089_right.png,,,,0,29,29,89,1,,,,,
,,,,,,$5cd0b82bae977b00015d30eb,2020-07-21_15h48.39.787,fisher_task,2020.1.3,Win32,60,-0.171875,-0.376302083,1,0,0,2.93233,scale,,,,,,0.326485712,0.264575131,0.21373507,0.173205081,stimuli/lakes/7080116_left.png,stimuli/lakes/7080116_right.png,,,,0,30,30,116,1,,,,,
,,,,,,$5cd0b82bae977b00015d30eb,2020-07-21_15h48.39.787,fisher_task,2020.1.3,Win32,60,0.158854167,-0.311197917,1,0,0,1.21549,scale,,,,,,0.2468,0.2,0.302267034,0.244948974,stimuli/lakes/40102_left.png,stimuli/lakes/40102_right.png,,,,0,31,31,2,1,,,,,
,,,,,,$5cd0b82bae977b00015d30eb,2020-07-21_15h48.39.787,fisher_task,2020.1.3,Win32,60,-0.06640625,-0.255208333,1,0,0,4.28252,scale,,,,,,0.326485712,0.264575131,0.21373507,0.173205081,stimuli/lakes/702019_left.png,stimuli/lakes/702019_right.png,,,,0,32,32,19,1,,,,,
,,,,,,$5cd0b82bae977b00015d30eb,2020-07-21_15h48.39.787,fisher_task,2020.1.3,Win32,60,0.109375,-0.272135417,1,0,0,3.482615,scale,,,,,,0.21373507,0.173205081,0.326485712,0.264575131,stimuli/lakes/305062_left.png,stimuli/lakes/305062_right.png,,,,0,33,33,62,1,,,,,
,,,,,,$5cd0b82bae977b00015d30eb,2020-07-21_15h48.39.787,fisher_task,2020.1.3,Win32,60,-0.006510417,-0.265625,1,0,0,10.74921,scale,,,,,,0.326485712,0.264575131,0.21373507,0.173205081,stimuli/lakes/704056_left.png,stimuli/lakes/704056_right.png,,,,0,34,34,56,1,,,,,
,,,,,,$5cd0b82bae977b00015d30eb,2020-07-21_15h48.39.787,fisher_task,2020.1.3,Win32,60,-0.1484375,-0.346354167,1,0,0,1.26583,scale,,,,,,0.349027907,0.282842712,0.174513954,0.141421356,stimuli/lakes/806078_left.png,stimuli/lakes/806078_right.png,,,,0,35,35,78,1,,,,,
,,,,,,$5cd0b82bae977b00015d30eb,2020-07-21_15h48.39.787,fisher_task,2020.1.3,Win32,60,-0.110677083,-0.291666667,1,0,0,1.832765,scale,,,,,,0.302267034,0.244948974,0.2468,0.2,stimuli/lakes/605065_left.png,stimuli/lakes/605065_right.png,,,,0,36,36,65,1,,,,,
,,,,,,$5cd0b82bae977b00015d30eb,2020-07-21_15h48.39.787,fisher_task,2020.1.3,Win32,60,-0.141927083,-0.341145833,1,0,0,0.915945,scale,,,,,,0.326485712,0.264575131,0.21373507,0.173205081,stimuli/lakes/706086_left.png,stimuli/lakes/706086_right.png,,,,0,37,37,86,1,,,,,
,,,,,,$5cd0b82bae977b00015d30eb,2020-07-21_15h48.39.787,fisher_task,2020.1.3,Win32,60,0.032552083,-0.276041667,1,0,0,3.165805,scale,,,,,,0.275930788,0.223606798,0.275930788,0.223606798,stimuli/lakes/504054_left.png,stimuli/lakes/504054_right.png,,,,0,38,38,54,1,,,,,
,,,,,,$5cd0b82bae977b00015d30eb,2020-07-21_15h48.39.787,fisher_task,2020.1.3,Win32,60,0.173177083,-0.364583333,1,0,0,1.36615,scale,,,,,,0.1234,0.1,0.3702,0.3,stimuli/lakes/104041_left.png,stimuli/lakes/104041_right.png,,,,0,39,39,41,1,,,,,
,,,,,,$5cd0b82bae977b00015d30eb,2020-07-21_15h48.39.787,fisher_task,2020.1.3,Win32,60,0.173177083,-0.364583333,1,0,0,0.465335,scale,,,,,,0.174513954,0.141421356,0.349027907,0.282842712,stimuli/lakes/202011_left.png,stimuli/lakes/202011_right.png,,,,0,40,40,11,1,,,,,
,,,,,,$5cd0b82bae977b00015d30eb,2020-07-21_15h48.39.787,fisher_task,2020.1.3,Win32,60,0.053385417,-0.25,1,0,0,2.332725,scale,,,,,,0.2468,0.2,0.302267034,0.244948974,stimuli/lakes/4090123_left.png,stimuli/lakes/4090123_right.png,,,,0,41,41,123,1,,,,,
,,,,,,$5cd0b82bae977b00015d30eb,2020-07-21_15h48.39.787,fisher_task,2020.1.3,Win32,60,0.118489583,-0.33984375,1,0,0,1.433315,scale,,,,,,0.21373507,0.173205081,0.326485712,0.264575131,stimuli/lakes/303025_left.png,stimuli/lakes/303025_right.png,,,,0,42,42,25,1,,,,,
,,,,,,$5cd0b82bae977b00015d30eb,2020-07-21_15h48.39.787,fisher_task,2020.1.3,Win32,60,0.119791667,-0.33984375,1,0,0,0.832305,scale,,,,,,0.1234,0.1,0.3702,0.3,stimuli/lakes/106080_left.png,stimuli/lakes/106080_right.png,,,,0,43,43,80,1,,,,,
,,,,,,$5cd0b82bae977b00015d30eb,2020-07-21_15h48.39.787,fisher_task,2020.1.3,Win32,60,-0.065104167,-0.305989583,1,0,0,1.467395,scale,,,,,,0.302267034,0.244948974,0.2468,0.2,stimuli/lakes/606085_left.png,stimuli/lakes/606085_right.png,,,space,0,44,44,85,1,734.492495,,,,
,,,,,,$5cd0b82bae977b00015d30eb,2020-07-21_15h48.39.787,fisher_task,2020.1.3,Win32,60,0.033854167,-0.260416667,1,0,0,1.24928,scale,,,,,,0.174513954,0.141421356,0.349027907,0.282842712,stimuli/lakes/206072_left.png,stimuli/lakes/206072_right.png,,,,0,45,45,72,1,,,,,
,,,,,,$5cd0b82bae977b00015d30eb,2020-07-21_15h48.39.787,fisher_task,2020.1.3,Win32,60,-0.00390625,-0.276041667,1,0,0,1.082895,scale,,,,,,0.2468,0.2,0.302267034,0.244948974,stimuli/lakes/406074_left.png,stimuli/lakes/406074_right.png,,,,0,46,46,74,1,,,,,
,,,,,,$5cd0b82bae977b00015d30eb,2020-07-21_15h48.39.787,fisher_task,2020.1.3,Win32,60,-0.12109375,-0.317708333,1,0,0,1.166415,scale,,,,,,0.326485712,0.264575131,0.21373507,0.173205081,stimuli/lakes/705068_left.png,stimuli/lakes/705068_right.png,,,,0,47,47,68,1,,,,,
,,,,,,$5cd0b82bae977b00015d30eb,2020-07-21_15h48.39.787,fisher_task,2020.1.3,Win32,60,-0.13671875,-0.330729167,1,0,0,1.249775,scale,,,,,,0.302267034,0.244948974,0.2468,0.2,stimuli/lakes/606076_left.png,stimuli/lakes/606076_right.png,,,,0,48,48,76,1,,,,,
,,,,,,$5cd0b82bae977b00015d30eb,2020-07-21_15h48.39.787,fisher_task,2020.1.3,Win32,60,-0.123697917,-0.408854167,1,0,0,0.90003,scale,,,,,,0.326485712,0.264575131,0.21373507,0.173205081,stimuli/lakes/7090128_left.png,stimuli/lakes/7090128_right.png,,,,0,49,49,128,1,,,,,
,,,,,,$5cd0b82bae977b00015d30eb,2020-07-21_15h48.39.787,fisher_task,2020.1.3,Win32,60,-0.15234375,-0.412760417,1,0,0,0.63284,scale,,,,,,0.3702,0.3,0.1234,0.1,stimuli/lakes/907097_left.png,stimuli/lakes/907097_right.png,,,,0,50,50,97,1,,,,,
,,,,,,$5cd0b82bae977b00015d30eb,2020-07-21_15h48.39.787,fisher_task,2020.1.3,Win32,60,-0.15234375,-0.412760417,1,0,0,0.466125,scale,,,,,,0.3702,0.3,0.1234,0.1,stimuli/lakes/906079_left.png,stimuli/lakes/906079_right.png,,,,0,51,51,79,1,,,,,
,,,,,,$5cd0b82bae977b00015d30eb,2020-07-21_15h48.39.787,fisher_task,2020.1.3,Win32,60,-0.157552083,-0.348958333,1,0,0,1.283135,scale,,,,,,0.3702,0.3,0.1234,0.1,stimuli/lakes/906088_left.png,stimuli/lakes/906088_right.png,,,,0,52,52,88,1,,,,,
,,,,,,$5cd0b82bae977b00015d30eb,2020-07-21_15h48.39.787,fisher_task,2020.1.3,Win32,60,-0.022135417,-0.26171875,1,0,0,1.249895,scale,,,,,,0.326485712,0.264575131,0.21373507,0.173205081,stimuli/lakes/70108_left.png,stimuli/lakes/70108_right.png,,,,0,53,53,8,1,,,,,
,,,,,,$5cd0b82bae977b00015d30eb,2020-07-21_15h48.39.787,fisher_task,2020.1.3,Win32,60,-0.1171875,-0.32421875,1,0,0,1.783,scale,,,,,,0.349027907,0.282842712,0.174513954,0.141421356,stimuli/lakes/8070105_left.png,stimuli/lakes/8070105_right.png,,,,0,54,54,105,1,,,,,
,,,,,,$5cd0b82bae977b00015d30eb,2020-07-21_15h48.39.787,fisher_task,2020.1.3,Win32,60,-0.139322917,-0.34765625,1,0,0,1.01624,scale,,,,,,0.302267034,0.244948974,0.2468,0.2,stimuli/lakes/6090127_left.png,stimuli/lakes/6090127_right.png,,,,0,55,55,127,1,,,,,
,,,,,,$5cd0b82bae977b00015d30eb,2020-07-21_15h48.39.787,fisher_task,2020.1.3,Win32,60,-0.088541667,-0.29296875,1,0,0,0.999755,scale,,,,,,0.3702,0.3,0.1234,0.1,stimuli/lakes/903031_left.png,stimuli/lakes/903031_right.png,,,,0,56,56,31,1,,,,,
,,,,,,$5cd0b82bae977b00015d30eb,2020-07-21_15h48.39.787,fisher_task,2020.1.3,Win32,60,0.161458333,-0.348958333,1,0,0,0.98314,scale,,,,,,0.275930788,0.223606798,0.275930788,0.223606798,stimuli/lakes/502016_left.png,stimuli/lakes/502016_right.png,,,,0,57,57,16,1,,,,,
,,,,,,$5cd0b82bae977b00015d30eb,2020-07-21_15h48.39.787,fisher_task,2020.1.3,Win32,60,-0.125,-0.298177083,1,0,0,1.599185,scale,,,,,,0.349027907,0.282842712,0.174513954,0.141421356,stimuli/lakes/805069_left.png,stimuli/lakes/805069_right.png,,,,0,58,58,69,1,,,,,
,,,,,,$5cd0b82bae977b00015d30eb,2020-07-21_15h48.39.787,fisher_task,2020.1.3,Win32,60,0.15234375,-0.373697917,1,0,0,1.03326,scale,,,,,,0.1234,0.1,0.3702,0.3,stimuli/lakes/103032_left.png,stimuli/lakes/103032_right.png,,,,0,59,59,32,1,,,,,
,,,,,,$5cd0b82bae977b00015d30eb,2020-07-21_15h48.39.787,fisher_task,2020.1.3,Win32,60,-0.143229167,-0.373697917,1,0,0,1.21613,scale,,,,,,0.275930788,0.223606798,0.275930788,0.223606798,stimuli/lakes/5090125_left.png,stimuli/lakes/5090125_right.png,,,,0,60,60,125,1,,,,,
,,,,,,$5cd0b82bae977b00015d30eb,2020-07-21_15h48.39.787,fisher_task,2020.1.3,Win32,60,0.095052083,-0.286458333,1,0,0,1.133315,scale,,,,,,0.174513954,0.141421356,0.349027907,0.282842712,stimuli/lakes/207090_left.png,stimuli/lakes/207090_right.png,,,,0,61,61,90,1,,,,,
,,,,,,$5cd0b82bae977b00015d30eb,2020-07-21_15h48.39.787,fisher_task,2020.1.3,Win32,60,0.0390625,-0.263020833,1,0,0,2.11606,scale,,,,,,0.21373507,0.173205081,0.326485712,0.264575131,stimuli/lakes/306082_left.png,stimuli/lakes/306082_right.png,,,,0,62,62,82,1,,,,,
,,,,,,$5cd0b82bae977b00015d30eb,2020-07-21_15h48.39.787,fisher_task,2020.1.3,Win32,60,-0.0078125,-0.263020833,1,0,0,0.883415,scale,,,,,,0.302267034,0.244948974,0.2468,0.2,stimuli/lakes/602018_left.png,stimuli/lakes/602018_right.png,,,,0,63,63,18,1,,,,,
,,,,,,$5cd0b82bae977b00015d30eb,2020-07-21_15h48.39.787,fisher_task,2020.1.3,Win32,60,0.013020833,-0.255208333,1,0,0,2.06681,scale,,,,,,0.349027907,0.282842712,0.174513954,0.141421356,stimuli/lakes/80109_left.png,stimuli/lakes/80109_right.png,,,,0,64,64,9,1,,,,,
,,,,,,$5cd0b82bae977b00015d30eb,2020-07-21_15h48.39.787,fisher_task,2020.1.3,Win32,60,-0.151041667,-0.37109375,1,0,0,0.84925,scale,,,,,,0.349027907,0.282842712,0.174513954,0.141421356,stimuli/lakes/8080118_left.png,stimuli/lakes/8080118_right.png,,,,0,65,65,118,1,,,,,
,,,,,,$5cd0b82bae977b00015d30eb,2020-07-21_15h48.39.787,fisher_task,2020.1.3,Win32,60,-0.161458333,-0.377604167,1,0,0,3.382705,scale,,,,,,0.302267034,0.244948974,0.2468,0.2,stimuli/lakes/6090126_left.png,stimuli/lakes/6090126_right.png,,,space,0,66,66,126,1,245.1174,,,,
,,,,,,$5cd0b82bae977b00015d30eb,2020-07-21_15h48.39.787,fisher_task,2020.1.3,Win32,60,0.1328125,-0.307291667,1,0,0,1.082675,scale,,,,,,0.275930788,0.223606798,0.275930788,0.223606798,stimuli/lakes/504045_left.png,stimuli/lakes/504045_right.png,,,,0,67,67,45,1,,,,,
,,,,,,$5cd0b82bae977b00015d30eb,2020-07-21_15h48.39.787,fisher_task,2020.1.3,Win32,60,0.153645833,-0.326822917,1,0,0,1.199825,scale,,,,,,0.2468,0.2,0.302267034,0.244948974,stimuli/lakes/403035_left.png,stimuli/lakes/403035_right.png,,,,0,68,68,35,1,,,,,
,,,,,,$5cd0b82bae977b00015d30eb,2020-07-21_15h48.39.787,fisher_task,2020.1.3,Win32,60,0.131510417,-0.307291667,1,0,0,0.916115,scale,,,,,,0.21373507,0.173205081,0.326485712,0.264575131,stimuli/lakes/304052_left.png,stimuli/lakes/304052_right.png,,,,0,69,69,52,1,,,,,
,,,,,,$5cd0b82bae977b00015d30eb,2020-07-21_15h48.39.787,fisher_task,2020.1.3,Win32,60,0.108072917,-0.286458333,1,0,0,0.999405,scale,,,,,,0.174513954,0.141421356,0.349027907,0.282842712,stimuli/lakes/205060_left.png,stimuli/lakes/205060_right.png,,,,0,70,70,60,1,,,,,
,,,,,,$5cd0b82bae977b00015d30eb,2020-07-21_15h48.39.787,fisher_task,2020.1.3,Win32,60,0.157552083,-0.373697917,1,0,0,0.98386,scale,,,,,,0.21373507,0.173205081,0.326485712,0.264575131,stimuli/lakes/30100_left.png,stimuli/lakes/30100_right.png,,,,0,71,71,0,1,,,,,
,,,,,,$5cd0b82bae977b00015d30eb,2020-07-21_15h48.39.787,fisher_task,2020.1.3,Win32,60,0.01171875,-0.26953125,1,0,0,1.21535,scale,,,,,,0.302267034,0.244948974,0.2468,0.2,stimuli/lakes/603028_left.png,stimuli/lakes/603028_right.png,,,,0,72,72,28,1,,,,,
,,,,,,$5cd0b82bae977b00015d30eb,2020-07-21_15h48.39.787,fisher_task,2020.1.3,Win32,60,0.170572917,-0.322916667,1,0,0,0.88214,scale,,,,,,0.174513954,0.141421356,0.349027907,0.282842712,stimuli/lakes/204051_left.png,stimuli/lakes/204051_right.png,,,,0,73,73,51,1,,,,,
,,,,,,$5cd0b82bae977b00015d30eb,2020-07-21_15h48.39.787,fisher_task,2020.1.3,Win32,60,0,-0.43359375,1,0,0,1.416445,scale,,,,,,0.2468,0.2,0.302267034,0.244948974,stimuli/lakes/406083_left.png,stimuli/lakes/406083_right.png,,,,0,74,74,83,1,,,,,
,,,,,,$5cd0b82bae977b00015d30eb,2020-07-21_15h48.39.787,fisher_task,2020.1.3,Win32,60,-0.140625,-0.384114583,1,0,0,1.8489,scale,,,,,,0.302267034,0.244948974,0.2468,0.2,stimuli/lakes/607094_left.png,stimuli/lakes/607094_right.png,,,,0,75,75,94,1,,,,,
,,,,,,$5cd0b82bae977b00015d30eb,2020-07-21_15h48.39.787,fisher_task,2020.1.3,Win32,60,0.14453125,-0.342447917,1,0,0,0.98272,scale,,,,,,0.174513954,0.141421356,0.349027907,0.282842712,stimuli/lakes/203024_left.png,stimuli/lakes/203024_right.png,,,,0,76,76,24,1,,,,,
,,,,,,$5cd0b82bae977b00015d30eb,2020-07-21_15h48.39.787,fisher_task,2020.1.3,Win32,60,-0.057291667,-0.25,1,0,0,0.96604,scale,,,,,,0.326485712,0.264575131,0.21373507,0.173205081,stimuli/lakes/703038_left.png,stimuli/lakes/703038_right.png,,,,0,77,77,38,1,,,,,
,,,,,,$5cd0b82bae977b00015d30eb,2020-07-21_15h48.39.787,fisher_task,2020.1.3,Win32,60,0.162760417,-0.373697917,1,0,0,0.799445,scale,,,,,,0.275930788,0.223606798,0.275930788,0.223606798,stimuli/lakes/50104_left.png,stimuli/lakes/50104_right.png,,,,0,78,78,4,1,,,,,
,,,,,,$5cd0b82bae977b00015d30eb,2020-07-21_15h48.39.787,fisher_task,2020.1.3,Win32,60,0.061197917,-0.264322917,1,0,0,0.91635,scale,,,,,,0.2468,0.2,0.302267034,0.244948974,stimuli/lakes/407092_left.png,stimuli/lakes/407092_right.png,,,,0,79,79,92,1,,,,,
,,,,,,$5cd0b82bae977b00015d30eb,2020-07-21_15h48.39.787,fisher_task,2020.1.3,Win32,60,0.15234375,-0.364583333,1,0,0,1.1825,scale,,,,,,0.2468,0.2,0.302267034,0.244948974,stimuli/lakes/40103_left.png,stimuli/lakes/40103_right.png,,,,0,80,80,3,1,,,,,
,,,,,,$5cd0b82bae977b00015d30eb,2020-07-21_15h48.39.787,fisher_task,2020.1.3,Win32,60,0.046875,-0.25390625,1,0,0,2.832775,scale,,,,,,0.174513954,0.141421356,0.349027907,0.282842712,stimuli/lakes/2080108_left.png,stimuli/lakes/2080108_right.png,,,,0,81,81,108,1,,,,,
,,,,,,$5cd0b82bae977b00015d30eb,2020-07-21_15h48.39.787,fisher_task,2020.1.3,Win32,60,0.048177083,-0.25,1,0,0,1.2649,scale,,,,,,0.21373507,0.173205081,0.326485712,0.264575131,stimuli/lakes/3080109_left.png,stimuli/lakes/3080109_right.png,,,,0,82,82,109,1,,,,,
,,,,,,$5cd0b82bae977b00015d30eb,2020-07-21_15h48.39.787,fisher_task,2020.1.3,Win32,60,0.080729167,-0.266927083,1,0,0,1.19958,scale,,,,,,0.1234,0.1,0.3702,0.3,stimuli/lakes/106071_left.png,stimuli/lakes/106071_right.png,,,,0,83,83,71,1,,,,,
,,,,,,$5cd0b82bae977b00015d30eb,2020-07-21_15h48.39.787,fisher_task,2020.1.3,Win32,60,0.162760417,-0.342447917,1,0,0,0.999275,scale,,,,,,0.21373507,0.173205081,0.326485712,0.264575131,stimuli/lakes/302013_left.png,stimuli/lakes/302013_right.png,,,,0,84,84,13,1,,,,,
,,,,,,$5cd0b82bae977b00015d30eb,2020-07-21_15h48.39.787,fisher_task,2020.1.3,Win32,60,0.161458333,-0.342447917,1,0,0,0.766485,scale,,,,,,0.2468,0.2,0.302267034,0.244948974,stimuli/lakes/402015_left.png,stimuli/lakes/402015_right.png,,,,0,85,85,15,1,,,,,
,,,,,,$5cd0b82bae977b00015d30eb,2020-07-21_15h48.39.787,fisher_task,2020.1.3,Win32,60,-0.158854167,-0.338541667,1,0,0,0.966155,scale,,,,,,0.275930788,0.223606798,0.275930788,0.223606798,stimuli/lakes/5070102_left.png,stimuli/lakes/5070102_right.png,,,,0,86,86,102,1,,,,,
,,,,,,$5cd0b82bae977b00015d30eb,2020-07-21_15h48.39.787,fisher_task,2020.1.3,Win32,60,-0.141927083,-0.34765625,1,0,0,0.849915,scale,,,,,,0.326485712,0.264575131,0.21373507,0.173205081,stimuli/lakes/7080117_left.png,stimuli/lakes/7080117_right.png,,,,0,87,87,117,1,,,,,
,,,,,,$5cd0b82bae977b00015d30eb,2020-07-21_15h48.39.787,fisher_task,2020.1.3,Win32,60,-0.069010417,-0.28125,1,0,0,0.966325,scale,,,,,,0.3702,0.3,0.1234,0.1,stimuli/lakes/902022_left.png,stimuli/lakes/902022_right.png,,,space,0,88,88,22,1,1.79732,,,,
,,,,,,$5cd0b82bae977b00015d30eb,2020-07-21_15h48.39.787,fisher_task,2020.1.3,Win32,60,0.12890625,-0.299479167,1,0,0,0.983025,scale,,,,,,0.21373507,0.173205081,0.326485712,0.264575131,stimuli/lakes/304043_left.png,stimuli/lakes/304043_right.png,,,,0,89,89,43,1,,,,,
,,,,,,$5cd0b82bae977b00015d30eb,2020-07-21_15h48.39.787,fisher_task,2020.1.3,Win32,60,-0.09765625,-0.334635417,1,0,0,1.24983,scale,,,,,,0.349027907,0.282842712,0.174513954,0.141421356,stimuli/lakes/806087_left.png,stimuli/lakes/806087_right.png,,,,0,90,90,87,1,,,,,
,,,,,,$5cd0b82bae977b00015d30eb,2020-07-21_15h48.39.787,fisher_task,2020.1.3,Win32,60,0.12890625,-0.3203125,1,0,0,0.73309,scale,,,,,,0.2468,0.2,0.302267034,0.244948974,stimuli/lakes/404053_left.png,stimuli/lakes/404053_right.png,,,,0,91,91,53,1,,,,,
,,,,,,$5cd0b82bae977b00015d30eb,2020-07-21_15h48.39.787,fisher_task,2020.1.3,Win32,60,0.143229167,-0.337239583,1,0,0,0.74965,scale,,,,,,0.2468,0.2,0.302267034,0.244948974,stimuli/lakes/403026_left.png,stimuli/lakes/403026_right.png,,,,0,92,92,26,1,,,,,
,,,,,,$5cd0b82bae977b00015d30eb,2020-07-21_15h48.39.787,fisher_task,2020.1.3,Win32,60,0.001302083,-0.276041667,1,0,0,1.0669,scale,,,,,,0.2468,0.2,0.302267034,0.244948974,stimuli/lakes/4070101_left.png,stimuli/lakes/4070101_right.png,,,,0,93,93,101,1,,,,,
,,,,,,$5cd0b82bae977b00015d30eb,2020-07-21_15h48.39.787,fisher_task,2020.1.3,Win32,60,-0.14453125,-0.375,1,0,0,1.583795,scale,,,,,,0.2468,0.2,0.302267034,0.244948974,stimuli/lakes/4080111_left.png,stimuli/lakes/4080111_right.png,,,,0,94,94,111,1,,,,,
,,,,,,$5cd0b82bae977b00015d30eb,2020-07-21_15h48.39.787,fisher_task,2020.1.3,Win32,60,0.095052083,-0.322916667,1,0,0,0.916095,scale,,,,,,0.1234,0.1,0.3702,0.3,stimuli/lakes/105059_left.png,stimuli/lakes/105059_right.png,,,,0,95,95,59,1,,,,,
,,,,,,$5cd0b82bae977b00015d30eb,2020-07-21_15h48.39.787,fisher_task,2020.1.3,Win32,60,-0.078125,-0.283854167,1,0,0,1.050085,scale,,,,,,0.302267034,0.244948974,0.2468,0.2,stimuli/lakes/604055_left.png,stimuli/lakes/604055_right.png,,,,0,96,96,55,1,,,,,
,,,,,,$5cd0b82bae977b00015d30eb,2020-07-21_15h48.39.787,fisher_task,2020.1.3,Win32,60,-0.100260417,-0.342447917,1,0,0,1.10012,scale,,,,,,0.326485712,0.264575131,0.21373507,0.173205081,stimuli/lakes/706077_left.png,stimuli/lakes/706077_right.png,,,,0,97,97,77,1,,,,,
,,,,,,$5cd0b82bae977b00015d30eb,2020-07-21_15h48.39.787,fisher_task,2020.1.3,Win32,60,0.126302083,-0.325520833,1,0,0,2.36595,scale,,,,,,0.21373507,0.173205081,0.326485712,0.264575131,stimuli/lakes/305061_left.png,stimuli/lakes/305061_right.png,,,,0,98,98,61,1,,,,,
,,,,,,$5cd0b82bae977b00015d30eb,2020-07-21_15h48.39.787,fisher_task,2020.1.3,Win32,60,0.006510417,-0.236979167,1,0,0,1.23284,scale,,,,,,0.174513954,0.141421356,0.349027907,0.282842712,stimuli/lakes/2090120_left.png,stimuli/lakes/2090120_right.png,,,,0,99,99,120,1,,,,,
,,,,,,$5cd0b82bae977b00015d30eb,2020-07-21_15h48.39.787,fisher_task,2020.1.3,Win32,60,-0.114583333,-0.35546875,1,0,0,0.915735,scale,,,,,,0.275930788,0.223606798,0.275930788,0.223606798,stimuli/lakes/507093_left.png,stimuli/lakes/507093_right.png,,,,0,100,100,93,1,,,,,
,,,,,,$5cd0b82bae977b00015d30eb,2020-07-21_15h48.39.787,fisher_task,2020.1.3,Win32,60,-0.080729167,-0.266927083,1,0,0,1.682905,scale,,,,,,0.302267034,0.244948974,0.2468,0.2,stimuli/lakes/604046_left.png,stimuli/lakes/604046_right.png,,,,0,101,101,46,1,,,,,
,,,,,,$5cd0b82bae977b00015d30eb,2020-07-21_15h48.39.787,fisher_task,2020.1.3,Win32,60,0.067708333,-0.25,1,0,0,4.33259,scale,,,,,,0.174513954,0.141421356,0.349027907,0.282842712,stimuli/lakes/207099_left.png,stimuli/lakes/207099_right.png,,,,0,102,102,99,1,,,,,
,,,,,,$5cd0b82bae977b00015d30eb,2020-07-21_15h48.39.787,fisher_task,2020.1.3,Win32,60,0.045572917,-0.276041667,1,0,0,2.59953,scale,,,,,,0.326485712,0.264575131,0.21373507,0.173205081,stimuli/lakes/703029_left.png,stimuli/lakes/703029_right.png,,,,0,103,103,29,1,,,,,
,,,,,,$5cd0b82bae977b00015d30eb,2020-07-21_15h48.39.787,fisher_task,2020.1.3,Win32,60,0.0625,-0.2578125,1,0,0,2.332495,scale,,,,,,0.1234,0.1,0.3702,0.3,stimuli/lakes/1080107_left.png,stimuli/lakes/1080107_right.png,,,,0,104,104,107,1,,,,,
,,,,,,$5cd0b82bae977b00015d30eb,2020-07-21_15h48.39.787,fisher_task,2020.1.3,Win32,60,0.17578125,-0.36328125,1,0,0,1.898985,scale,,,,,,0.21373507,0.173205081,0.326485712,0.264575131,stimuli/lakes/302012_left.png,stimuli/lakes/302012_right.png,,,,0,105,105,12,1,,,,,
,,,,,,$5cd0b82bae977b00015d30eb,2020-07-21_15h48.39.787,fisher_task,2020.1.3,Win32,60,0.17578125,-0.361979167,1,0,0,0.383615,scale,,,,,,0.21373507,0.173205081,0.326485712,0.264575131,stimuli/lakes/30101_left.png,stimuli/lakes/30101_right.png,,,,0,106,106,1,1,,,,,
,,,,,,$5cd0b82bae977b00015d30eb,2020-07-21_15h48.39.787,fisher_task,2020.1.3,Win32,60,-0.022135417,-0.23828125,1,0,0,0.89999,scale,,,,,,0.21373507,0.173205081,0.326485712,0.264575131,stimuli/lakes/3090121_left.png,stimuli/lakes/3090121_right.png,,,,0,107,107,121,1,,,,,
,,,,,,$5cd0b82bae977b00015d30eb,2020-07-21_15h48.39.787,fisher_task,2020.1.3,Win32,60,0.024739583,-0.265625,1,0,0,0.73373,scale,,,,,,0.21373507,0.173205081,0.326485712,0.264575131,stimuli/lakes/3090122_left.png,stimuli/lakes/3090122_right.png,,,,0,108,108,122,1,,,,,
,,,,,,$5cd0b82bae977b00015d30eb,2020-07-21_15h48.39.787,fisher_task,2020.1.3,Win32,60,-0.12890625,-0.307291667,1,0,0,1.86606,scale,,,,,,0.3702,0.3,0.1234,0.1,stimuli/lakes/904058_left.png,stimuli/lakes/904058_right.png,,,,0,109,109,58,1,,,,,
,,,,,,$5cd0b82bae977b00015d30eb,2020-07-21_15h48.39.787,fisher_task,2020.1.3,Win32,60,-0.018229167,-0.268229167,1,0,0,1.2493,scale,,,,,,0.326485712,0.264575131,0.21373507,0.173205081,stimuli/lakes/702020_left.png,stimuli/lakes/702020_right.png,,,space,0,110,110,20,1,1.265675,,,,
,,,,,,$5cd0b82bae977b00015d30eb,2020-07-21_15h48.39.787,fisher_task,2020.1.3,Win32,60,0.09375,-0.270833333,1,0,0,2.1325,scale,,,,,,0.302267034,0.244948974,0.2468,0.2,stimuli/lakes/60106_left.png,stimuli/lakes/60106_right.png,,,,0,111,111,6,1,,,,,
,,,,,,$5cd0b82bae977b00015d30eb,2020-07-21_15h48.39.787,fisher_task,2020.1.3,Win32,60,-0.147135417,-0.361979167,1,0,0,1.032835,scale,,,,,,0.2468,0.2,0.302267034,0.244948974,stimuli/lakes/4090124_left.png,stimuli/lakes/4090124_right.png,,,,0,112,112,124,1,,,,,
,,,,,,$5cd0b82bae977b00015d30eb,2020-07-21_15h48.39.787,fisher_task,2020.1.3,Win32,60,0.1171875,-0.291666667,1,0,0,1.482835,scale,,,,,,0.174513954,0.141421356,0.349027907,0.282842712,stimuli/lakes/206081_left.png,stimuli/lakes/206081_right.png,,,,0,113,113,81,1,,,,,
,,,,,,$5cd0b82bae977b00015d30eb,2020-07-21_15h48.39.787,fisher_task,2020.1.3,Win32,60,-0.108072917,-0.354166667,1,0,0,0.982825,scale,,,,,,0.326485712,0.264575131,0.21373507,0.173205081,stimuli/lakes/707095_left.png,stimuli/lakes/707095_right.png,,,,0,114,114,95,1,,,,,
,,,,,,$5cd0b82bae977b00015d30eb,2020-07-21_15h48.39.787,fisher_task,2020.1.3,Win32,60,-0.154947917,-0.36328125,1,0,0,1.065575,scale,,,,,,0.326485712,0.264575131,0.21373507,0.173205081,stimuli/lakes/7070104_left.png,stimuli/lakes/7070104_right.png,,,,0,115,115,104,1,,,,,
,,,,,,$5cd0b82bae977b00015d30eb,2020-07-21_15h48.39.787,fisher_task,2020.1.3,Win32,60,-0.154947917,-0.3515625,1,0,0,0.89972,scale,,,,,,0.302267034,0.244948974,0.2468,0.2,stimuli/lakes/6070103_left.png,stimuli/lakes/6070103_right.png,,,,0,116,116,103,1,,,,,
,,,,,,$5cd0b82bae977b00015d30eb,2020-07-21_15h48.39.787,fisher_task,2020.1.3,Win32,60,0.16015625,-0.384114583,1,0,0,0.999685,scale,,,,,,0.2468,0.2,0.302267034,0.244948974,stimuli/lakes/404044_left.png,stimuli/lakes/404044_right.png,,,,0,117,117,44,1,,,,,
,,,,,,$5cd0b82bae977b00015d30eb,2020-07-21_15h48.39.787,fisher_task,2020.1.3,Win32,60,0.005208333,-0.248697917,1,0,0,0.966765,scale,,,,,,0.349027907,0.282842712,0.174513954,0.141421356,stimuli/lakes/802021_left.png,stimuli/lakes/802021_right.png,,,,0,118,118,21,1,,,,,
,,,,,,$5cd0b82bae977b00015d30eb,2020-07-21_15h48.39.787,fisher_task,2020.1.3,Win32,60,0.139322917,-0.313802083,1,0,0,0.932605,scale,,,,,,0.2468,0.2,0.302267034,0.244948974,stimuli/lakes/402014_left.png,stimuli/lakes/402014_right.png,,,,0,119,119,14,1,,,,,
,,,,,,$5cd0b82bae977b00015d30eb,2020-07-21_15h48.39.787,fisher_task,2020.1.3,Win32,60,-0.11328125,-0.321614583,1,0,0,1.016325,scale,,,,,,0.275930788,0.223606798,0.275930788,0.223606798,stimuli/lakes/5080113_left.png,stimuli/lakes/5080113_right.png,,,,0,120,120,113,1,,,,,
,,,,,,$5cd0b82bae977b00015d30eb,2020-07-21_15h48.39.787,fisher_task,2020.1.3,Win32,60,-0.024739583,-0.265625,1,0,0,1.199625,scale,,,,,,0.302267034,0.244948974,0.2468,0.2,stimuli/lakes/602017_left.png,stimuli/lakes/602017_right.png,,,,0,121,121,17,1,,,,,
,,,,,,$5cd0b82bae977b00015d30eb,2020-07-21_15h48.39.787,fisher_task,2020.1.3,Win32,60,-0.147135417,-0.333333333,1,0,0,1.43282,scale,,,,,,0.275930788,0.223606798,0.275930788,0.223606798,stimuli/lakes/506075_left.png,stimuli/lakes/506075_right.png,,,,0,122,122,75,1,,,,,
,,,,,,$5cd0b82bae977b00015d30eb,2020-07-21_15h48.39.787,fisher_task,2020.1.3,Win32,60,-0.149739583,-0.358072917,1,0,0,0.849655,scale,,,,,,0.349027907,0.282842712,0.174513954,0.141421356,stimuli/lakes/807096_left.png,stimuli/lakes/807096_right.png,,,,0,123,123,96,1,,,,,
,,,,,,$5cd0b82bae977b00015d30eb,2020-07-21_15h48.39.787,fisher_task,2020.1.3,Win32,60,0.143229167,-0.37109375,1,0,0,1.066675,scale,,,,,,0.1234,0.1,0.3702,0.3,stimuli/lakes/104050_left.png,stimuli/lakes/104050_right.png,,,,0,124,124,50,1,,,,,
,,,,,,$5cd0b82bae977b00015d30eb,2020-07-21_15h48.39.787,fisher_task,2020.1.3,Win32,60,0.06640625,-0.276041667,1,0,0,0.99964,scale,,,,,,0.21373507,0.173205081,0.326485712,0.264575131,stimuli/lakes/3080110_left.png,stimuli/lakes/3080110_right.png,,,,0,125,125,110,1,,,,,
,,,,,,$5cd0b82bae977b00015d30eb,2020-07-21_15h48.39.787,fisher_task,2020.1.3,Win32,60,0.057291667,-0.28125,1,0,0,1.566295,scale,,,,,,0.2468,0.2,0.302267034,0.244948974,stimuli/lakes/405063_left.png,stimuli/lakes/405063_right.png,,,,0,126,126,63,1,,,,,
,,,,,,$5cd0b82bae977b00015d30eb,2020-07-21_15h48.39.787,fisher_task,2020.1.3,Win32,60,0.149739583,-0.368489583,1,0,0,1.06583,scale,,,,,,0.21373507,0.173205081,0.326485712,0.264575131,stimuli/lakes/303034_left.png,stimuli/lakes/303034_right.png,,,,0,127,127,34,1,,,,,
,,,,,,$5cd0b82bae977b00015d30eb,2020-07-21_15h48.39.787,fisher_task,2020.1.3,Win32,60,-0.170572917,-0.41796875,1,0,0,1.03295,scale,,,,,,0.3702,0.3,0.1234,0.1,stimuli/lakes/9070106_left.png,stimuli/lakes/9070106_right.png,,,,0,128,128,106,1,,,,,
,,,,,,$5cd0b82bae977b00015d30eb,2020-07-21_15h48.39.787,fisher_task,2020.1.3,Win32,60,0.08984375,-0.274739583,1,0,0,2.266555,scale,,,,,,0.275930788,0.223606798,0.275930788,0.223606798,stimuli/lakes/503036_left.png,stimuli/lakes/503036_right.png,,,,0,129,129,36,1,,,,,
,,,,,,$5cd0b82bae977b00015d30eb,2020-07-21_15h48.39.787,fisher_task,2020.1.3,Win32,60,,,,,,,,,,,,,,,,,,,,,,,,,,,,space,2.946675,space,2.89467
