keySpace.keys,instructions.thisRepN,instructions.thisTrialN,instructions.thisN,instructions.thisIndex,instructions.ran,participant,date,expName,psychopyVersion,OS,frameRate,mouse.x,mouse.y,mouse.leftButton,mouse.midButton,mouse.rightButton,mouse.time,mouse.clicked_name,training.thisRepN,training.thisTrialN,training.thisN,training.thisIndex,training.ran,widthBasketLeft,heightBasketLeft,widthBasketRight,heightBasketRight,leftLake,rightLake,space2.keys,space2.rt,space1.keys,trials.thisRepN,trials.thisTrialN,trials.thisN,trials.thisIndex,trials.ran,space1.rt,finalSpace1.keys,finalSpace1.rt,finalSpace2.keys,finalSpace2.rt
,0,0,0,0,1,$5ea95e2f2e7de903e2a9c78f,2020-07-21_15h47.17.599,fisher_task,2020.1.3,Win32,60,,,,,,,,,,,,,,,,,,,,,,,,,,,,,,,
,,,,,,$5ea95e2f2e7de903e2a9c78f,2020-07-21_15h47.17.599,fisher_task,2020.1.3,Win32,60,0.176851868,-0.384259272,1,0,0,2.36615,scale,0,0,0,0,1,0.275930788,0.223606798,0.275930788,0.223606798,stimuli/training/20_left.png,stimuli/training/20_right.png,,,,,,,,,,,,,
,,,,,,$5ea95e2f2e7de903e2a9c78f,2020-07-21_15h47.17.599,fisher_task,2020.1.3,Win32,60,-0.154629619,-0.414814828,1,0,0,1.799625,scale,0,1,1,1,1,0.275930788,0.223606798,0.275930788,0.223606798,stimuli/training/80_left.png,stimuli/training/80_right.png,,,,,,,,,,,,,
,,,,,,$5ea95e2f2e7de903e2a9c78f,2020-07-21_15h47.17.599,fisher_task,2020.1.3,Win32,60,0.141666682,-0.300925938,1,0,0,1.799565,scale,0,2,2,2,1,0.174513954,0.141421356,0.349027907,0.282842712,stimuli/training/50_left.png,stimuli/training/50_right.png,,,,,,,,,,,,,
,,,,,,$5ea95e2f2e7de903e2a9c78f,2020-07-21_15h47.17.599,fisher_task,2020.1.3,Win32,60,-0.157407397,-0.355555568,1,0,0,2.216265,scale,0,3,3,3,1,0.349027907,0.282842712,0.174513954,0.141421356,stimuli/training/50_left.png,stimuli/training/50_right.png,,,,,,,,,,,,,
,,,,,,$5ea95e2f2e7de903e2a9c78f,2020-07-21_15h47.17.599,fisher_task,2020.1.3,Win32,60,0.179629646,-0.407407421,1,0,0,3.432565,scale,0,4,4,4,1,0.275930788,0.223606798,0.275930788,0.223606798,stimuli/training/50_left.png,stimuli/training/50_right.png,,,,,,,,,,,,,
,,,,,,$5ea95e2f2e7de903e2a9c78f,2020-07-21_15h47.17.599,fisher_task,2020.1.3,Win32,60,0.161111127,-0.42129631,1,0,0,1.94962,scale,0,5,5,5,1,0.174513954,0.141421356,0.349027907,0.282842712,stimuli/training/20_left.png,stimuli/training/20_right.png,,,,,,,,,,,,,
,,,,,,$5ea95e2f2e7de903e2a9c78f,2020-07-21_15h47.17.599,fisher_task,2020.1.3,Win32,60,-0.177777767,-0.426851866,1,0,0,1.38315,scale,0,6,6,6,1,0.349027907,0.282842712,0.174513954,0.141421356,stimuli/training/80_left.png,stimuli/training/80_right.png,,,,,,,,,,,,,
,,,,,,$5ea95e2f2e7de903e2a9c78f,2020-07-21_15h47.17.599,fisher_task,2020.1.3,Win32,60,0.200000016,-0.431481495,1,0,0,1.44973,scale,0,7,7,7,1,0.1234,0.1,0.3702,0.3,stimuli/training/30_left.png,stimuli/training/30_right.png,,,,,,,,,,,,,
,,,,,,$5ea95e2f2e7de903e2a9c78f,2020-07-21_15h47.17.599,fisher_task,2020.1.3,Win32,60,-0.175925915,-0.440740755,1,0,0,1.29952,scale,0,8,8,8,1,0.3702,0.3,0.1234,0.1,stimuli/training/70_left.png,stimuli/training/70_right.png,,,,,,,,,,,,,
,,,,,,$5ea95e2f2e7de903e2a9c78f,2020-07-21_15h47.17.599,fisher_task,2020.1.3,Win32,60,-0.153703693,-0.423148218,1,0,0,1.69954,scale,0,9,9,9,1,0.326485712,0.264575131,0.21373507,0.173205081,stimuli/training/90_left.png,stimuli/training/90_right.png,,,,,,,,,,,,,
,,,,,,$5ea95e2f2e7de903e2a9c78f,2020-07-21_15h47.17.599,fisher_task,2020.1.3,Win32,60,0.172222238,-0.426851866,1,0,0,1.832635,scale,0,10,10,10,1,0.21373507,0.173205081,0.326485712,0.264575131,stimuli/training/10_left.png,stimuli/training/10_right.png,,,,,,,,,,,,,
,,,,,,$5ea95e2f2e7de903e2a9c78f,2020-07-21_15h47.17.599,fisher_task,2020.1.3,Win32,60,-0.159259248,-0.422222236,1,0,0,1.366295,scale,,,,,,0.326485712,0.264575131,0.21373507,0.173205081,stimuli/lakes/706077_left.png,stimuli/lakes/706077_right.png,space,5.01617,,0,0,0,77,1,,,,,
,,,,,,$5ea95e2f2e7de903e2a9c78f,2020-07-21_15h47.17.599,fisher_task,2020.1.3,Win32,60,-0.149999989,-0.375000013,1,0,0,1.766275,scale,,,,,,0.326485712,0.264575131,0.21373507,0.173205081,stimuli/lakes/705068_left.png,stimuli/lakes/705068_right.png,,,,0,1,1,68,1,,,,,
,,,,,,$5ea95e2f2e7de903e2a9c78f,2020-07-21_15h47.17.599,fisher_task,2020.1.3,Win32,60,-0.105555544,-0.282407419,1,0,0,2.516225,scale,,,,,,0.3702,0.3,0.1234,0.1,stimuli/lakes/904058_left.png,stimuli/lakes/904058_right.png,,,,0,2,2,58,1,,,,,
,,,,,,$5ea95e2f2e7de903e2a9c78f,2020-07-21_15h47.17.599,fisher_task,2020.1.3,Win32,60,-0.162962952,-0.42592594,1,0,0,1.63293,scale,,,,,,0.275930788,0.223606798,0.275930788,0.223606798,stimuli/lakes/5090125_left.png,stimuli/lakes/5090125_right.png,,,,0,3,3,125,1,,,,,
,,,,,,$5ea95e2f2e7de903e2a9c78f,2020-07-21_15h47.17.599,fisher_task,2020.1.3,Win32,60,-0.063888877,-0.249074085,1,0,0,2.432815,scale,,,,,,0.349027907,0.282842712,0.174513954,0.141421356,stimuli/lakes/802021_left.png,stimuli/lakes/802021_right.png,,,,0,4,4,21,1,,,,,
,,,,,,$5ea95e2f2e7de903e2a9c78f,2020-07-21_15h47.17.599,fisher_task,2020.1.3,Win32,60,-0.010185172,-0.236111122,1,0,0,3.149585,scale,,,,,,0.326485712,0.264575131,0.21373507,0.173205081,stimuli/lakes/704056_left.png,stimuli/lakes/704056_right.png,,,,0,5,5,56,1,,,,,
,,,,,,$5ea95e2f2e7de903e2a9c78f,2020-07-21_15h47.17.599,fisher_task,2020.1.3,Win32,60,0.119444459,-0.276851863,1,0,0,2.382835,scale,,,,,,0.275930788,0.223606798,0.275930788,0.223606798,stimuli/lakes/504045_left.png,stimuli/lakes/504045_right.png,,,,0,6,6,45,1,,,,,
,,,,,,$5ea95e2f2e7de903e2a9c78f,2020-07-21_15h47.17.599,fisher_task,2020.1.3,Win32,60,0.015740811,-0.225000011,1,0,0,4.066135,scale,,,,,,0.326485712,0.264575131,0.21373507,0.173205081,stimuli/lakes/703038_left.png,stimuli/lakes/703038_right.png,,,,0,7,7,38,1,,,,,
,,,,,,$5ea95e2f2e7de903e2a9c78f,2020-07-21_15h47.17.599,fisher_task,2020.1.3,Win32,60,-0.139814804,-0.353703773,1,0,0,1.566255,scale,,,,,,0.349027907,0.282842712,0.174513954,0.141421356,stimuli/lakes/805069_left.png,stimuli/lakes/805069_right.png,,,,0,8,8,69,1,,,,,
,,,,,,$5ea95e2f2e7de903e2a9c78f,2020-07-21_15h47.17.599,fisher_task,2020.1.3,Win32,60,-0.172222212,-0.42592594,1,0,0,1.399655,scale,,,,,,0.326485712,0.264575131,0.21373507,0.173205081,stimuli/lakes/7080116_left.png,stimuli/lakes/7080116_right.png,,,,0,9,9,116,1,,,,,
,,,,,,$5ea95e2f2e7de903e2a9c78f,2020-07-21_15h47.17.599,fisher_task,2020.1.3,Win32,60,0.01203705,-0.2388889,1,0,0,2.399465,scale,,,,,,0.349027907,0.282842712,0.174513954,0.141421356,stimuli/lakes/803030_left.png,stimuli/lakes/803030_right.png,,,,0,10,10,30,1,,,,,
,,,,,,$5ea95e2f2e7de903e2a9c78f,2020-07-21_15h47.17.599,fisher_task,2020.1.3,Win32,60,-0.137036969,-0.364814828,1,0,0,1.98301,scale,,,,,,0.3702,0.3,0.1234,0.1,stimuli/lakes/905070_left.png,stimuli/lakes/905070_right.png,,,,0,11,11,70,1,,,,,
,,,,,,$5ea95e2f2e7de903e2a9c78f,2020-07-21_15h47.17.599,fisher_task,2020.1.3,Win32,60,-0.002777708,-0.249074085,1,0,0,1.549325,scale,,,,,,0.1234,0.1,0.3702,0.3,stimuli/lakes/1090119_left.png,stimuli/lakes/1090119_right.png,,,,0,12,12,119,1,,,,,
,,,,,,$5ea95e2f2e7de903e2a9c78f,2020-07-21_15h47.17.599,fisher_task,2020.1.3,Win32,60,0.091666681,-0.275000068,1,0,0,2.399545,scale,,,,,,0.174513954,0.141421356,0.349027907,0.282842712,stimuli/lakes/206081_left.png,stimuli/lakes/206081_right.png,,,,0,13,13,81,1,,,,,
,,,,,,$5ea95e2f2e7de903e2a9c78f,2020-07-21_15h47.17.599,fisher_task,2020.1.3,Win32,60,-0.16574073,-0.425000014,1,0,0,1.39968,scale,,,,,,0.349027907,0.282842712,0.174513954,0.141421356,stimuli/lakes/8080118_left.png,stimuli/lakes/8080118_right.png,,,,0,14,14,118,1,,,,,
,,,,,,$5ea95e2f2e7de903e2a9c78f,2020-07-21_15h47.17.599,fisher_task,2020.1.3,Win32,60,0.006481551,-0.24722229,1,0,0,1.89968,scale,,,,,,0.21373507,0.173205081,0.326485712,0.264575131,stimuli/lakes/3080109_left.png,stimuli/lakes/3080109_right.png,,,,0,15,15,109,1,,,,,
,,,,,,$5ea95e2f2e7de903e2a9c78f,2020-07-21_15h47.17.599,fisher_task,2020.1.3,Win32,60,0.001851922,-0.23425927,1,0,0,1.91589,scale,,,,,,0.21373507,0.173205081,0.326485712,0.264575131,stimuli/lakes/3090121_left.png,stimuli/lakes/3090121_right.png,,,,0,16,16,121,1,,,,,
,,,,,,$5ea95e2f2e7de903e2a9c78f,2020-07-21_15h47.17.599,fisher_task,2020.1.3,Win32,60,-0.109259191,-0.299074086,1,0,0,2.315965,scale,,,,,,0.349027907,0.282842712,0.174513954,0.141421356,stimuli/lakes/804057_left.png,stimuli/lakes/804057_right.png,,,,0,17,17,57,1,,,,,
,,,,,,$5ea95e2f2e7de903e2a9c78f,2020-07-21_15h47.17.599,fisher_task,2020.1.3,Win32,60,0.151851867,-0.356481494,1,0,0,1.86616,scale,,,,,,0.2468,0.2,0.302267034,0.244948974,stimuli/lakes/403026_left.png,stimuli/lakes/403026_right.png,,,,0,18,18,26,1,,,,,
,,,,,,$5ea95e2f2e7de903e2a9c78f,2020-07-21_15h47.17.599,fisher_task,2020.1.3,Win32,60,-0.164814748,-0.408333347,1,0,0,1.416125,scale,,,,,,0.302267034,0.244948974,0.2468,0.2,stimuli/lakes/607094_left.png,stimuli/lakes/607094_right.png,,,,0,19,19,94,1,,,,,
,,,,,,$5ea95e2f2e7de903e2a9c78f,2020-07-21_15h47.17.599,fisher_task,2020.1.3,Win32,60,0.141666682,-0.32777779,1,0,0,1.61614,scale,,,,,,0.174513954,0.141421356,0.349027907,0.282842712,stimuli/lakes/205060_left.png,stimuli/lakes/205060_right.png,,,,0,20,20,60,1,,,,,
,,,,,,$5ea95e2f2e7de903e2a9c78f,2020-07-21_15h47.17.599,fisher_task,2020.1.3,Win32,60,-0.160185118,-0.362963032,1,0,0,3.03292,scale,,,,,,0.302267034,0.244948974,0.2468,0.2,stimuli/lakes/6090127_left.png,stimuli/lakes/6090127_right.png,,,,0,21,21,127,1,,,,,
,,,,,,$5ea95e2f2e7de903e2a9c78f,2020-07-21_15h47.17.599,fisher_task,2020.1.3,Win32,60,-0.139814804,-0.320370383,1,0,0,2.766235,scale,,,,,,0.302267034,0.244948974,0.2468,0.2,stimuli/lakes/605066_left.png,stimuli/lakes/605066_right.png,,,space,0,22,22,66,1,6.77221,,,,
,,,,,,$5ea95e2f2e7de903e2a9c78f,2020-07-21_15h47.17.599,fisher_task,2020.1.3,Win32,60,0.011111181,-0.235185196,1,0,0,1.96609,scale,,,,,,0.174513954,0.141421356,0.349027907,0.282842712,stimuli/lakes/2080108_left.png,stimuli/lakes/2080108_right.png,,,,0,23,23,108,1,,,,,
,,,,,,$5ea95e2f2e7de903e2a9c78f,2020-07-21_15h47.17.599,fisher_task,2020.1.3,Win32,60,0.153703719,-0.32314816,1,0,0,3.282715,scale,,,,,,0.21373507,0.173205081,0.326485712,0.264575131,stimuli/lakes/30100_left.png,stimuli/lakes/30100_right.png,,,,0,24,24,0,1,,,,,
,,,,,,$5ea95e2f2e7de903e2a9c78f,2020-07-21_15h47.17.599,fisher_task,2020.1.3,Win32,60,-0.168518508,-0.425000014,1,0,0,1.282905,scale,,,,,,0.326485712,0.264575131,0.21373507,0.173205081,stimuli/lakes/7070104_left.png,stimuli/lakes/7070104_right.png,,,,0,25,25,104,1,,,,,
,,,,,,$5ea95e2f2e7de903e2a9c78f,2020-07-21_15h47.17.599,fisher_task,2020.1.3,Win32,60,-0.1611111,-0.400925939,1,0,0,2.68276,scale,,,,,,0.326485712,0.264575131,0.21373507,0.173205081,stimuli/lakes/707095_left.png,stimuli/lakes/707095_right.png,,,,0,26,26,95,1,,,,,
,,,,,,$5ea95e2f2e7de903e2a9c78f,2020-07-21_15h47.17.599,fisher_task,2020.1.3,Win32,60,0.011111181,-0.23796303,1,0,0,1.39963,scale,,,,,,0.275930788,0.223606798,0.275930788,0.223606798,stimuli/lakes/506084_left.png,stimuli/lakes/506084_right.png,,,,0,27,27,84,1,,,,,
,,,,,,$5ea95e2f2e7de903e2a9c78f,2020-07-21_15h47.17.599,fisher_task,2020.1.3,Win32,60,-0.090740672,-0.282407419,1,0,0,1.48296,scale,,,,,,0.302267034,0.244948974,0.2468,0.2,stimuli/lakes/603028_left.png,stimuli/lakes/603028_right.png,,,,0,28,28,28,1,,,,,
,,,,,,$5ea95e2f2e7de903e2a9c78f,2020-07-21_15h47.17.599,fisher_task,2020.1.3,Win32,60,0.037037051,-0.250000011,1,0,0,3.249425,scale,,,,,,0.21373507,0.173205081,0.326485712,0.264575131,stimuli/lakes/306082_left.png,stimuli/lakes/306082_right.png,,,,0,29,29,82,1,,,,,
,,,,,,$5ea95e2f2e7de903e2a9c78f,2020-07-21_15h47.17.599,fisher_task,2020.1.3,Win32,60,-0.108333322,-0.282407419,1,0,0,4.216075,scale,,,,,,0.326485712,0.264575131,0.21373507,0.173205081,stimuli/lakes/704047_left.png,stimuli/lakes/704047_right.png,,,,0,30,30,47,1,,,,,
,,,,,,$5ea95e2f2e7de903e2a9c78f,2020-07-21_15h47.17.599,fisher_task,2020.1.3,Win32,60,0.125925941,-0.295370382,1,0,0,3.3828,scale,,,,,,0.1234,0.1,0.3702,0.3,stimuli/lakes/106080_left.png,stimuli/lakes/106080_right.png,,,,0,31,31,80,1,,,,,
,,,,,,$5ea95e2f2e7de903e2a9c78f,2020-07-21_15h47.17.599,fisher_task,2020.1.3,Win32,60,0.162962979,-0.372222292,1,0,0,1.499535,scale,,,,,,0.2468,0.2,0.302267034,0.244948974,stimuli/lakes/404044_left.png,stimuli/lakes/404044_right.png,,,,0,32,32,44,1,,,,,
,,,,,,$5ea95e2f2e7de903e2a9c78f,2020-07-21_15h47.17.599,fisher_task,2020.1.3,Win32,60,-0.151851841,-0.400925939,1,0,0,1.499465,scale,,,,,,0.349027907,0.282842712,0.174513954,0.141421356,stimuli/lakes/8070105_left.png,stimuli/lakes/8070105_right.png,,,,0,33,33,105,1,,,,,
,,,,,,$5ea95e2f2e7de903e2a9c78f,2020-07-21_15h47.17.599,fisher_task,2020.1.3,Win32,60,-0.173148137,-0.428703718,1,0,0,0.866165,scale,,,,,,0.326485712,0.264575131,0.21373507,0.173205081,stimuli/lakes/7090128_left.png,stimuli/lakes/7090128_right.png,,,,0,34,34,128,1,,,,,
,,,,,,$5ea95e2f2e7de903e2a9c78f,2020-07-21_15h47.17.599,fisher_task,2020.1.3,Win32,60,-0.107407396,-0.278703715,1,0,0,2.48302,scale,,,,,,0.275930788,0.223606798,0.275930788,0.223606798,stimuli/lakes/507093_left.png,stimuli/lakes/507093_right.png,,,,0,35,35,93,1,,,,,
,,,,,,$5ea95e2f2e7de903e2a9c78f,2020-07-21_15h47.17.599,fisher_task,2020.1.3,Win32,60,0.090740755,-0.257407419,1,0,0,3.19919,scale,,,,,,0.2468,0.2,0.302267034,0.244948974,stimuli/lakes/405063_left.png,stimuli/lakes/405063_right.png,,,,0,36,36,63,1,,,,,
,,,,,,$5ea95e2f2e7de903e2a9c78f,2020-07-21_15h47.17.599,fisher_task,2020.1.3,Win32,60,0.087962978,-0.249074085,1,0,0,4.032605,scale,,,,,,0.302267034,0.244948974,0.2468,0.2,stimuli/lakes/602018_left.png,stimuli/lakes/602018_right.png,,,,0,37,37,18,1,,,,,
,,,,,,$5ea95e2f2e7de903e2a9c78f,2020-07-21_15h47.17.599,fisher_task,2020.1.3,Win32,60,0.015740811,-0.233333401,1,0,0,1.7996,scale,,,,,,0.21373507,0.173205081,0.326485712,0.264575131,stimuli/lakes/307091_left.png,stimuli/lakes/307091_right.png,,,,0,38,38,91,1,,,,,
,,,,,,$5ea95e2f2e7de903e2a9c78f,2020-07-21_15h47.17.599,fisher_task,2020.1.3,Win32,60,-0.146296229,-0.312037106,1,0,0,2.449445,scale,,,,,,0.302267034,0.244948974,0.2468,0.2,stimuli/lakes/6080114_left.png,stimuli/lakes/6080114_right.png,,,,0,39,39,114,1,,,,,
,,,,,,$5ea95e2f2e7de903e2a9c78f,2020-07-21_15h47.17.599,fisher_task,2020.1.3,Win32,60,-0.010185172,-0.24722229,1,0,0,1.84962,scale,,,,,,0.302267034,0.244948974,0.2468,0.2,stimuli/lakes/60105_left.png,stimuli/lakes/60105_right.png,,,,0,40,40,5,1,,,,,
,,,,,,$5ea95e2f2e7de903e2a9c78f,2020-07-21_15h47.17.599,fisher_task,2020.1.3,Win32,60,0.003703717,-0.237037048,1,0,0,4.81567,scale,,,,,,0.2468,0.2,0.302267034,0.244948974,stimuli/lakes/4090123_left.png,stimuli/lakes/4090123_right.png,,,,0,41,41,123,1,,,,,
,,,,,,$5ea95e2f2e7de903e2a9c78f,2020-07-21_15h47.17.599,fisher_task,2020.1.3,Win32,60,0.142592608,-0.301851864,1,0,0,2.09968,scale,,,,,,0.2468,0.2,0.302267034,0.244948974,stimuli/lakes/404053_left.png,stimuli/lakes/404053_right.png,,,,0,42,42,53,1,,,,,
,,,,,,$5ea95e2f2e7de903e2a9c78f,2020-07-21_15h47.17.599,fisher_task,2020.1.3,Win32,60,-0.139814804,-0.309259271,1,0,0,2.11618,scale,,,,,,0.275930788,0.223606798,0.275930788,0.223606798,stimuli/lakes/5070102_left.png,stimuli/lakes/5070102_right.png,,,,0,43,43,102,1,,,,,
,,,,,,$5ea95e2f2e7de903e2a9c78f,2020-07-21_15h47.17.599,fisher_task,2020.1.3,Win32,60,0.010185199,-0.24259266,1,0,0,1.733145,scale,,,,,,0.302267034,0.244948974,0.2468,0.2,stimuli/lakes/602017_left.png,stimuli/lakes/602017_right.png,,,space,0,44,44,17,1,6.91041,,,,
,,,,,,$5ea95e2f2e7de903e2a9c78f,2020-07-21_15h47.17.599,fisher_task,2020.1.3,Win32,60,-0.162962952,-0.371296309,1,0,0,1.34961,scale,,,,,,0.302267034,0.244948974,0.2468,0.2,stimuli/lakes/6080115_left.png,stimuli/lakes/6080115_right.png,,,,0,45,45,115,1,,,,,
,,,,,,$5ea95e2f2e7de903e2a9c78f,2020-07-21_15h47.17.599,fisher_task,2020.1.3,Win32,60,-0.175925915,-0.428703718,1,0,0,1.083015,scale,,,,,,0.3702,0.3,0.1234,0.1,stimuli/lakes/9070106_left.png,stimuli/lakes/9070106_right.png,,,,0,46,46,106,1,,,,,
,,,,,,$5ea95e2f2e7de903e2a9c78f,2020-07-21_15h47.17.599,fisher_task,2020.1.3,Win32,60,0.17870372,-0.431481495,1,0,0,1.299655,scale,,,,,,0.1234,0.1,0.3702,0.3,stimuli/lakes/103032_left.png,stimuli/lakes/103032_right.png,,,,0,47,47,32,1,,,,,
,,,,,,$5ea95e2f2e7de903e2a9c78f,2020-07-21_15h47.17.599,fisher_task,2020.1.3,Win32,60,0.150925941,-0.33703705,1,0,0,1.349495,scale,,,,,,0.21373507,0.173205081,0.326485712,0.264575131,stimuli/lakes/302012_left.png,stimuli/lakes/302012_right.png,,,,0,48,48,12,1,,,,,
,,,,,,$5ea95e2f2e7de903e2a9c78f,2020-07-21_15h47.17.599,fisher_task,2020.1.3,Win32,60,0.168518534,-0.440740755,1,0,0,4.33268,scale,,,,,,0.21373507,0.173205081,0.326485712,0.264575131,stimuli/lakes/303034_left.png,stimuli/lakes/303034_right.png,,,,0,49,49,34,1,,,,,
,,,,,,$5ea95e2f2e7de903e2a9c78f,2020-07-21_15h47.17.599,fisher_task,2020.1.3,Win32,60,0.171296312,-0.373148161,1,0,0,1.43325,scale,,,,,,0.174513954,0.141421356,0.349027907,0.282842712,stimuli/lakes/202011_left.png,stimuli/lakes/202011_right.png,,,,0,50,50,11,1,,,,,
,,,,,,$5ea95e2f2e7de903e2a9c78f,2020-07-21_15h47.17.599,fisher_task,2020.1.3,Win32,60,0.064814829,-0.258333345,1,0,0,1.249605,scale,,,,,,0.2468,0.2,0.302267034,0.244948974,stimuli/lakes/407092_left.png,stimuli/lakes/407092_right.png,,,,0,51,51,92,1,,,,,
,,,,,,$5ea95e2f2e7de903e2a9c78f,2020-07-21_15h47.17.599,fisher_task,2020.1.3,Win32,60,0.13981483,-0.314814827,1,0,0,1.332845,scale,,,,,,0.2468,0.2,0.302267034,0.244948974,stimuli/lakes/40103_left.png,stimuli/lakes/40103_right.png,,,,0,52,52,3,1,,,,,
,,,,,,$5ea95e2f2e7de903e2a9c78f,2020-07-21_15h47.17.599,fisher_task,2020.1.3,Win32,60,0.068518533,-0.2388889,1,0,0,3.132515,scale,,,,,,0.326485712,0.264575131,0.21373507,0.173205081,stimuli/lakes/70107_left.png,stimuli/lakes/70107_right.png,,,,0,53,53,7,1,,,,,
,,,,,,$5ea95e2f2e7de903e2a9c78f,2020-07-21_15h47.17.599,fisher_task,2020.1.3,Win32,60,0.003703717,-0.231481492,1,0,0,2.399515,scale,,,,,,0.326485712,0.264575131,0.21373507,0.173205081,stimuli/lakes/702019_left.png,stimuli/lakes/702019_right.png,,,,0,54,54,19,1,,,,,
,,,,,,$5ea95e2f2e7de903e2a9c78f,2020-07-21_15h47.17.599,fisher_task,2020.1.3,Win32,60,-0.082407395,-0.269444456,1,0,0,1.19982,scale,,,,,,0.302267034,0.244948974,0.2468,0.2,stimuli/lakes/604046_left.png,stimuli/lakes/604046_right.png,,,,0,55,55,46,1,,,,,
,,,,,,$5ea95e2f2e7de903e2a9c78f,2020-07-21_15h47.17.599,fisher_task,2020.1.3,Win32,60,-0.166666656,-0.35740742,1,0,0,1.499865,scale,,,,,,0.349027907,0.282842712,0.174513954,0.141421356,stimuli/lakes/807096_left.png,stimuli/lakes/807096_right.png,,,,0,56,56,96,1,,,,,
,,,,,,$5ea95e2f2e7de903e2a9c78f,2020-07-21_15h47.17.599,fisher_task,2020.1.3,Win32,60,-0.073148136,-0.253703715,1,0,0,1.19969,scale,,,,,,0.3702,0.3,0.1234,0.1,stimuli/lakes/902022_left.png,stimuli/lakes/902022_right.png,,,,0,57,57,22,1,,,,,
,,,,,,$5ea95e2f2e7de903e2a9c78f,2020-07-21_15h47.17.599,fisher_task,2020.1.3,Win32,60,0.155555571,-0.350925939,1,0,0,1.46617,scale,,,,,,0.21373507,0.173205081,0.326485712,0.264575131,stimuli/lakes/303025_left.png,stimuli/lakes/303025_right.png,,,,0,58,58,25,1,,,,,
,,,,,,$5ea95e2f2e7de903e2a9c78f,2020-07-21_15h47.17.599,fisher_task,2020.1.3,Win32,60,-0.082407395,-0.272222234,1,0,0,1.28301,scale,,,,,,0.326485712,0.264575131,0.21373507,0.173205081,stimuli/lakes/703029_left.png,stimuli/lakes/703029_right.png,,,,0,59,59,29,1,,,,,
,,,,,,$5ea95e2f2e7de903e2a9c78f,2020-07-21_15h47.17.599,fisher_task,2020.1.3,Win32,60,1.32455E-08,-0.227777789,1,0,0,1.682925,scale,,,,,,0.275930788,0.223606798,0.275930788,0.223606798,stimuli/lakes/502016_left.png,stimuli/lakes/502016_right.png,,,,0,60,60,16,1,,,,,
,,,,,,$5ea95e2f2e7de903e2a9c78f,2020-07-21_15h47.17.599,fisher_task,2020.1.3,Win32,60,0.002777791,-0.230555566,1,0,0,2.932715,scale,,,,,,0.326485712,0.264575131,0.21373507,0.173205081,stimuli/lakes/706086_left.png,stimuli/lakes/706086_right.png,,,,0,61,61,86,1,,,,,
,,,,,,$5ea95e2f2e7de903e2a9c78f,2020-07-21_15h47.17.599,fisher_task,2020.1.3,Win32,60,-0.153703693,-0.400925939,1,0,0,1.182975,scale,,,,,,0.3702,0.3,0.1234,0.1,stimuli/lakes/906088_left.png,stimuli/lakes/906088_right.png,,,,0,62,62,88,1,,,,,
,,,,,,$5ea95e2f2e7de903e2a9c78f,2020-07-21_15h47.17.599,fisher_task,2020.1.3,Win32,60,0.079629644,-0.257407419,1,0,0,2.88287,scale,,,,,,0.1234,0.1,0.3702,0.3,stimuli/lakes/107098_left.png,stimuli/lakes/107098_right.png,,,,0,63,63,98,1,,,,,
,,,,,,$5ea95e2f2e7de903e2a9c78f,2020-07-21_15h47.17.599,fisher_task,2020.1.3,Win32,60,-0.078703692,-0.248148159,1,0,0,2.382805,scale,,,,,,0.349027907,0.282842712,0.174513954,0.141421356,stimuli/lakes/803039_left.png,stimuli/lakes/803039_right.png,,,,0,64,64,39,1,,,,,
,,,,,,$5ea95e2f2e7de903e2a9c78f,2020-07-21_15h47.17.599,fisher_task,2020.1.3,Win32,60,0.162037053,-0.373148161,1,0,0,0.966335,scale,,,,,,0.21373507,0.173205081,0.326485712,0.264575131,stimuli/lakes/305061_left.png,stimuli/lakes/305061_right.png,,,,0,65,65,61,1,,,,,
,,,,,,$5ea95e2f2e7de903e2a9c78f,2020-07-21_15h47.17.599,fisher_task,2020.1.3,Win32,60,-0.173148137,-0.417592606,1,0,0,1.3161,scale,,,,,,0.326485712,0.264575131,0.21373507,0.173205081,stimuli/lakes/7080117_left.png,stimuli/lakes/7080117_right.png,,,space,0,66,66,117,1,13.432595,,,,
,,,,,,$5ea95e2f2e7de903e2a9c78f,2020-07-21_15h47.17.599,fisher_task,2020.1.3,Win32,60,-0.031481469,-0.237037048,1,0,0,2.466135,scale,,,,,,0.349027907,0.282842712,0.174513954,0.141421356,stimuli/lakes/80109_left.png,stimuli/lakes/80109_right.png,,,,0,67,67,9,1,,,,,
,,,,,,$5ea95e2f2e7de903e2a9c78f,2020-07-21_15h47.17.599,fisher_task,2020.1.3,Win32,60,0.168518534,-0.377777791,1,0,0,2.11628,scale,,,,,,0.1234,0.1,0.3702,0.3,stimuli/lakes/104050_left.png,stimuli/lakes/104050_right.png,,,,0,68,68,50,1,,,,,
,,,,,,$5ea95e2f2e7de903e2a9c78f,2020-07-21_15h47.17.599,fisher_task,2020.1.3,Win32,60,0.063888903,-0.240740752,1,0,0,2.68272,scale,,,,,,0.2468,0.2,0.302267034,0.244948974,stimuli/lakes/4070101_left.png,stimuli/lakes/4070101_right.png,,,,0,69,69,101,1,,,,,
,,,,,,$5ea95e2f2e7de903e2a9c78f,2020-07-21_15h47.17.599,fisher_task,2020.1.3,Win32,60,-0.17037036,-0.350000013,1,0,0,1.16625,scale,,,,,,0.302267034,0.244948974,0.2468,0.2,stimuli/lakes/606076_left.png,stimuli/lakes/606076_right.png,,,,0,70,70,76,1,,,,,
,,,,,,$5ea95e2f2e7de903e2a9c78f,2020-07-21_15h47.17.599,fisher_task,2020.1.3,Win32,60,-0.124999989,-0.302777846,1,0,0,1.332855,scale,,,,,,0.3702,0.3,0.1234,0.1,stimuli/lakes/904049_left.png,stimuli/lakes/904049_right.png,,,,0,71,71,49,1,,,,,
,,,,,,$5ea95e2f2e7de903e2a9c78f,2020-07-21_15h47.17.599,fisher_task,2020.1.3,Win32,60,0.008333347,-0.24351853,1,0,0,2.682975,scale,,,,,,0.21373507,0.173205081,0.326485712,0.264575131,stimuli/lakes/3080110_left.png,stimuli/lakes/3080110_right.png,,,,0,72,72,110,1,,,,,
,,,,,,$5ea95e2f2e7de903e2a9c78f,2020-07-21_15h47.17.599,fisher_task,2020.1.3,Win32,60,0.127777793,-0.315740753,1,0,0,1.91604,scale,,,,,,0.174513954,0.141421356,0.349027907,0.282842712,stimuli/lakes/204051_left.png,stimuli/lakes/204051_right.png,,,,0,73,73,51,1,,,,,
,,,,,,$5ea95e2f2e7de903e2a9c78f,2020-07-21_15h47.17.599,fisher_task,2020.1.3,Win32,60,0.155555571,-0.387962976,1,0,0,1.6163,scale,,,,,,0.2468,0.2,0.302267034,0.244948974,stimuli/lakes/40102_left.png,stimuli/lakes/40102_right.png,,,,0,74,74,2,1,,,,,
,,,,,,$5ea95e2f2e7de903e2a9c78f,2020-07-21_15h47.17.599,fisher_task,2020.1.3,Win32,60,0.17407409,-0.437962977,1,0,0,1.949665,scale,,,,,,0.21373507,0.173205081,0.326485712,0.264575131,stimuli/lakes/30101_left.png,stimuli/lakes/30101_right.png,,,,0,75,75,1,1,,,,,
,,,,,,$5ea95e2f2e7de903e2a9c78f,2020-07-21_15h47.17.599,fisher_task,2020.1.3,Win32,60,0.10555557,-0.280555567,1,0,0,1.449425,scale,,,,,,0.1234,0.1,0.3702,0.3,stimuli/lakes/105059_left.png,stimuli/lakes/105059_right.png,,,,0,76,76,59,1,,,,,
,,,,,,$5ea95e2f2e7de903e2a9c78f,2020-07-21_15h47.17.599,fisher_task,2020.1.3,Win32,60,0.074074088,-0.255555567,1,0,0,1.93301,scale,,,,,,0.174513954,0.141421356,0.349027907,0.282842712,stimuli/lakes/206072_left.png,stimuli/lakes/206072_right.png,,,,0,77,77,72,1,,,,,
,,,,,,$5ea95e2f2e7de903e2a9c78f,2020-07-21_15h47.17.599,fisher_task,2020.1.3,Win32,60,0.158333349,-0.424074088,1,0,0,1.516265,scale,,,,,,0.1234,0.1,0.3702,0.3,stimuli/lakes/104041_left.png,stimuli/lakes/104041_right.png,,,,0,78,78,41,1,,,,,
,,,,,,$5ea95e2f2e7de903e2a9c78f,2020-07-21_15h47.17.599,fisher_task,2020.1.3,Win32,60,-0.150925858,-0.378703717,1,0,0,1.899615,scale,,,,,,0.302267034,0.244948974,0.2468,0.2,stimuli/lakes/6070103_left.png,stimuli/lakes/6070103_right.png,,,,0,79,79,103,1,,,,,
,,,,,,$5ea95e2f2e7de903e2a9c78f,2020-07-21_15h47.17.599,fisher_task,2020.1.3,Win32,60,0.006481551,-0.258333345,1,0,0,1.849715,scale,,,,,,0.2468,0.2,0.302267034,0.244948974,stimuli/lakes/406083_left.png,stimuli/lakes/406083_right.png,,,,0,80,80,83,1,,,,,
,,,,,,$5ea95e2f2e7de903e2a9c78f,2020-07-21_15h47.17.599,fisher_task,2020.1.3,Win32,60,-0.178703637,-0.437962977,1,0,0,0.983145,scale,,,,,,0.326485712,0.264575131,0.21373507,0.173205081,stimuli/lakes/7090129_left.png,stimuli/lakes/7090129_right.png,,,,0,81,81,129,1,,,,,
,,,,,,$5ea95e2f2e7de903e2a9c78f,2020-07-21_15h47.17.599,fisher_task,2020.1.3,Win32,60,0.004629643,-0.24722229,1,0,0,3.23265,scale,,,,,,0.3702,0.3,0.1234,0.1,stimuli/lakes/901010_left.png,stimuli/lakes/901010_right.png,,,,0,82,82,10,1,,,,,
,,,,,,$5ea95e2f2e7de903e2a9c78f,2020-07-21_15h47.17.599,fisher_task,2020.1.3,Win32,60,-0.144444433,-0.370370383,1,0,0,1.08285,scale,,,,,,0.302267034,0.244948974,0.2468,0.2,stimuli/lakes/606085_left.png,stimuli/lakes/606085_right.png,,,,0,83,83,85,1,,,,,
,,,,,,$5ea95e2f2e7de903e2a9c78f,2020-07-21_15h47.17.599,fisher_task,2020.1.3,Win32,60,0.002777791,-0.245370381,1,0,0,2.11634,scale,,,,,,0.2468,0.2,0.302267034,0.244948974,stimuli/lakes/4090124_left.png,stimuli/lakes/4090124_right.png,,,,0,84,84,124,1,,,,,
,,,,,,$5ea95e2f2e7de903e2a9c78f,2020-07-21_15h47.17.599,fisher_task,2020.1.3,Win32,60,0.102777793,-0.275925937,1,0,0,2.549405,scale,,,,,,0.174513954,0.141421356,0.349027907,0.282842712,stimuli/lakes/207090_left.png,stimuli/lakes/207090_right.png,,,,0,85,85,90,1,,,,,
,,,,,,$5ea95e2f2e7de903e2a9c78f,2020-07-21_15h47.17.599,fisher_task,2020.1.3,Win32,60,-0.181481471,-0.427777848,1,0,0,3.332765,scale,,,,,,0.349027907,0.282842712,0.174513954,0.141421356,stimuli/lakes/806078_left.png,stimuli/lakes/806078_right.png,,,,0,86,86,78,1,,,,,
,,,,,,$5ea95e2f2e7de903e2a9c78f,2020-07-21_15h47.17.599,fisher_task,2020.1.3,Win32,60,-0.16574073,-0.36666668,1,0,0,3.082725,scale,,,,,,0.3702,0.3,0.1234,0.1,stimuli/lakes/906079_left.png,stimuli/lakes/906079_right.png,,,,0,87,87,79,1,,,,,
,,,,,,$5ea95e2f2e7de903e2a9c78f,2020-07-21_15h47.17.599,fisher_task,2020.1.3,Win32,60,-0.062962894,-0.257407419,1,0,0,2.7831,scale,,,,,,0.302267034,0.244948974,0.2468,0.2,stimuli/lakes/603037_left.png,stimuli/lakes/603037_right.png,,,space,0,88,88,37,1,6.64689,,,,
,,,,,,$5ea95e2f2e7de903e2a9c78f,2020-07-21_15h47.17.599,fisher_task,2020.1.3,Win32,60,-0.162962952,-0.423148218,1,0,0,1.183025,scale,,,,,,0.3702,0.3,0.1234,0.1,stimuli/lakes/907097_left.png,stimuli/lakes/907097_right.png,,,,0,89,89,97,1,,,,,
,,,,,,$5ea95e2f2e7de903e2a9c78f,2020-07-21_15h47.17.599,fisher_task,2020.1.3,Win32,60,0.054629644,-0.239814826,1,0,0,1.51653,scale,,,,,,0.21373507,0.173205081,0.326485712,0.264575131,stimuli/lakes/3090122_left.png,stimuli/lakes/3090122_right.png,,,,0,90,90,122,1,,,,,
,,,,,,$5ea95e2f2e7de903e2a9c78f,2020-07-21_15h47.17.599,fisher_task,2020.1.3,Win32,60,0.097222237,-0.270370438,1,0,0,2.465975,scale,,,,,,0.275930788,0.223606798,0.275930788,0.223606798,stimuli/lakes/504054_left.png,stimuli/lakes/504054_right.png,,,,0,91,91,54,1,,,,,
,,,,,,$5ea95e2f2e7de903e2a9c78f,2020-07-21_15h47.17.599,fisher_task,2020.1.3,Win32,60,0.16944446,-0.342592605,1,0,0,1.16639,scale,,,,,,0.21373507,0.173205081,0.326485712,0.264575131,stimuli/lakes/304043_left.png,stimuli/lakes/304043_right.png,,,,0,92,92,43,1,,,,,
,,,,,,$5ea95e2f2e7de903e2a9c78f,2020-07-21_15h47.17.599,fisher_task,2020.1.3,Win32,60,0.164814831,-0.373148161,1,0,0,1.03292,scale,,,,,,0.2468,0.2,0.302267034,0.244948974,stimuli/lakes/402014_left.png,stimuli/lakes/402014_right.png,,,,0,93,93,14,1,,,,,
,,,,,,$5ea95e2f2e7de903e2a9c78f,2020-07-21_15h47.17.599,fisher_task,2020.1.3,Win32,60,0.095370385,-0.250000011,1,0,0,1.08266,scale,,,,,,0.1234,0.1,0.3702,0.3,stimuli/lakes/107089_left.png,stimuli/lakes/107089_right.png,,,,0,94,94,89,1,,,,,
,,,,,,$5ea95e2f2e7de903e2a9c78f,2020-07-21_15h47.17.599,fisher_task,2020.1.3,Win32,60,-0.121296285,-0.288888957,1,0,0,1.14991,scale,,,,,,0.3702,0.3,0.1234,0.1,stimuli/lakes/903031_left.png,stimuli/lakes/903031_right.png,,,,0,95,95,31,1,,,,,
,,,,,,$5ea95e2f2e7de903e2a9c78f,2020-07-21_15h47.17.599,fisher_task,2020.1.3,Win32,60,0.181481497,-0.434259273,1,0,0,1.58307,scale,,,,,,0.174513954,0.141421356,0.349027907,0.282842712,stimuli/lakes/203033_left.png,stimuli/lakes/203033_right.png,,,,0,96,96,33,1,,,,,
,,,,,,$5ea95e2f2e7de903e2a9c78f,2020-07-21_15h47.17.599,fisher_task,2020.1.3,Win32,60,-0.120370359,-0.297222234,1,0,0,1.51554,scale,,,,,,0.275930788,0.223606798,0.275930788,0.223606798,stimuli/lakes/506075_left.png,stimuli/lakes/506075_right.png,,,,0,97,97,75,1,,,,,
,,,,,,$5ea95e2f2e7de903e2a9c78f,2020-07-21_15h47.17.599,fisher_task,2020.1.3,Win32,60,-0.003703691,-0.239814826,1,0,0,1.782595,scale,,,,,,0.2468,0.2,0.302267034,0.244948974,stimuli/lakes/4080111_left.png,stimuli/lakes/4080111_right.png,,,,0,98,98,111,1,,,,,
,,,,,,$5ea95e2f2e7de903e2a9c78f,2020-07-21_15h47.17.599,fisher_task,2020.1.3,Win32,60,0.126851867,-0.312962975,1,0,0,1.083245,scale,,,,,,0.21373507,0.173205081,0.326485712,0.264575131,stimuli/lakes/304052_left.png,stimuli/lakes/304052_right.png,,,,0,99,99,52,1,,,,,
,,,,,,$5ea95e2f2e7de903e2a9c78f,2020-07-21_15h47.17.599,fisher_task,2020.1.3,Win32,60,0.152777793,-0.397222236,1,0,0,1.04906,scale,,,,,,0.174513954,0.141421356,0.349027907,0.282842712,stimuli/lakes/204042_left.png,stimuli/lakes/204042_right.png,,,,0,100,100,42,1,,,,,
,,,,,,$5ea95e2f2e7de903e2a9c78f,2020-07-21_15h47.17.599,fisher_task,2020.1.3,Win32,60,-0.007407338,-0.24722229,1,0,0,2.13229,scale,,,,,,0.302267034,0.244948974,0.2468,0.2,stimuli/lakes/604055_left.png,stimuli/lakes/604055_right.png,,,,0,101,101,55,1,,,,,
,,,,,,$5ea95e2f2e7de903e2a9c78f,2020-07-21_15h47.17.599,fisher_task,2020.1.3,Win32,60,0.102777793,-0.269444456,1,0,0,1.69944,scale,,,,,,0.275930788,0.223606798,0.275930788,0.223606798,stimuli/lakes/503036_left.png,stimuli/lakes/503036_right.png,,,,0,102,102,36,1,,,,,
,,,,,,$5ea95e2f2e7de903e2a9c78f,2020-07-21_15h47.17.599,fisher_task,2020.1.3,Win32,60,0.153703719,-0.371296309,1,0,0,1.416615,scale,,,,,,0.21373507,0.173205081,0.326485712,0.264575131,stimuli/lakes/302013_left.png,stimuli/lakes/302013_right.png,,,,0,103,103,13,1,,,,,
,,,,,,$5ea95e2f2e7de903e2a9c78f,2020-07-21_15h47.17.599,fisher_task,2020.1.3,Win32,60,-0.142592581,-0.328703716,1,0,0,1.86582,scale,,,,,,0.2468,0.2,0.302267034,0.244948974,stimuli/lakes/406074_left.png,stimuli/lakes/406074_right.png,,,,0,104,104,74,1,,,,,
,,,,,,$5ea95e2f2e7de903e2a9c78f,2020-07-21_15h47.17.599,fisher_task,2020.1.3,Win32,60,0.018518532,-0.230555566,1,0,0,1.465795,scale,,,,,,0.3702,0.3,0.1234,0.1,stimuli/lakes/903040_left.png,stimuli/lakes/903040_right.png,,,,0,105,105,40,1,,,,,
,,,,,,$5ea95e2f2e7de903e2a9c78f,2020-07-21_15h47.17.599,fisher_task,2020.1.3,Win32,60,0.050000014,-0.253703715,1,0,0,4.298395,scale,,,,,,0.275930788,0.223606798,0.275930788,0.223606798,stimuli/lakes/50104_left.png,stimuli/lakes/50104_right.png,,,,0,106,106,4,1,,,,,
,,,,,,$5ea95e2f2e7de903e2a9c78f,2020-07-21_15h47.17.599,fisher_task,2020.1.3,Win32,60,0.115740756,-0.312962975,1,0,0,3.69939,scale,,,,,,0.275930788,0.223606798,0.275930788,0.223606798,stimuli/lakes/503027_left.png,stimuli/lakes/503027_right.png,,,,0,107,107,27,1,,,,,
,,,,,,$5ea95e2f2e7de903e2a9c78f,2020-07-21_15h47.17.599,fisher_task,2020.1.3,Win32,60,0.009259273,-0.237037048,1,0,0,2.249435,scale,,,,,,0.174513954,0.141421356,0.349027907,0.282842712,stimuli/lakes/2090120_left.png,stimuli/lakes/2090120_right.png,,,,0,108,108,120,1,,,,,
,,,,,,$5ea95e2f2e7de903e2a9c78f,2020-07-21_15h47.17.599,fisher_task,2020.1.3,Win32,60,0.146296312,-0.311111123,1,0,0,1.149605,scale,,,,,,0.21373507,0.173205081,0.326485712,0.264575131,stimuli/lakes/305062_left.png,stimuli/lakes/305062_right.png,,,,0,109,109,62,1,,,,,
,,,,,,$5ea95e2f2e7de903e2a9c78f,2020-07-21_15h47.17.599,fisher_task,2020.1.3,Win32,60,0.073148162,-0.257407419,1,0,0,2.465995,scale,,,,,,0.174513954,0.141421356,0.349027907,0.282842712,stimuli/lakes/207099_left.png,stimuli/lakes/207099_right.png,,,space,0,110,110,99,1,10.481905,,,,
,,,,,,$5ea95e2f2e7de903e2a9c78f,2020-07-21_15h47.17.599,fisher_task,2020.1.3,Win32,60,-0.1361111,-0.301851864,1,0,0,1.432335,scale,,,,,,0.275930788,0.223606798,0.275930788,0.223606798,stimuli/lakes/5080113_left.png,stimuli/lakes/5080113_right.png,,,,0,111,111,113,1,,,,,
,,,,,,$5ea95e2f2e7de903e2a9c78f,2020-07-21_15h47.17.599,fisher_task,2020.1.3,Win32,60,0.014814828,-0.252777789,1,0,0,3.199375,scale,,,,,,0.1234,0.1,0.3702,0.3,stimuli/lakes/1080107_left.png,stimuli/lakes/1080107_right.png,,,,0,112,112,107,1,,,,,
,,,,,,$5ea95e2f2e7de903e2a9c78f,2020-07-21_15h47.17.599,fisher_task,2020.1.3,Win32,60,-0.162037026,-0.383333346,1,0,0,1.316255,scale,,,,,,0.349027907,0.282842712,0.174513954,0.141421356,stimuli/lakes/806087_left.png,stimuli/lakes/806087_right.png,,,,0,113,113,87,1,,,,,
,,,,,,$5ea95e2f2e7de903e2a9c78f,2020-07-21_15h47.17.599,fisher_task,2020.1.3,Win32,60,0.007407421,-0.24259266,1,0,0,1.28281,scale,,,,,,0.326485712,0.264575131,0.21373507,0.173205081,stimuli/lakes/70108_left.png,stimuli/lakes/70108_right.png,,,,0,114,114,8,1,,,,,
,,,,,,$5ea95e2f2e7de903e2a9c78f,2020-07-21_15h47.17.599,fisher_task,2020.1.3,Win32,60,-0.091666655,-0.282407419,1,0,0,2.465465,scale,,,,,,0.21373507,0.173205081,0.326485712,0.264575131,stimuli/lakes/3070100_left.png,stimuli/lakes/3070100_right.png,,,,0,115,115,100,1,,,,,
,,,,,,$5ea95e2f2e7de903e2a9c78f,2020-07-21_15h47.17.599,fisher_task,2020.1.3,Win32,60,0.011111181,-0.231481492,1,0,0,3.38295,scale,,,,,,0.302267034,0.244948974,0.2468,0.2,stimuli/lakes/605065_left.png,stimuli/lakes/605065_right.png,,,,0,116,116,65,1,,,,,
,,,,,,$5ea95e2f2e7de903e2a9c78f,2020-07-21_15h47.17.599,fisher_task,2020.1.3,Win32,60,-0.156481471,-0.341666679,1,0,0,1.26575,scale,,,,,,0.302267034,0.244948974,0.2468,0.2,stimuli/lakes/6090126_left.png,stimuli/lakes/6090126_right.png,,,,0,117,117,126,1,,,,,
,,,,,,$5ea95e2f2e7de903e2a9c78f,2020-07-21_15h47.17.599,fisher_task,2020.1.3,Win32,60,0.13981483,-0.307407476,1,0,0,1.28239,scale,,,,,,0.2468,0.2,0.302267034,0.244948974,stimuli/lakes/405064_left.png,stimuli/lakes/405064_right.png,,,,0,118,118,64,1,,,,,
,,,,,,$5ea95e2f2e7de903e2a9c78f,2020-07-21_15h47.17.599,fisher_task,2020.1.3,Win32,60,0.140740756,-0.322222234,1,0,0,1.782705,scale,,,,,,0.326485712,0.264575131,0.21373507,0.173205081,stimuli/lakes/702020_left.png,stimuli/lakes/702020_right.png,,,,0,119,119,20,1,,,,,
,,,,,,$5ea95e2f2e7de903e2a9c78f,2020-07-21_15h47.17.599,fisher_task,2020.1.3,Win32,60,0.060185199,-0.239814826,1,0,0,1.94955,scale,,,,,,0.2468,0.2,0.302267034,0.244948974,stimuli/lakes/402015_left.png,stimuli/lakes/402015_right.png,,,,0,120,120,15,1,,,,,
,,,,,,$5ea95e2f2e7de903e2a9c78f,2020-07-21_15h47.17.599,fisher_task,2020.1.3,Win32,60,-0.010185172,-0.225925937,1,0,0,1.099225,scale,,,,,,0.2468,0.2,0.302267034,0.244948974,stimuli/lakes/4080112_left.png,stimuli/lakes/4080112_right.png,,,,0,121,121,112,1,,,,,
,,,,,,$5ea95e2f2e7de903e2a9c78f,2020-07-21_15h47.17.599,fisher_task,2020.1.3,Win32,60,0.125000015,-0.309259271,1,0,0,1.16629,scale,,,,,,0.2468,0.2,0.302267034,0.244948974,stimuli/lakes/403035_left.png,stimuli/lakes/403035_right.png,,,,0,122,122,35,1,,,,,
,,,,,,$5ea95e2f2e7de903e2a9c78f,2020-07-21_15h47.17.599,fisher_task,2020.1.3,Win32,60,0.179629646,-0.427777848,1,0,0,1.0992,scale,,,,,,0.174513954,0.141421356,0.349027907,0.282842712,stimuli/lakes/203024_left.png,stimuli/lakes/203024_right.png,,,,0,123,123,24,1,,,,,
,,,,,,$5ea95e2f2e7de903e2a9c78f,2020-07-21_15h47.17.599,fisher_task,2020.1.3,Win32,60,0.127777793,-0.312037106,1,0,0,1.716115,scale,,,,,,0.21373507,0.173205081,0.326485712,0.264575131,stimuli/lakes/306073_left.png,stimuli/lakes/306073_right.png,,,,0,124,124,73,1,,,,,
,,,,,,$5ea95e2f2e7de903e2a9c78f,2020-07-21_15h47.17.599,fisher_task,2020.1.3,Win32,60,0.170370386,-0.394444458,1,0,0,1.249655,scale,,,,,,0.1234,0.1,0.3702,0.3,stimuli/lakes/103023_left.png,stimuli/lakes/103023_right.png,,,,0,125,125,23,1,,,,,
,,,,,,$5ea95e2f2e7de903e2a9c78f,2020-07-21_15h47.17.599,fisher_task,2020.1.3,Win32,60,-0.025925857,-0.241666678,1,0,0,2.88255,scale,,,,,,0.1234,0.1,0.3702,0.3,stimuli/lakes/106071_left.png,stimuli/lakes/106071_right.png,,,,0,126,126,71,1,,,,,
,,,,,,$5ea95e2f2e7de903e2a9c78f,2020-07-21_15h47.17.599,fisher_task,2020.1.3,Win32,60,0.010185199,-0.240740752,1,0,0,2.049625,scale,,,,,,0.302267034,0.244948974,0.2468,0.2,stimuli/lakes/60106_left.png,stimuli/lakes/60106_right.png,,,,0,127,127,6,1,,,,,
,,,,,,$5ea95e2f2e7de903e2a9c78f,2020-07-21_15h47.17.599,fisher_task,2020.1.3,Win32,60,0.086111126,-0.26851853,1,0,0,2.2328,scale,,,,,,0.349027907,0.282842712,0.174513954,0.141421356,stimuli/lakes/804048_left.png,stimuli/lakes/804048_right.png,,,,0,128,128,48,1,,,,,
,,,,,,$5ea95e2f2e7de903e2a9c78f,2020-07-21_15h47.17.599,fisher_task,2020.1.3,Win32,60,-0.099999932,-0.310185197,1,0,0,1.899275,scale,,,,,,0.326485712,0.264575131,0.21373507,0.173205081,stimuli/lakes/705067_left.png,stimuli/lakes/705067_right.png,,,,0,129,129,67,1,,,,,
,,,,,,$5ea95e2f2e7de903e2a9c78f,2020-07-21_15h47.17.599,fisher_task,2020.1.3,Win32,60,,,,,,,,,,,,,,,,,,,,,,,,,,,,space,5.213965,space,27.166845
