keySpace.keys,instructions.thisRepN,instructions.thisTrialN,instructions.thisN,instructions.thisIndex,instructions.ran,participant,date,expName,psychopyVersion,OS,frameRate,mouse.x,mouse.y,mouse.leftButton,mouse.midButton,mouse.rightButton,mouse.time,mouse.clicked_name,training.thisRepN,training.thisTrialN,training.thisN,training.thisIndex,training.ran,widthBasketLeft,heightBasketLeft,widthBasketRight,heightBasketRight,leftLake,rightLake,space2.keys,space2.rt,space1.keys,trials.thisRepN,trials.thisTrialN,trials.thisN,trials.thisIndex,trials.ran,space1.rt,finalSpace1.keys,finalSpace1.rt,finalSpace2.keys,finalSpace2.rt
,0,0,0,0,1,$5ead79a0f43b4441309657c9,2020-07-21_16h49.49.042,fisher_task,2020.1.3,Win32,60,,,,,,,,,,,,,,,,,,,,,,,,,,,,,,,
,,,,,,$5ead79a0f43b4441309657c9,2020-07-21_16h49.49.042,fisher_task,2020.1.3,Win32,60,0.162037037,-0.394444444,1,0,0,3.399595,scale,0,0,0,0,1,0.275930788,0.223606798,0.275930788,0.223606798,stimuli/training/20_left.png,stimuli/training/20_right.png,,,,,,,,,,,,,
,,,,,,$5ead79a0f43b4441309657c9,2020-07-21_16h49.49.042,fisher_task,2020.1.3,Win32,60,-0.143518519,-0.360185185,1,0,0,1.433255,scale,0,1,1,1,1,0.275930788,0.223606798,0.275930788,0.223606798,stimuli/training/80_left.png,stimuli/training/80_right.png,,,,,,,,,,,,,
,,,,,,$5ead79a0f43b4441309657c9,2020-07-21_16h49.49.042,fisher_task,2020.1.3,Win32,60,0.175,-0.336111111,1,0,0,2.64943,scale,0,2,2,2,1,0.174513954,0.141421356,0.349027907,0.282842712,stimuli/training/50_left.png,stimuli/training/50_right.png,,,,,,,,,,,,,
,,,,,,$5ead79a0f43b4441309657c9,2020-07-21_16h49.49.042,fisher_task,2020.1.3,Win32,60,-0.139814815,-0.343518519,1,0,0,3.04964,scale,0,3,3,3,1,0.349027907,0.282842712,0.174513954,0.141421356,stimuli/training/50_left.png,stimuli/training/50_right.png,,,,,,,,,,,,,
,,,,,,$5ead79a0f43b4441309657c9,2020-07-21_16h49.49.042,fisher_task,2020.1.3,Win32,60,0.184259259,-0.355555556,1,0,0,2.7828,scale,0,4,4,4,1,0.275930788,0.223606798,0.275930788,0.223606798,stimuli/training/50_left.png,stimuli/training/50_right.png,,,,,,,,,,,,,
,,,,,,$5ead79a0f43b4441309657c9,2020-07-21_16h49.49.042,fisher_task,2020.1.3,Win32,60,0.178703704,-0.431481481,1,0,0,1.683,scale,0,5,5,5,1,0.174513954,0.141421356,0.349027907,0.282842712,stimuli/training/20_left.png,stimuli/training/20_right.png,,,,,,,,,,,,,
,,,,,,$5ead79a0f43b4441309657c9,2020-07-21_16h49.49.042,fisher_task,2020.1.3,Win32,60,-0.136111111,-0.437962963,1,0,0,1.54932,scale,0,6,6,6,1,0.349027907,0.282842712,0.174513954,0.141421356,stimuli/training/80_left.png,stimuli/training/80_right.png,,,,,,,,,,,,,
,,,,,,$5ead79a0f43b4441309657c9,2020-07-21_16h49.49.042,fisher_task,2020.1.3,Win32,60,0.175,-0.425925926,1,0,0,1.666715,scale,0,7,7,7,1,0.1234,0.1,0.3702,0.3,stimuli/training/30_left.png,stimuli/training/30_right.png,,,,,,,,,,,,,
,,,,,,$5ead79a0f43b4441309657c9,2020-07-21_16h49.49.042,fisher_task,2020.1.3,Win32,60,-0.161111111,-0.440740741,1,0,0,1.616195,scale,0,8,8,8,1,0.3702,0.3,0.1234,0.1,stimuli/training/70_left.png,stimuli/training/70_right.png,,,,,,,,,,,,,
,,,,,,$5ead79a0f43b4441309657c9,2020-07-21_16h49.49.042,fisher_task,2020.1.3,Win32,60,-0.155555556,-0.431481481,1,0,0,1.332635,scale,0,9,9,9,1,0.326485712,0.264575131,0.21373507,0.173205081,stimuli/training/90_left.png,stimuli/training/90_right.png,,,,,,,,,,,,,
,,,,,,$5ead79a0f43b4441309657c9,2020-07-21_16h49.49.042,fisher_task,2020.1.3,Win32,60,0.15462963,-0.433333333,1,0,0,1.115845,scale,0,10,10,10,1,0.21373507,0.173205081,0.326485712,0.264575131,stimuli/training/10_left.png,stimuli/training/10_right.png,,,,,,,,,,,,,
,,,,,,$5ead79a0f43b4441309657c9,2020-07-21_16h49.49.042,fisher_task,2020.1.3,Win32,60,0.17037037,-0.406481481,1,0,0,1.38412,scale,,,,,,0.1234,0.1,0.3702,0.3,stimuli/lakes/103023_left.png,stimuli/lakes/103023_right.png,space,17.652405,,0,0,0,23,1,,,,,
,,,,,,$5ead79a0f43b4441309657c9,2020-07-21_16h49.49.042,fisher_task,2020.1.3,Win32,60,-0.000925926,-0.248148148,1,0,0,2.016005,scale,,,,,,0.326485712,0.264575131,0.21373507,0.173205081,stimuli/lakes/702020_left.png,stimuli/lakes/702020_right.png,,,,0,1,1,20,1,,,,,
,,,,,,$5ead79a0f43b4441309657c9,2020-07-21_16h49.49.042,fisher_task,2020.1.3,Win32,60,0.177777778,-0.416666667,1,0,0,1.482745,scale,,,,,,0.174513954,0.141421356,0.349027907,0.282842712,stimuli/lakes/203033_left.png,stimuli/lakes/203033_right.png,,,,0,2,2,33,1,,,,,
,,,,,,$5ead79a0f43b4441309657c9,2020-07-21_16h49.49.042,fisher_task,2020.1.3,Win32,60,0.162962963,-0.311111111,1,0,0,1.482385,scale,,,,,,0.1234,0.1,0.3702,0.3,stimuli/lakes/106080_left.png,stimuli/lakes/106080_right.png,,,,0,3,3,80,1,,,,,
,,,,,,$5ead79a0f43b4441309657c9,2020-07-21_16h49.49.042,fisher_task,2020.1.3,Win32,60,0.016666667,-0.232407407,1,0,0,4.06633,scale,,,,,,0.3702,0.3,0.1234,0.1,stimuli/lakes/906079_left.png,stimuli/lakes/906079_right.png,,,,0,4,4,79,1,,,,,
,,,,,,$5ead79a0f43b4441309657c9,2020-07-21_16h49.49.042,fisher_task,2020.1.3,Win32,60,-0.142592593,-0.311111111,1,0,0,2.216445,scale,,,,,,0.349027907,0.282842712,0.174513954,0.141421356,stimuli/lakes/805069_left.png,stimuli/lakes/805069_right.png,,,,0,5,5,69,1,,,,,
,,,,,,$5ead79a0f43b4441309657c9,2020-07-21_16h49.49.042,fisher_task,2020.1.3,Win32,60,-0.015740741,-0.226851852,1,0,0,2.066345,scale,,,,,,0.21373507,0.173205081,0.326485712,0.264575131,stimuli/lakes/3080109_left.png,stimuli/lakes/3080109_right.png,,,,0,6,6,109,1,,,,,
,,,,,,$5ead79a0f43b4441309657c9,2020-07-21_16h49.49.042,fisher_task,2020.1.3,Win32,60,-0.173148148,-0.432407407,1,0,0,1.74985,scale,,,,,,0.302267034,0.244948974,0.2468,0.2,stimuli/lakes/6070103_left.png,stimuli/lakes/6070103_right.png,,,,0,7,7,103,1,,,,,
,,,,,,$5ead79a0f43b4441309657c9,2020-07-21_16h49.49.042,fisher_task,2020.1.3,Win32,60,0.17037037,-0.432407407,1,0,0,1.083145,scale,,,,,,0.21373507,0.173205081,0.326485712,0.264575131,stimuli/lakes/303034_left.png,stimuli/lakes/303034_right.png,,,,0,8,8,34,1,,,,,
,,,,,,$5ead79a0f43b4441309657c9,2020-07-21_16h49.49.042,fisher_task,2020.1.3,Win32,60,0.143518519,-0.310185185,1,0,0,1.166175,scale,,,,,,0.1234,0.1,0.3702,0.3,stimuli/lakes/107098_left.png,stimuli/lakes/107098_right.png,,,,0,9,9,98,1,,,,,
,,,,,,$5ead79a0f43b4441309657c9,2020-07-21_16h49.49.042,fisher_task,2020.1.3,Win32,60,-0.001851852,-0.258333333,1,0,0,1.89977,scale,,,,,,0.21373507,0.173205081,0.326485712,0.264575131,stimuli/lakes/307091_left.png,stimuli/lakes/307091_right.png,,,,0,10,10,91,1,,,,,
,,,,,,$5ead79a0f43b4441309657c9,2020-07-21_16h49.49.042,fisher_task,2020.1.3,Win32,60,0.166666667,-0.326851852,1,0,0,2.199885,scale,,,,,,0.2468,0.2,0.302267034,0.244948974,stimuli/lakes/404044_left.png,stimuli/lakes/404044_right.png,,,,0,11,11,44,1,,,,,
,,,,,,$5ead79a0f43b4441309657c9,2020-07-21_16h49.49.042,fisher_task,2020.1.3,Win32,60,-0.146296296,-0.35,1,0,0,1.46656,scale,,,,,,0.302267034,0.244948974,0.2468,0.2,stimuli/lakes/605065_left.png,stimuli/lakes/605065_right.png,,,,0,12,12,65,1,,,,,
,,,,,,$5ead79a0f43b4441309657c9,2020-07-21_16h49.49.042,fisher_task,2020.1.3,Win32,60,0.15,-0.42962963,1,0,0,1.76655,scale,,,,,,0.1234,0.1,0.3702,0.3,stimuli/lakes/103032_left.png,stimuli/lakes/103032_right.png,,,,0,13,13,32,1,,,,,
,,,,,,$5ead79a0f43b4441309657c9,2020-07-21_16h49.49.042,fisher_task,2020.1.3,Win32,60,-0.169444444,-0.434259259,1,0,0,1.16624,scale,,,,,,0.326485712,0.264575131,0.21373507,0.173205081,stimuli/lakes/707095_left.png,stimuli/lakes/707095_right.png,,,,0,14,14,95,1,,,,,
,,,,,,$5ead79a0f43b4441309657c9,2020-07-21_16h49.49.042,fisher_task,2020.1.3,Win32,60,-0.140740741,-0.37962963,1,0,0,1.282845,scale,,,,,,0.326485712,0.264575131,0.21373507,0.173205081,stimuli/lakes/706086_left.png,stimuli/lakes/706086_right.png,,,,0,15,15,86,1,,,,,
,,,,,,$5ead79a0f43b4441309657c9,2020-07-21_16h49.49.042,fisher_task,2020.1.3,Win32,60,0.161111111,-0.436111111,1,0,0,1.333195,scale,,,,,,0.2468,0.2,0.302267034,0.244948974,stimuli/lakes/402014_left.png,stimuli/lakes/402014_right.png,,,,0,16,16,14,1,,,,,
,,,,,,$5ead79a0f43b4441309657c9,2020-07-21_16h49.49.042,fisher_task,2020.1.3,Win32,60,-0.136111111,-0.363888889,1,0,0,1.566305,scale,,,,,,0.302267034,0.244948974,0.2468,0.2,stimuli/lakes/606085_left.png,stimuli/lakes/606085_right.png,,,,0,17,17,85,1,,,,,
,,,,,,$5ead79a0f43b4441309657c9,2020-07-21_16h49.49.042,fisher_task,2020.1.3,Win32,60,0.135185185,-0.434259259,1,0,0,1.41645,scale,,,,,,0.2468,0.2,0.302267034,0.244948974,stimuli/lakes/40102_left.png,stimuli/lakes/40102_right.png,,,,0,18,18,2,1,,,,,
,,,,,,$5ead79a0f43b4441309657c9,2020-07-21_16h49.49.042,fisher_task,2020.1.3,Win32,60,-0.012037037,-0.244444444,1,0,0,1.599755,scale,,,,,,0.174513954,0.141421356,0.349027907,0.282842712,stimuli/lakes/207099_left.png,stimuli/lakes/207099_right.png,,,,0,19,19,99,1,,,,,
,,,,,,$5ead79a0f43b4441309657c9,2020-07-21_16h49.49.042,fisher_task,2020.1.3,Win32,60,-0.103703704,-0.296296296,1,0,0,2.466215,scale,,,,,,0.326485712,0.264575131,0.21373507,0.173205081,stimuli/lakes/704056_left.png,stimuli/lakes/704056_right.png,,,,0,20,20,56,1,,,,,
,,,,,,$5ead79a0f43b4441309657c9,2020-07-21_16h49.49.042,fisher_task,2020.1.3,Win32,60,0.148148148,-0.323148148,1,0,0,1.599665,scale,,,,,,0.21373507,0.173205081,0.326485712,0.264575131,stimuli/lakes/305062_left.png,stimuli/lakes/305062_right.png,,,,0,21,21,62,1,,,,,
,,,,,,$5ead79a0f43b4441309657c9,2020-07-21_16h49.49.042,fisher_task,2020.1.3,Win32,60,-0.15,-0.436111111,1,0,0,1.166575,scale,,,,,,0.302267034,0.244948974,0.2468,0.2,stimuli/lakes/6090126_left.png,stimuli/lakes/6090126_right.png,,,space,0,22,22,126,1,12.12502,,,,
,,,,,,$5ead79a0f43b4441309657c9,2020-07-21_16h49.49.042,fisher_task,2020.1.3,Win32,60,-0.097222222,-0.300925926,1,0,0,1.216355,scale,,,,,,0.302267034,0.244948974,0.2468,0.2,stimuli/lakes/605066_left.png,stimuli/lakes/605066_right.png,,,,0,23,23,66,1,,,,,
,,,,,,$5ead79a0f43b4441309657c9,2020-07-21_16h49.49.042,fisher_task,2020.1.3,Win32,60,-0.005555556,-0.262962963,1,0,0,1.183195,scale,,,,,,0.326485712,0.264575131,0.21373507,0.173205081,stimuli/lakes/703029_left.png,stimuli/lakes/703029_right.png,,,,0,24,24,29,1,,,,,
,,,,,,$5ead79a0f43b4441309657c9,2020-07-21_16h49.49.042,fisher_task,2020.1.3,Win32,60,0.15,-0.334259259,1,0,0,1.333475,scale,,,,,,0.1234,0.1,0.3702,0.3,stimuli/lakes/106071_left.png,stimuli/lakes/106071_right.png,,,,0,25,25,71,1,,,,,
,,,,,,$5ead79a0f43b4441309657c9,2020-07-21_16h49.49.042,fisher_task,2020.1.3,Win32,60,-0.121296296,-0.293518519,1,0,0,1.39994,scale,,,,,,0.326485712,0.264575131,0.21373507,0.173205081,stimuli/lakes/703038_left.png,stimuli/lakes/703038_right.png,,,,0,26,26,38,1,,,,,
,,,,,,$5ead79a0f43b4441309657c9,2020-07-21_16h49.49.042,fisher_task,2020.1.3,Win32,60,0.168518519,-0.437037037,1,0,0,1.466525,scale,,,,,,0.21373507,0.173205081,0.326485712,0.264575131,stimuli/lakes/303025_left.png,stimuli/lakes/303025_right.png,,,,0,27,27,25,1,,,,,
,,,,,,$5ead79a0f43b4441309657c9,2020-07-21_16h49.49.042,fisher_task,2020.1.3,Win32,60,-0.146296296,-0.427777778,1,0,0,1.133075,scale,,,,,,0.349027907,0.282842712,0.174513954,0.141421356,stimuli/lakes/8080118_left.png,stimuli/lakes/8080118_right.png,,,,0,28,28,118,1,,,,,
,,,,,,$5ead79a0f43b4441309657c9,2020-07-21_16h49.49.042,fisher_task,2020.1.3,Win32,60,-0.143518519,-0.431481481,1,0,0,0.766405,scale,,,,,,0.326485712,0.264575131,0.21373507,0.173205081,stimuli/lakes/7090129_left.png,stimuli/lakes/7090129_right.png,,,,0,29,29,129,1,,,,,
,,,,,,$5ead79a0f43b4441309657c9,2020-07-21_16h49.49.042,fisher_task,2020.1.3,Win32,60,0.098148148,-0.283333333,1,0,0,1.433315,scale,,,,,,0.1234,0.1,0.3702,0.3,stimuli/lakes/107089_left.png,stimuli/lakes/107089_right.png,,,,0,30,30,89,1,,,,,
,,,,,,$5ead79a0f43b4441309657c9,2020-07-21_16h49.49.042,fisher_task,2020.1.3,Win32,60,-0.144444444,-0.431481481,1,0,0,1.299925,scale,,,,,,0.302267034,0.244948974,0.2468,0.2,stimuli/lakes/6080114_left.png,stimuli/lakes/6080114_right.png,,,,0,31,31,114,1,,,,,
,,,,,,$5ead79a0f43b4441309657c9,2020-07-21_16h49.49.042,fisher_task,2020.1.3,Win32,60,-0.143518519,-0.383333333,1,0,0,1.11625,scale,,,,,,0.349027907,0.282842712,0.174513954,0.141421356,stimuli/lakes/806078_left.png,stimuli/lakes/806078_right.png,,,,0,32,32,78,1,,,,,
,,,,,,$5ead79a0f43b4441309657c9,2020-07-21_16h49.49.042,fisher_task,2020.1.3,Win32,60,-0.002777778,-0.256481481,1,0,0,2.79983,scale,,,,,,0.326485712,0.264575131,0.21373507,0.173205081,stimuli/lakes/70107_left.png,stimuli/lakes/70107_right.png,,,,0,33,33,7,1,,,,,
,,,,,,$5ead79a0f43b4441309657c9,2020-07-21_16h49.49.042,fisher_task,2020.1.3,Win32,60,0.010185185,-0.22962963,1,0,0,1.7332,scale,,,,,,0.1234,0.1,0.3702,0.3,stimuli/lakes/1090119_left.png,stimuli/lakes/1090119_right.png,,,,0,34,34,119,1,,,,,
,,,,,,$5ead79a0f43b4441309657c9,2020-07-21_16h49.49.042,fisher_task,2020.1.3,Win32,60,0.087962963,-0.252777778,1,0,0,3.933215,scale,,,,,,0.2468,0.2,0.302267034,0.244948974,stimuli/lakes/4070101_left.png,stimuli/lakes/4070101_right.png,,,,0,35,35,101,1,,,,,
,,,,,,$5ead79a0f43b4441309657c9,2020-07-21_16h49.49.042,fisher_task,2020.1.3,Win32,60,-0.14537037,-0.319444444,1,0,0,1.3995,scale,,,,,,0.3702,0.3,0.1234,0.1,stimuli/lakes/904058_left.png,stimuli/lakes/904058_right.png,,,,0,36,36,58,1,,,,,
,,,,,,$5ead79a0f43b4441309657c9,2020-07-21_16h49.49.042,fisher_task,2020.1.3,Win32,60,-0.012962963,-0.239814815,1,0,0,1.233135,scale,,,,,,0.349027907,0.282842712,0.174513954,0.141421356,stimuli/lakes/80109_left.png,stimuli/lakes/80109_right.png,,,,0,37,37,9,1,,,,,
,,,,,,$5ead79a0f43b4441309657c9,2020-07-21_16h49.49.042,fisher_task,2020.1.3,Win32,60,0.163888889,-0.325925926,1,0,0,1.766535,scale,,,,,,0.2468,0.2,0.302267034,0.244948974,stimuli/lakes/406074_left.png,stimuli/lakes/406074_right.png,,,,0,38,38,74,1,,,,,
,,,,,,$5ead79a0f43b4441309657c9,2020-07-21_16h49.49.042,fisher_task,2020.1.3,Win32,60,0.148148148,-0.344444444,1,0,0,1.199895,scale,,,,,,0.174513954,0.141421356,0.349027907,0.282842712,stimuli/lakes/204051_left.png,stimuli/lakes/204051_right.png,,,,0,39,39,51,1,,,,,
,,,,,,$5ead79a0f43b4441309657c9,2020-07-21_16h49.49.042,fisher_task,2020.1.3,Win32,60,0.151851852,-0.356481481,1,0,0,0.99994,scale,,,,,,0.1234,0.1,0.3702,0.3,stimuli/lakes/104041_left.png,stimuli/lakes/104041_right.png,,,,0,40,40,41,1,,,,,
,,,,,,$5ead79a0f43b4441309657c9,2020-07-21_16h49.49.042,fisher_task,2020.1.3,Win32,60,-0.008333333,-0.275925926,1,0,0,1.466485,scale,,,,,,0.349027907,0.282842712,0.174513954,0.141421356,stimuli/lakes/802021_left.png,stimuli/lakes/802021_right.png,,,,0,41,41,21,1,,,,,
,,,,,,$5ead79a0f43b4441309657c9,2020-07-21_16h49.49.042,fisher_task,2020.1.3,Win32,60,-0.143518519,-0.45,1,0,0,1.66648,scale,,,,,,0.349027907,0.282842712,0.174513954,0.141421356,stimuli/lakes/8070105_left.png,stimuli/lakes/8070105_right.png,,,,0,42,42,105,1,,,,,
,,,,,,$5ead79a0f43b4441309657c9,2020-07-21_16h49.49.042,fisher_task,2020.1.3,Win32,60,0.071296296,-0.256481481,1,0,0,2.115965,scale,,,,,,0.174513954,0.141421356,0.349027907,0.282842712,stimuli/lakes/2080108_left.png,stimuli/lakes/2080108_right.png,,,,0,43,43,108,1,,,,,
,,,,,,$5ead79a0f43b4441309657c9,2020-07-21_16h49.49.042,fisher_task,2020.1.3,Win32,60,0.172222222,-0.355555556,1,0,0,1.84985,scale,,,,,,0.275930788,0.223606798,0.275930788,0.223606798,stimuli/lakes/502016_left.png,stimuli/lakes/502016_right.png,,,space,0,44,44,16,1,2.810375,,,,
,,,,,,$5ead79a0f43b4441309657c9,2020-07-21_16h49.49.042,fisher_task,2020.1.3,Win32,60,-0.138888889,-0.444444444,1,0,0,1.06617,scale,,,,,,0.326485712,0.264575131,0.21373507,0.173205081,stimuli/lakes/7080116_left.png,stimuli/lakes/7080116_right.png,,,,0,45,45,116,1,,,,,
,,,,,,$5ead79a0f43b4441309657c9,2020-07-21_16h49.49.042,fisher_task,2020.1.3,Win32,60,-0.066666667,-0.351851852,1,0,0,0.633535,scale,,,,,,0.326485712,0.264575131,0.21373507,0.173205081,stimuli/lakes/706077_left.png,stimuli/lakes/706077_right.png,,,,0,46,46,77,1,,,,,
,,,,,,$5ead79a0f43b4441309657c9,2020-07-21_16h49.49.042,fisher_task,2020.1.3,Win32,60,-0.063888889,-0.265740741,1,0,0,0.966405,scale,,,,,,0.302267034,0.244948974,0.2468,0.2,stimuli/lakes/602017_left.png,stimuli/lakes/602017_right.png,,,,0,47,47,17,1,,,,,
,,,,,,$5ead79a0f43b4441309657c9,2020-07-21_16h49.49.042,fisher_task,2020.1.3,Win32,60,0.019444444,-0.206481481,1,0,0,1.300005,scale,,,,,,0.326485712,0.264575131,0.21373507,0.173205081,stimuli/lakes/70108_left.png,stimuli/lakes/70108_right.png,,,,0,48,48,8,1,,,,,
,,,,,,$5ead79a0f43b4441309657c9,2020-07-21_16h49.49.042,fisher_task,2020.1.3,Win32,60,-0.089814815,-0.272222222,1,0,0,1.816405,scale,,,,,,0.3702,0.3,0.1234,0.1,stimuli/lakes/903031_left.png,stimuli/lakes/903031_right.png,,,,0,49,49,31,1,,,,,
,,,,,,$5ead79a0f43b4441309657c9,2020-07-21_16h49.49.042,fisher_task,2020.1.3,Win32,60,0.17037037,-0.384259259,1,0,0,1.749795,scale,,,,,,0.1234,0.1,0.3702,0.3,stimuli/lakes/105059_left.png,stimuli/lakes/105059_right.png,,,,0,50,50,59,1,,,,,
,,,,,,$5ead79a0f43b4441309657c9,2020-07-21_16h49.49.042,fisher_task,2020.1.3,Win32,60,-0.124074074,-0.300925926,1,0,0,1.63274,scale,,,,,,0.302267034,0.244948974,0.2468,0.2,stimuli/lakes/604046_left.png,stimuli/lakes/604046_right.png,,,,0,51,51,46,1,,,,,
,,,,,,$5ead79a0f43b4441309657c9,2020-07-21_16h49.49.042,fisher_task,2020.1.3,Win32,60,-0.060185185,-0.252777778,1,0,0,1.649875,scale,,,,,,0.326485712,0.264575131,0.21373507,0.173205081,stimuli/lakes/702019_left.png,stimuli/lakes/702019_right.png,,,,0,52,52,19,1,,,,,
,,,,,,$5ead79a0f43b4441309657c9,2020-07-21_16h49.49.042,fisher_task,2020.1.3,Win32,60,-0.15,-0.330555556,1,0,0,1.49983,scale,,,,,,0.302267034,0.244948974,0.2468,0.2,stimuli/lakes/607094_left.png,stimuli/lakes/607094_right.png,,,,0,53,53,94,1,,,,,
,,,,,,$5ead79a0f43b4441309657c9,2020-07-21_16h49.49.042,fisher_task,2020.1.3,Win32,60,0.175925926,-0.288888889,1,0,0,1.683155,scale,,,,,,0.21373507,0.173205081,0.326485712,0.264575131,stimuli/lakes/305061_left.png,stimuli/lakes/305061_right.png,,,,0,54,54,61,1,,,,,
,,,,,,$5ead79a0f43b4441309657c9,2020-07-21_16h49.49.042,fisher_task,2020.1.3,Win32,60,-0.143518519,-0.353703704,1,0,0,2.949865,scale,,,,,,0.21373507,0.173205081,0.326485712,0.264575131,stimuli/lakes/3090121_left.png,stimuli/lakes/3090121_right.png,,,,0,55,55,121,1,,,,,
,,,,,,$5ead79a0f43b4441309657c9,2020-07-21_16h49.49.042,fisher_task,2020.1.3,Win32,60,0.010185185,-0.240740741,1,0,0,2.41646,scale,,,,,,0.275930788,0.223606798,0.275930788,0.223606798,stimuli/lakes/504054_left.png,stimuli/lakes/504054_right.png,,,,0,56,56,54,1,,,,,
,,,,,,$5ead79a0f43b4441309657c9,2020-07-21_16h49.49.042,fisher_task,2020.1.3,Win32,60,0.113888889,-0.293518519,1,0,0,1.49986,scale,,,,,,0.2468,0.2,0.302267034,0.244948974,stimuli/lakes/405064_left.png,stimuli/lakes/405064_right.png,,,,0,57,57,64,1,,,,,
,,,,,,$5ead79a0f43b4441309657c9,2020-07-21_16h49.49.042,fisher_task,2020.1.3,Win32,60,-0.153703704,-0.368518519,1,0,0,1.18275,scale,,,,,,0.326485712,0.264575131,0.21373507,0.173205081,stimuli/lakes/705068_left.png,stimuli/lakes/705068_right.png,,,,0,58,58,68,1,,,,,
,,,,,,$5ead79a0f43b4441309657c9,2020-07-21_16h49.49.042,fisher_task,2020.1.3,Win32,60,0.150925926,-0.333333333,1,0,0,1.816415,scale,,,,,,0.275930788,0.223606798,0.275930788,0.223606798,stimuli/lakes/50104_left.png,stimuli/lakes/50104_right.png,,,,0,59,59,4,1,,,,,
,,,,,,$5ead79a0f43b4441309657c9,2020-07-21_16h49.49.042,fisher_task,2020.1.3,Win32,60,-0.15,-0.334259259,1,0,0,1.482955,scale,,,,,,0.302267034,0.244948974,0.2468,0.2,stimuli/lakes/604055_left.png,stimuli/lakes/604055_right.png,,,,0,60,60,55,1,,,,,
,,,,,,$5ead79a0f43b4441309657c9,2020-07-21_16h49.49.042,fisher_task,2020.1.3,Win32,60,-0.107407407,-0.269444444,1,0,0,1.19983,scale,,,,,,0.302267034,0.244948974,0.2468,0.2,stimuli/lakes/603037_left.png,stimuli/lakes/603037_right.png,,,,0,61,61,37,1,,,,,
,,,,,,$5ead79a0f43b4441309657c9,2020-07-21_16h49.49.042,fisher_task,2020.1.3,Win32,60,-0.140740741,-0.314814815,1,0,0,1.249705,scale,,,,,,0.275930788,0.223606798,0.275930788,0.223606798,stimuli/lakes/5080113_left.png,stimuli/lakes/5080113_right.png,,,,0,62,62,113,1,,,,,
,,,,,,$5ead79a0f43b4441309657c9,2020-07-21_16h49.49.042,fisher_task,2020.1.3,Win32,60,0.07962963,-0.265740741,1,0,0,1.33298,scale,,,,,,0.1234,0.1,0.3702,0.3,stimuli/lakes/1080107_left.png,stimuli/lakes/1080107_right.png,,,,0,63,63,107,1,,,,,
,,,,,,$5ead79a0f43b4441309657c9,2020-07-21_16h49.49.042,fisher_task,2020.1.3,Win32,60,0.172222222,-0.431481481,1,0,0,1.24993,scale,,,,,,0.21373507,0.173205081,0.326485712,0.264575131,stimuli/lakes/30101_left.png,stimuli/lakes/30101_right.png,,,,0,64,64,1,1,,,,,
,,,,,,$5ead79a0f43b4441309657c9,2020-07-21_16h49.49.042,fisher_task,2020.1.3,Win32,60,0.191666667,-0.433333333,1,0,0,0.89979,scale,,,,,,0.174513954,0.141421356,0.349027907,0.282842712,stimuli/lakes/202011_left.png,stimuli/lakes/202011_right.png,,,,0,65,65,11,1,,,,,
,,,,,,$5ead79a0f43b4441309657c9,2020-07-21_16h49.49.042,fisher_task,2020.1.3,Win32,60,0.161111111,-0.394444444,1,0,0,1.18313,scale,,,,,,0.2468,0.2,0.302267034,0.244948974,stimuli/lakes/402015_left.png,stimuli/lakes/402015_right.png,,,space,0,66,66,15,1,3.420025,,,,
,,,,,,$5ead79a0f43b4441309657c9,2020-07-21_16h49.49.042,fisher_task,2020.1.3,Win32,60,0.147222222,-0.343518519,1,0,0,1.032895,scale,,,,,,0.21373507,0.173205081,0.326485712,0.264575131,stimuli/lakes/304052_left.png,stimuli/lakes/304052_right.png,,,,0,67,67,52,1,,,,,
,,,,,,$5ead79a0f43b4441309657c9,2020-07-21_16h49.49.042,fisher_task,2020.1.3,Win32,60,-0.12962963,-0.310185185,1,0,0,0.933005,scale,,,,,,0.326485712,0.264575131,0.21373507,0.173205081,stimuli/lakes/705067_left.png,stimuli/lakes/705067_right.png,,,,0,68,68,67,1,,,,,
,,,,,,$5ead79a0f43b4441309657c9,2020-07-21_16h49.49.042,fisher_task,2020.1.3,Win32,60,0.112037037,-0.3,1,0,0,1.233225,scale,,,,,,0.275930788,0.223606798,0.275930788,0.223606798,stimuli/lakes/503027_left.png,stimuli/lakes/503027_right.png,,,,0,69,69,27,1,,,,,
,,,,,,$5ead79a0f43b4441309657c9,2020-07-21_16h49.49.042,fisher_task,2020.1.3,Win32,60,0.093518519,-0.285185185,1,0,0,1.14962,scale,,,,,,0.21373507,0.173205081,0.326485712,0.264575131,stimuli/lakes/306082_left.png,stimuli/lakes/306082_right.png,,,,0,70,70,82,1,,,,,
,,,,,,$5ead79a0f43b4441309657c9,2020-07-21_16h49.49.042,fisher_task,2020.1.3,Win32,60,0.128703704,-0.317592593,1,0,0,1.16654,scale,,,,,,0.2468,0.2,0.302267034,0.244948974,stimuli/lakes/404053_left.png,stimuli/lakes/404053_right.png,,,,0,71,71,53,1,,,,,
,,,,,,$5ead79a0f43b4441309657c9,2020-07-21_16h49.49.042,fisher_task,2020.1.3,Win32,60,-0.107407407,-0.291666667,1,0,0,1.49982,scale,,,,,,0.174513954,0.141421356,0.349027907,0.282842712,stimuli/lakes/205060_left.png,stimuli/lakes/205060_right.png,,,,0,72,72,60,1,,,,,
,,,,,,$5ead79a0f43b4441309657c9,2020-07-21_16h49.49.042,fisher_task,2020.1.3,Win32,60,0.136111111,-0.312962963,1,0,0,1.26636,scale,,,,,,0.2468,0.2,0.302267034,0.244948974,stimuli/lakes/403026_left.png,stimuli/lakes/403026_right.png,,,,0,73,73,26,1,,,,,
,,,,,,$5ead79a0f43b4441309657c9,2020-07-21_16h49.49.042,fisher_task,2020.1.3,Win32,60,0.183333333,-0.423148148,1,0,0,1.199955,scale,,,,,,0.21373507,0.173205081,0.326485712,0.264575131,stimuli/lakes/302012_left.png,stimuli/lakes/302012_right.png,,,,0,74,74,12,1,,,,,
,,,,,,$5ead79a0f43b4441309657c9,2020-07-21_16h49.49.042,fisher_task,2020.1.3,Win32,60,-0.044444444,-0.272222222,1,0,0,1.58299,scale,,,,,,0.275930788,0.223606798,0.275930788,0.223606798,stimuli/lakes/503036_left.png,stimuli/lakes/503036_right.png,,,,0,75,75,36,1,,,,,
,,,,,,$5ead79a0f43b4441309657c9,2020-07-21_16h49.49.042,fisher_task,2020.1.3,Win32,60,0.165740741,-0.441666667,1,0,0,1.19988,scale,,,,,,0.21373507,0.173205081,0.326485712,0.264575131,stimuli/lakes/302013_left.png,stimuli/lakes/302013_right.png,,,,0,76,76,13,1,,,,,
,,,,,,$5ead79a0f43b4441309657c9,2020-07-21_16h49.49.042,fisher_task,2020.1.3,Win32,60,0.159259259,-0.39537037,1,0,0,1.483175,scale,,,,,,0.174513954,0.141421356,0.349027907,0.282842712,stimuli/lakes/204042_left.png,stimuli/lakes/204042_right.png,,,,0,77,77,42,1,,,,,
,,,,,,$5ead79a0f43b4441309657c9,2020-07-21_16h49.49.042,fisher_task,2020.1.3,Win32,60,0.062037037,-0.25462963,1,0,0,1.38327,scale,,,,,,0.174513954,0.141421356,0.349027907,0.282842712,stimuli/lakes/2090120_left.png,stimuli/lakes/2090120_right.png,,,,0,78,78,120,1,,,,,
,,,,,,$5ead79a0f43b4441309657c9,2020-07-21_16h49.49.042,fisher_task,2020.1.3,Win32,60,-0.04537037,-0.263888889,1,0,0,1.5665,scale,,,,,,0.302267034,0.244948974,0.2468,0.2,stimuli/lakes/602018_left.png,stimuli/lakes/602018_right.png,,,,0,79,79,18,1,,,,,
,,,,,,$5ead79a0f43b4441309657c9,2020-07-21_16h49.49.042,fisher_task,2020.1.3,Win32,60,0.175925926,-0.416666667,1,0,0,1.2332,scale,,,,,,0.174513954,0.141421356,0.349027907,0.282842712,stimuli/lakes/203024_left.png,stimuli/lakes/203024_right.png,,,,0,80,80,24,1,,,,,
,,,,,,$5ead79a0f43b4441309657c9,2020-07-21_16h49.49.042,fisher_task,2020.1.3,Win32,60,-0.141666667,-0.430555556,1,0,0,1.233,scale,,,,,,0.302267034,0.244948974,0.2468,0.2,stimuli/lakes/6080115_left.png,stimuli/lakes/6080115_right.png,,,,0,81,81,115,1,,,,,
,,,,,,$5ead79a0f43b4441309657c9,2020-07-21_16h49.49.042,fisher_task,2020.1.3,Win32,60,-0.142592593,-0.389814815,1,0,0,1.16642,scale,,,,,,0.3702,0.3,0.1234,0.1,stimuli/lakes/904049_left.png,stimuli/lakes/904049_right.png,,,,0,82,82,49,1,,,,,
,,,,,,$5ead79a0f43b4441309657c9,2020-07-21_16h49.49.042,fisher_task,2020.1.3,Win32,60,-0.093518519,-0.301851852,1,0,0,2.149885,scale,,,,,,0.275930788,0.223606798,0.275930788,0.223606798,stimuli/lakes/506075_left.png,stimuli/lakes/506075_right.png,,,,0,83,83,75,1,,,,,
,,,,,,$5ead79a0f43b4441309657c9,2020-07-21_16h49.49.042,fisher_task,2020.1.3,Win32,60,-0.093518519,-0.275925926,1,0,0,2.299925,scale,,,,,,0.3702,0.3,0.1234,0.1,stimuli/lakes/903040_left.png,stimuli/lakes/903040_right.png,,,,0,84,84,40,1,,,,,
,,,,,,$5ead79a0f43b4441309657c9,2020-07-21_16h49.49.042,fisher_task,2020.1.3,Win32,60,-0.086111111,-0.266666667,1,0,0,1.06673,scale,,,,,,0.3702,0.3,0.1234,0.1,stimuli/lakes/902022_left.png,stimuli/lakes/902022_right.png,,,,0,85,85,22,1,,,,,
,,,,,,$5ead79a0f43b4441309657c9,2020-07-21_16h49.49.042,fisher_task,2020.1.3,Win32,60,-0.10462963,-0.302777778,1,0,0,0.84991,scale,,,,,,0.349027907,0.282842712,0.174513954,0.141421356,stimuli/lakes/803039_left.png,stimuli/lakes/803039_right.png,,,,0,86,86,39,1,,,,,
,,,,,,$5ead79a0f43b4441309657c9,2020-07-21_16h49.49.042,fisher_task,2020.1.3,Win32,60,-0.02962963,-0.253703704,1,0,0,2.583345,scale,,,,,,0.2468,0.2,0.302267034,0.244948974,stimuli/lakes/4090124_left.png,stimuli/lakes/4090124_right.png,,,,0,87,87,124,1,,,,,
,,,,,,$5ead79a0f43b4441309657c9,2020-07-21_16h49.49.042,fisher_task,2020.1.3,Win32,60,0.088888889,-0.278703704,1,0,0,14.93307,scale,,,,,,0.3702,0.3,0.1234,0.1,stimuli/lakes/901010_left.png,stimuli/lakes/901010_right.png,,,space,0,88,88,10,1,3.07312,,,,
,,,,,,$5ead79a0f43b4441309657c9,2020-07-21_16h49.49.042,fisher_task,2020.1.3,Win32,60,-0.156481481,-0.360185185,1,0,0,1.282975,scale,,,,,,0.3702,0.3,0.1234,0.1,stimuli/lakes/907097_left.png,stimuli/lakes/907097_right.png,,,,0,89,89,97,1,,,,,
,,,,,,$5ead79a0f43b4441309657c9,2020-07-21_16h49.49.042,fisher_task,2020.1.3,Win32,60,0.072222222,-0.275925926,1,0,0,1.266495,scale,,,,,,0.2468,0.2,0.302267034,0.244948974,stimuli/lakes/4080112_left.png,stimuli/lakes/4080112_right.png,,,,0,90,90,112,1,,,,,
,,,,,,$5ead79a0f43b4441309657c9,2020-07-21_16h49.49.042,fisher_task,2020.1.3,Win32,60,-0.108333333,-0.312037037,1,0,0,1.083195,scale,,,,,,0.275930788,0.223606798,0.275930788,0.223606798,stimuli/lakes/5090125_left.png,stimuli/lakes/5090125_right.png,,,,0,91,91,125,1,,,,,
,,,,,,$5ead79a0f43b4441309657c9,2020-07-21_16h49.49.042,fisher_task,2020.1.3,Win32,60,0.101851852,-0.288888889,1,0,0,2.16643,scale,,,,,,0.174513954,0.141421356,0.349027907,0.282842712,stimuli/lakes/206081_left.png,stimuli/lakes/206081_right.png,,,,0,92,92,81,1,,,,,
,,,,,,$5ead79a0f43b4441309657c9,2020-07-21_16h49.49.042,fisher_task,2020.1.3,Win32,60,-0.172222222,-0.424074074,1,0,0,1.233365,scale,,,,,,0.3702,0.3,0.1234,0.1,stimuli/lakes/9070106_left.png,stimuli/lakes/9070106_right.png,,,,0,93,93,106,1,,,,,
,,,,,,$5ead79a0f43b4441309657c9,2020-07-21_16h49.49.042,fisher_task,2020.1.3,Win32,60,-0.098148148,-0.292592593,1,0,0,1.4499,scale,,,,,,0.275930788,0.223606798,0.275930788,0.223606798,stimuli/lakes/507093_left.png,stimuli/lakes/507093_right.png,,,,0,94,94,93,1,,,,,
,,,,,,$5ead79a0f43b4441309657c9,2020-07-21_16h49.49.042,fisher_task,2020.1.3,Win32,60,-0.075925926,-0.282407407,1,0,0,1.39978,scale,,,,,,0.302267034,0.244948974,0.2468,0.2,stimuli/lakes/603028_left.png,stimuli/lakes/603028_right.png,,,,0,95,95,28,1,,,,,
,,,,,,$5ead79a0f43b4441309657c9,2020-07-21_16h49.49.042,fisher_task,2020.1.3,Win32,60,0.076851852,-0.280555556,1,0,0,1.483335,scale,,,,,,0.2468,0.2,0.302267034,0.244948974,stimuli/lakes/406083_left.png,stimuli/lakes/406083_right.png,,,,0,96,96,83,1,,,,,
,,,,,,$5ead79a0f43b4441309657c9,2020-07-21_16h49.49.042,fisher_task,2020.1.3,Win32,60,0.088888889,-0.252777778,1,0,0,1.316555,scale,,,,,,0.174513954,0.141421356,0.349027907,0.282842712,stimuli/lakes/207090_left.png,stimuli/lakes/207090_right.png,,,,0,97,97,90,1,,,,,
,,,,,,$5ead79a0f43b4441309657c9,2020-07-21_16h49.49.042,fisher_task,2020.1.3,Win32,60,0.125925926,-0.292592593,1,0,0,1.116525,scale,,,,,,0.174513954,0.141421356,0.349027907,0.282842712,stimuli/lakes/206072_left.png,stimuli/lakes/206072_right.png,,,,0,98,98,72,1,,,,,
,,,,,,$5ead79a0f43b4441309657c9,2020-07-21_16h49.49.042,fisher_task,2020.1.3,Win32,60,-0.110185185,-0.312037037,1,0,0,1.44978,scale,,,,,,0.349027907,0.282842712,0.174513954,0.141421356,stimuli/lakes/804048_left.png,stimuli/lakes/804048_right.png,,,,0,99,99,48,1,,,,,
,,,,,,$5ead79a0f43b4441309657c9,2020-07-21_16h49.49.042,fisher_task,2020.1.3,Win32,60,-0.102777778,-0.291666667,1,0,0,1.31658,scale,,,,,,0.3702,0.3,0.1234,0.1,stimuli/lakes/905070_left.png,stimuli/lakes/905070_right.png,,,,0,100,100,70,1,,,,,
,,,,,,$5ead79a0f43b4441309657c9,2020-07-21_16h49.49.042,fisher_task,2020.1.3,Win32,60,-0.143518519,-0.367592593,1,0,0,1.28316,scale,,,,,,0.3702,0.3,0.1234,0.1,stimuli/lakes/906088_left.png,stimuli/lakes/906088_right.png,,,,0,101,101,88,1,,,,,
,,,,,,$5ead79a0f43b4441309657c9,2020-07-21_16h49.49.042,fisher_task,2020.1.3,Win32,60,0.106481481,-0.296296296,1,0,0,1.33291,scale,,,,,,0.21373507,0.173205081,0.326485712,0.264575131,stimuli/lakes/3070100_left.png,stimuli/lakes/3070100_right.png,,,,0,102,102,100,1,,,,,
,,,,,,$5ead79a0f43b4441309657c9,2020-07-21_16h49.49.042,fisher_task,2020.1.3,Win32,60,0.15,-0.325925926,1,0,0,1.49989,scale,,,,,,0.21373507,0.173205081,0.326485712,0.264575131,stimuli/lakes/306073_left.png,stimuli/lakes/306073_right.png,,,,0,103,103,73,1,,,,,
,,,,,,$5ead79a0f43b4441309657c9,2020-07-21_16h49.49.042,fisher_task,2020.1.3,Win32,60,0.119444444,-0.297222222,1,0,0,0.99988,scale,,,,,,0.2468,0.2,0.302267034,0.244948974,stimuli/lakes/405063_left.png,stimuli/lakes/405063_right.png,,,,0,104,104,63,1,,,,,
,,,,,,$5ead79a0f43b4441309657c9,2020-07-21_16h49.49.042,fisher_task,2020.1.3,Win32,60,-0.138888889,-0.316666667,1,0,0,1.01635,scale,,,,,,0.302267034,0.244948974,0.2468,0.2,stimuli/lakes/606076_left.png,stimuli/lakes/606076_right.png,,,,0,105,105,76,1,,,,,
,,,,,,$5ead79a0f43b4441309657c9,2020-07-21_16h49.49.042,fisher_task,2020.1.3,Win32,60,-0.14537037,-0.383333333,1,0,0,1.049695,scale,,,,,,0.326485712,0.264575131,0.21373507,0.173205081,stimuli/lakes/7090128_left.png,stimuli/lakes/7090128_right.png,,,,0,106,106,128,1,,,,,
,,,,,,$5ead79a0f43b4441309657c9,2020-07-21_16h49.49.042,fisher_task,2020.1.3,Win32,60,0.096296296,-0.291666667,1,0,0,1.26606,scale,,,,,,0.2468,0.2,0.302267034,0.244948974,stimuli/lakes/407092_left.png,stimuli/lakes/407092_right.png,,,,0,107,107,92,1,,,,,
,,,,,,$5ead79a0f43b4441309657c9,2020-07-21_16h49.49.042,fisher_task,2020.1.3,Win32,60,-0.117592593,-0.336111111,1,0,0,0.983005,scale,,,,,,0.349027907,0.282842712,0.174513954,0.141421356,stimuli/lakes/806087_left.png,stimuli/lakes/806087_right.png,,,,0,108,108,87,1,,,,,
,,,,,,$5ead79a0f43b4441309657c9,2020-07-21_16h49.49.042,fisher_task,2020.1.3,Win32,60,-0.048148148,-0.277777778,1,0,0,1.116575,scale,,,,,,0.302267034,0.244948974,0.2468,0.2,stimuli/lakes/60105_left.png,stimuli/lakes/60105_right.png,,,,0,109,109,5,1,,,,,
,,,,,,$5ead79a0f43b4441309657c9,2020-07-21_16h49.49.042,fisher_task,2020.1.3,Win32,60,-0.114814815,-0.278703704,1,0,0,1.149985,scale,,,,,,0.275930788,0.223606798,0.275930788,0.223606798,stimuli/lakes/5070102_left.png,stimuli/lakes/5070102_right.png,,,space,0,110,110,102,1,1.390855,,,,
,,,,,,$5ead79a0f43b4441309657c9,2020-07-21_16h49.49.042,fisher_task,2020.1.3,Win32,60,0.065740741,-0.275925926,1,0,0,1.333585,scale,,,,,,0.21373507,0.173205081,0.326485712,0.264575131,stimuli/lakes/3090122_left.png,stimuli/lakes/3090122_right.png,,,,0,111,111,122,1,,,,,
,,,,,,$5ead79a0f43b4441309657c9,2020-07-21_16h49.49.042,fisher_task,2020.1.3,Win32,60,-0.097222222,-0.285185185,1,0,0,1.549735,scale,,,,,,0.349027907,0.282842712,0.174513954,0.141421356,stimuli/lakes/803030_left.png,stimuli/lakes/803030_right.png,,,,0,112,112,30,1,,,,,
,,,,,,$5ead79a0f43b4441309657c9,2020-07-21_16h49.49.042,fisher_task,2020.1.3,Win32,60,-0.057407407,-0.301851852,1,0,0,1.88308,scale,,,,,,0.2468,0.2,0.302267034,0.244948974,stimuli/lakes/4090123_left.png,stimuli/lakes/4090123_right.png,,,,0,113,113,123,1,,,,,
,,,,,,$5ead79a0f43b4441309657c9,2020-07-21_16h49.49.042,fisher_task,2020.1.3,Win32,60,0.125,-0.325,1,0,0,2.099945,scale,,,,,,0.21373507,0.173205081,0.326485712,0.264575131,stimuli/lakes/304043_left.png,stimuli/lakes/304043_right.png,,,,0,114,114,43,1,,,,,
,,,,,,$5ead79a0f43b4441309657c9,2020-07-21_16h49.49.042,fisher_task,2020.1.3,Win32,60,0.177777778,-0.441666667,1,0,0,1.066475,scale,,,,,,0.2468,0.2,0.302267034,0.244948974,stimuli/lakes/40103_left.png,stimuli/lakes/40103_right.png,,,,0,115,115,3,1,,,,,
,,,,,,$5ead79a0f43b4441309657c9,2020-07-21_16h49.49.042,fisher_task,2020.1.3,Win32,60,0.085185185,-0.274074074,1,0,0,2.549635,scale,,,,,,0.302267034,0.244948974,0.2468,0.2,stimuli/lakes/60106_left.png,stimuli/lakes/60106_right.png,,,,0,116,116,6,1,,,,,
,,,,,,$5ead79a0f43b4441309657c9,2020-07-21_16h49.49.042,fisher_task,2020.1.3,Win32,60,-0.159259259,-0.361111111,1,0,0,1.549035,scale,,,,,,0.349027907,0.282842712,0.174513954,0.141421356,stimuli/lakes/807096_left.png,stimuli/lakes/807096_right.png,,,,0,117,117,96,1,,,,,
,,,,,,$5ead79a0f43b4441309657c9,2020-07-21_16h49.49.042,fisher_task,2020.1.3,Win32,60,-0.067592593,-0.286111111,1,0,0,2.282925,scale,,,,,,0.275930788,0.223606798,0.275930788,0.223606798,stimuli/lakes/506084_left.png,stimuli/lakes/506084_right.png,,,,0,118,118,84,1,,,,,
,,,,,,$5ead79a0f43b4441309657c9,2020-07-21_16h49.49.042,fisher_task,2020.1.3,Win32,60,0.087037037,-0.303703704,1,0,0,1.41637,scale,,,,,,0.275930788,0.223606798,0.275930788,0.223606798,stimuli/lakes/504045_left.png,stimuli/lakes/504045_right.png,,,,0,119,119,45,1,,,,,
,,,,,,$5ead79a0f43b4441309657c9,2020-07-21_16h49.49.042,fisher_task,2020.1.3,Win32,60,-0.097222222,-0.293518519,1,0,0,2.14959,scale,,,,,,0.349027907,0.282842712,0.174513954,0.141421356,stimuli/lakes/804057_left.png,stimuli/lakes/804057_right.png,,,,0,120,120,57,1,,,,,
,,,,,,$5ead79a0f43b4441309657c9,2020-07-21_16h49.49.042,fisher_task,2020.1.3,Win32,60,0.112962963,-0.343518519,1,0,0,1.18316,scale,,,,,,0.2468,0.2,0.302267034,0.244948974,stimuli/lakes/403035_left.png,stimuli/lakes/403035_right.png,,,,0,121,121,35,1,,,,,
,,,,,,$5ead79a0f43b4441309657c9,2020-07-21_16h49.49.042,fisher_task,2020.1.3,Win32,60,-0.134259259,-0.397222222,1,0,0,1.04966,scale,,,,,,0.326485712,0.264575131,0.21373507,0.173205081,stimuli/lakes/7080117_left.png,stimuli/lakes/7080117_right.png,,,,0,122,122,117,1,,,,,
,,,,,,$5ead79a0f43b4441309657c9,2020-07-21_16h49.49.042,fisher_task,2020.1.3,Win32,60,-0.155555556,-0.432407407,1,0,0,0.983485,scale,,,,,,0.302267034,0.244948974,0.2468,0.2,stimuli/lakes/6090127_left.png,stimuli/lakes/6090127_right.png,,,,0,123,123,127,1,,,,,
,,,,,,$5ead79a0f43b4441309657c9,2020-07-21_16h49.49.042,fisher_task,2020.1.3,Win32,60,0.142592593,-0.388888889,1,0,0,1.24992,scale,,,,,,0.1234,0.1,0.3702,0.3,stimuli/lakes/104050_left.png,stimuli/lakes/104050_right.png,,,,0,124,124,50,1,,,,,
,,,,,,$5ead79a0f43b4441309657c9,2020-07-21_16h49.49.042,fisher_task,2020.1.3,Win32,60,0.10462963,-0.30462963,1,0,0,1.16656,scale,,,,,,0.21373507,0.173205081,0.326485712,0.264575131,stimuli/lakes/3080110_left.png,stimuli/lakes/3080110_right.png,,,,0,125,125,110,1,,,,,
,,,,,,$5ead79a0f43b4441309657c9,2020-07-21_16h49.49.042,fisher_task,2020.1.3,Win32,60,-0.087037037,-0.276851852,1,0,0,1.499825,scale,,,,,,0.326485712,0.264575131,0.21373507,0.173205081,stimuli/lakes/704047_left.png,stimuli/lakes/704047_right.png,,,,0,126,126,47,1,,,,,
,,,,,,$5ead79a0f43b4441309657c9,2020-07-21_16h49.49.042,fisher_task,2020.1.3,Win32,60,0.162037037,-0.435185185,1,0,0,0.99983,scale,,,,,,0.21373507,0.173205081,0.326485712,0.264575131,stimuli/lakes/30100_left.png,stimuli/lakes/30100_right.png,,,,0,127,127,0,1,,,,,
,,,,,,$5ead79a0f43b4441309657c9,2020-07-21_16h49.49.042,fisher_task,2020.1.3,Win32,60,-0.15,-0.383333333,1,0,0,1.13323,scale,,,,,,0.326485712,0.264575131,0.21373507,0.173205081,stimuli/lakes/7070104_left.png,stimuli/lakes/7070104_right.png,,,,0,128,128,104,1,,,,,
,,,,,,$5ead79a0f43b4441309657c9,2020-07-21_16h49.49.042,fisher_task,2020.1.3,Win32,60,0.127777778,-0.318518519,1,0,0,0.966315,scale,,,,,,0.2468,0.2,0.302267034,0.244948974,stimuli/lakes/4080111_left.png,stimuli/lakes/4080111_right.png,,,,0,129,129,111,1,,,,,
,,,,,,$5ead79a0f43b4441309657c9,2020-07-21_16h49.49.042,fisher_task,2020.1.3,Win32,60,,,,,,,,,,,,,,,,,,,,,,,,,,,,space,9.187525,space,2.98196
