keySpace.keys,instructions.thisRepN,instructions.thisTrialN,instructions.thisN,instructions.thisIndex,instructions.ran,participant,date,expName,psychopyVersion,OS,frameRate,mouse.x,mouse.y,mouse.leftButton,mouse.midButton,mouse.rightButton,mouse.time,mouse.clicked_name,training.thisRepN,training.thisTrialN,training.thisN,training.thisIndex,training.ran,widthBasketLeft,heightBasketLeft,widthBasketRight,heightBasketRight,leftLake,rightLake,space2.keys,space2.rt,space1.keys,trials.thisRepN,trials.thisTrialN,trials.thisN,trials.thisIndex,trials.ran,space1.rt,finalSpace1.keys,finalSpace1.rt,finalSpace2.keys,finalSpace2.rt
,0,0,0,0,1,$6104570035,2020-07-07_19h47.26.758,fisher_task,2020.1.3,Win32,60,,,,,,,,,,,,,,,,,,,,,,,,,,,,,,,
,,,,,,$6104570035,2020-07-07_19h47.26.758,fisher_task,2020.1.3,Win32,60,0.155555571,-0.375000013,1,0,0,4.731855,scale,0,0,0,0,1,0.275930788,0.223606798,0.275930788,0.223606798,stimuli/training/20_left.png,stimuli/training/20_right.png,,,,,,,,,,,,,
,,,,,,$6104570035,2020-07-07_19h47.26.758,fisher_task,2020.1.3,Win32,60,-0.167592582,-0.371296309,1,0,0,3.41525,scale,0,1,1,1,1,0.275930788,0.223606798,0.275930788,0.223606798,stimuli/training/80_left.png,stimuli/training/80_right.png,,,,,,,,,,,,,
,,,,,,$6104570035,2020-07-07_19h47.26.758,fisher_task,2020.1.3,Win32,60,0.151851867,-0.369444457,1,0,0,4.09924,scale,0,2,2,2,1,0.174513954,0.141421356,0.349027907,0.282842712,stimuli/training/50_left.png,stimuli/training/50_right.png,,,,,,,,,,,,,
,,,,,,$6104570035,2020-07-07_19h47.26.758,fisher_task,2020.1.3,Win32,60,-0.10648147,-0.284259327,1,0,0,4.6484,scale,0,3,3,3,1,0.349027907,0.282842712,0.174513954,0.141421356,stimuli/training/50_left.png,stimuli/training/50_right.png,,,,,,,,,,,,,
,,,,,,$6104570035,2020-07-07_19h47.26.758,fisher_task,2020.1.3,Win32,60,0.150925941,-0.334259272,1,0,0,3.76518,scale,0,4,4,4,1,0.275930788,0.223606798,0.275930788,0.223606798,stimuli/training/50_left.png,stimuli/training/50_right.png,,,,,,,,,,,,,
,,,,,,$6104570035,2020-07-07_19h47.26.758,fisher_task,2020.1.3,Win32,60,0.152777793,-0.400925939,1,0,0,2.09808,scale,0,5,5,5,1,0.174513954,0.141421356,0.349027907,0.282842712,stimuli/training/20_left.png,stimuli/training/20_right.png,,,,,,,,,,,,,
,,,,,,$6104570035,2020-07-07_19h47.26.758,fisher_task,2020.1.3,Win32,60,-0.053703635,-0.266666678,1,0,0,6.01519,scale,0,6,6,6,1,0.349027907,0.282842712,0.174513954,0.141421356,stimuli/training/80_left.png,stimuli/training/80_right.png,,,,,,,,,,,,,
,,,,,,$6104570035,2020-07-07_19h47.26.758,fisher_task,2020.1.3,Win32,60,0.146296312,-0.38703705,1,0,0,2.88243,scale,0,7,7,7,1,0.1234,0.1,0.3702,0.3,stimuli/training/30_left.png,stimuli/training/30_right.png,,,,,,,,,,,,,
,,,,,,$6104570035,2020-07-07_19h47.26.758,fisher_task,2020.1.3,Win32,60,-0.167592582,-0.375925939,1,0,0,4.165525,scale,0,8,8,8,1,0.3702,0.3,0.1234,0.1,stimuli/training/70_left.png,stimuli/training/70_right.png,,,,,,,,,,,,,
,,,,,,$6104570035,2020-07-07_19h47.26.758,fisher_task,2020.1.3,Win32,60,-0.162962952,-0.4046297,1,0,0,5.397875,scale,0,9,9,9,1,0.326485712,0.264575131,0.21373507,0.173205081,stimuli/training/90_left.png,stimuli/training/90_right.png,,,,,,,,,,,,,
,,,,,,$6104570035,2020-07-07_19h47.26.758,fisher_task,2020.1.3,Win32,60,0.127777793,-0.311111123,1,0,0,7.2317,scale,0,10,10,10,1,0.21373507,0.173205081,0.326485712,0.264575131,stimuli/training/10_left.png,stimuli/training/10_right.png,,,,,,,,,,,,,
,,,,,,$6104570035,2020-07-07_19h47.26.758,fisher_task,2020.1.3,Win32,60,0.153703719,-0.387962976,1,0,0,2.865435,scale,,,,,,0.2468,0.2,0.302267034,0.244948974,stimuli/lakes/40103_left.png,stimuli/lakes/40103_right.png,space,8.376915,,0,0,0,3,1,,,,,
,,,,,,$6104570035,2020-07-07_19h47.26.758,fisher_task,2020.1.3,Win32,60,-0.001851839,-0.235185196,1,0,0,9.46332,scale,,,,,,0.326485712,0.264575131,0.21373507,0.173205081,stimuli/lakes/70107_left.png,stimuli/lakes/70107_right.png,,,,0,1,1,7,1,,,,,
,,,,,,$6104570035,2020-07-07_19h47.26.758,fisher_task,2020.1.3,Win32,60,0.037037051,-0.2388889,1,0,0,4.88186,scale,,,,,,0.349027907,0.282842712,0.174513954,0.141421356,stimuli/lakes/802021_left.png,stimuli/lakes/802021_right.png,,,,0,2,2,21,1,,,,,
,,,,,,$6104570035,2020-07-07_19h47.26.758,fisher_task,2020.1.3,Win32,60,0.167592608,-0.413888959,1,0,0,2.882295,scale,,,,,,0.21373507,0.173205081,0.326485712,0.264575131,stimuli/lakes/30100_left.png,stimuli/lakes/30100_right.png,,,,0,3,3,0,1,,,,,
,,,,,,$6104570035,2020-07-07_19h47.26.758,fisher_task,2020.1.3,Win32,60,-0.158333322,-0.360185198,1,0,0,3.182715,scale,,,,,,0.326485712,0.264575131,0.21373507,0.173205081,stimuli/lakes/7080116_left.png,stimuli/lakes/7080116_right.png,,,,0,4,4,116,1,,,,,
,,,,,,$6104570035,2020-07-07_19h47.26.758,fisher_task,2020.1.3,Win32,60,0.167592608,-0.386111181,1,0,0,2.34846,scale,,,,,,0.21373507,0.173205081,0.326485712,0.264575131,stimuli/lakes/302013_left.png,stimuli/lakes/302013_right.png,,,,0,5,5,13,1,,,,,
,,,,,,$6104570035,2020-07-07_19h47.26.758,fisher_task,2020.1.3,Win32,60,-0.000925913,-0.245370381,1,0,0,4.982085,scale,,,,,,0.349027907,0.282842712,0.174513954,0.141421356,stimuli/lakes/80109_left.png,stimuli/lakes/80109_right.png,,,,0,6,6,9,1,,,,,
,,,,,,$6104570035,2020-07-07_19h47.26.758,fisher_task,2020.1.3,Win32,60,0.133333349,-0.302777846,1,0,0,3.250085,scale,,,,,,0.275930788,0.223606798,0.275930788,0.223606798,stimuli/lakes/502016_left.png,stimuli/lakes/502016_right.png,,,,0,7,7,16,1,,,,,
,,,,,,$6104570035,2020-07-07_19h47.26.758,fisher_task,2020.1.3,Win32,60,-0.12314808,-0.297222234,1,0,0,3.2323,scale,,,,,,0.302267034,0.244948974,0.2468,0.2,stimuli/lakes/6080115_left.png,stimuli/lakes/6080115_right.png,,,,0,8,8,115,1,,,,,
,,,,,,$6104570035,2020-07-07_19h47.26.758,fisher_task,2020.1.3,Win32,60,0.002777791,-0.24259266,1,0,0,5.082285,scale,,,,,,0.1234,0.1,0.3702,0.3,stimuli/lakes/107089_left.png,stimuli/lakes/107089_right.png,,,,0,9,9,89,1,,,,,
,,,,,,$6104570035,2020-07-07_19h47.26.758,fisher_task,2020.1.3,Win32,60,-0.100925914,-0.275925937,1,0,0,5.01509,scale,,,,,,0.3702,0.3,0.1234,0.1,stimuli/lakes/906079_left.png,stimuli/lakes/906079_right.png,,,,0,10,10,79,1,,,,,
,,,,,,$6104570035,2020-07-07_19h47.26.758,fisher_task,2020.1.3,Win32,60,0.156481497,-0.385185198,1,0,0,4.048695,scale,,,,,,0.21373507,0.173205081,0.326485712,0.264575131,stimuli/lakes/303025_left.png,stimuli/lakes/303025_right.png,,,,0,11,11,25,1,,,,,
,,,,,,$6104570035,2020-07-07_19h47.26.758,fisher_task,2020.1.3,Win32,60,0.098148163,-0.262037048,1,0,0,4.682015,scale,,,,,,0.1234,0.1,0.3702,0.3,stimuli/lakes/106080_left.png,stimuli/lakes/106080_right.png,,,,0,12,12,80,1,,,,,
,,,,,,$6104570035,2020-07-07_19h47.26.758,fisher_task,2020.1.3,Win32,60,-0.050925913,-0.241666678,1,0,0,5.348065,scale,,,,,,0.349027907,0.282842712,0.174513954,0.141421356,stimuli/lakes/803039_left.png,stimuli/lakes/803039_right.png,,,,0,13,13,39,1,,,,,
,,,,,,$6104570035,2020-07-07_19h47.26.758,fisher_task,2020.1.3,Win32,60,0.001851922,-0.237037048,1,0,0,2.965675,scale,,,,,,0.2468,0.2,0.302267034,0.244948974,stimuli/lakes/406074_left.png,stimuli/lakes/406074_right.png,,,,0,14,14,74,1,,,,,
,,,,,,$6104570035,2020-07-07_19h47.26.758,fisher_task,2020.1.3,Win32,60,-0.135185174,-0.305555568,1,0,0,5.33201,scale,,,,,,0.302267034,0.244948974,0.2468,0.2,stimuli/lakes/6080114_left.png,stimuli/lakes/6080114_right.png,,,,0,15,15,114,1,,,,,
,,,,,,$6104570035,2020-07-07_19h47.26.758,fisher_task,2020.1.3,Win32,60,-0.10648147,-0.270370438,1,0,0,12.246695,scale,,,,,,0.21373507,0.173205081,0.326485712,0.264575131,stimuli/lakes/3090122_left.png,stimuli/lakes/3090122_right.png,,,,0,16,16,122,1,,,,,
,,,,,,$6104570035,2020-07-07_19h47.26.758,fisher_task,2020.1.3,Win32,60,0.003703717,-0.239814826,1,0,0,2.71598,scale,,,,,,0.326485712,0.264575131,0.21373507,0.173205081,stimuli/lakes/703038_left.png,stimuli/lakes/703038_right.png,,,,0,17,17,38,1,,,,,
,,,,,,$6104570035,2020-07-07_19h47.26.758,fisher_task,2020.1.3,Win32,60,0.141666682,-0.317592605,1,0,0,4.215415,scale,,,,,,0.1234,0.1,0.3702,0.3,stimuli/lakes/104041_left.png,stimuli/lakes/104041_right.png,,,,0,18,18,41,1,,,,,
,,,,,,$6104570035,2020-07-07_19h47.26.758,fisher_task,2020.1.3,Win32,60,-0.148148137,-0.33240742,1,0,0,5.1816,scale,,,,,,0.1234,0.1,0.3702,0.3,stimuli/lakes/1090119_left.png,stimuli/lakes/1090119_right.png,,,,0,19,19,119,1,,,,,
,,,,,,$6104570035,2020-07-07_19h47.26.758,fisher_task,2020.1.3,Win32,60,-0.174999989,-0.399074087,1,0,0,4.198605,scale,,,,,,0.3702,0.3,0.1234,0.1,stimuli/lakes/907097_left.png,stimuli/lakes/907097_right.png,,,,0,20,20,97,1,,,,,
,,,,,,$6104570035,2020-07-07_19h47.26.758,fisher_task,2020.1.3,Win32,60,0.066666681,-0.250000011,1,0,0,3.34916,scale,,,,,,0.174513954,0.141421356,0.349027907,0.282842712,stimuli/lakes/204042_left.png,stimuli/lakes/204042_right.png,,,,0,21,21,42,1,,,,,
,,,,,,$6104570035,2020-07-07_19h47.26.758,fisher_task,2020.1.3,Win32,60,0.153703719,-0.350925939,1,0,0,3.082245,scale,,,,,,0.1234,0.1,0.3702,0.3,stimuli/lakes/103023_left.png,stimuli/lakes/103023_right.png,,,space,0,22,22,23,1,4.9376,,,,
,,,,,,$6104570035,2020-07-07_19h47.26.758,fisher_task,2020.1.3,Win32,60,-0.172222212,-0.402777791,1,0,0,2.632415,scale,,,,,,0.349027907,0.282842712,0.174513954,0.141421356,stimuli/lakes/807096_left.png,stimuli/lakes/807096_right.png,,,,0,23,23,96,1,,,,,
,,,,,,$6104570035,2020-07-07_19h47.26.758,fisher_task,2020.1.3,Win32,60,-0.179629619,-0.423148218,1,0,0,3.38219,scale,,,,,,0.302267034,0.244948974,0.2468,0.2,stimuli/lakes/6090126_left.png,stimuli/lakes/6090126_right.png,,,,0,24,24,126,1,,,,,
,,,,,,$6104570035,2020-07-07_19h47.26.758,fisher_task,2020.1.3,Win32,60,0.002777791,-0.236111122,1,0,0,4.665355,scale,,,,,,0.3702,0.3,0.1234,0.1,stimuli/lakes/903040_left.png,stimuli/lakes/903040_right.png,,,,0,25,25,40,1,,,,,
,,,,,,$6104570035,2020-07-07_19h47.26.758,fisher_task,2020.1.3,Win32,60,0.002777791,-0.236111122,1,0,0,2.482805,scale,,,,,,0.326485712,0.264575131,0.21373507,0.173205081,stimuli/lakes/704056_left.png,stimuli/lakes/704056_right.png,,,,0,26,26,56,1,,,,,
,,,,,,$6104570035,2020-07-07_19h47.26.758,fisher_task,2020.1.3,Win32,60,-0.049074005,-0.235185196,1,0,0,4.73096,scale,,,,,,0.174513954,0.141421356,0.349027907,0.282842712,stimuli/lakes/2080108_left.png,stimuli/lakes/2080108_right.png,,,,0,27,27,108,1,,,,,
,,,,,,$6104570035,2020-07-07_19h47.26.758,fisher_task,2020.1.3,Win32,60,0.14907409,-0.317592605,1,0,0,4.76558,scale,,,,,,0.2468,0.2,0.302267034,0.244948974,stimuli/lakes/40102_left.png,stimuli/lakes/40102_right.png,,,,0,28,28,2,1,,,,,
,,,,,,$6104570035,2020-07-07_19h47.26.758,fisher_task,2020.1.3,Win32,60,-0.005555542,-0.229629641,1,0,0,2.932415,scale,,,,,,0.2468,0.2,0.302267034,0.244948974,stimuli/lakes/407092_left.png,stimuli/lakes/407092_right.png,,,,0,29,29,92,1,,,,,
,,,,,,$6104570035,2020-07-07_19h47.26.758,fisher_task,2020.1.3,Win32,60,-0.184259249,-0.39629631,1,0,0,2.24888,scale,,,,,,0.326485712,0.264575131,0.21373507,0.173205081,stimuli/lakes/7080117_left.png,stimuli/lakes/7080117_right.png,,,,0,30,30,117,1,,,,,
,,,,,,$6104570035,2020-07-07_19h47.26.758,fisher_task,2020.1.3,Win32,60,0.136111126,-0.338888901,1,0,0,1.948455,scale,,,,,,0.21373507,0.173205081,0.326485712,0.264575131,stimuli/lakes/303034_left.png,stimuli/lakes/303034_right.png,,,,0,31,31,34,1,,,,,
,,,,,,$6104570035,2020-07-07_19h47.26.758,fisher_task,2020.1.3,Win32,60,0.148148164,-0.360185198,1,0,0,4.23119,scale,,,,,,0.1234,0.1,0.3702,0.3,stimuli/lakes/105059_left.png,stimuli/lakes/105059_right.png,,,,0,32,32,59,1,,,,,
,,,,,,$6104570035,2020-07-07_19h47.26.758,fisher_task,2020.1.3,Win32,60,0.108333348,-0.279629698,1,0,0,3.56549,scale,,,,,,0.302267034,0.244948974,0.2468,0.2,stimuli/lakes/60105_left.png,stimuli/lakes/60105_right.png,,,,0,33,33,5,1,,,,,
,,,,,,$6104570035,2020-07-07_19h47.26.758,fisher_task,2020.1.3,Win32,60,0.137037052,-0.315740753,1,0,0,3.698925,scale,,,,,,0.21373507,0.173205081,0.326485712,0.264575131,stimuli/lakes/304052_left.png,stimuli/lakes/304052_right.png,,,,0,34,34,52,1,,,,,
,,,,,,$6104570035,2020-07-07_19h47.26.758,fisher_task,2020.1.3,Win32,60,0.087962978,-0.256481549,1,0,0,6.19798,scale,,,,,,0.1234,0.1,0.3702,0.3,stimuli/lakes/107098_left.png,stimuli/lakes/107098_right.png,,,,0,35,35,98,1,,,,,
,,,,,,$6104570035,2020-07-07_19h47.26.758,fisher_task,2020.1.3,Win32,60,0.113888904,-0.27314816,1,0,0,4.89866,scale,,,,,,0.174513954,0.141421356,0.349027907,0.282842712,stimuli/lakes/205060_left.png,stimuli/lakes/205060_right.png,,,,0,36,36,60,1,,,,,
,,,,,,$6104570035,2020-07-07_19h47.26.758,fisher_task,2020.1.3,Win32,60,0.004629643,-0.221296307,1,0,0,3.732675,scale,,,,,,0.302267034,0.244948974,0.2468,0.2,stimuli/lakes/603028_left.png,stimuli/lakes/603028_right.png,,,,0,37,37,28,1,,,,,
,,,,,,$6104570035,2020-07-07_19h47.26.758,fisher_task,2020.1.3,Win32,60,0.148148164,-0.350925939,1,0,0,2.981995,scale,,,,,,0.174513954,0.141421356,0.349027907,0.282842712,stimuli/lakes/203033_left.png,stimuli/lakes/203033_right.png,,,,0,38,38,33,1,,,,,
,,,,,,$6104570035,2020-07-07_19h47.26.758,fisher_task,2020.1.3,Win32,60,0.066666681,-0.245370381,1,0,0,4.61634,scale,,,,,,0.302267034,0.244948974,0.2468,0.2,stimuli/lakes/602017_left.png,stimuli/lakes/602017_right.png,,,,0,39,39,17,1,,,,,
,,,,,,$6104570035,2020-07-07_19h47.26.758,fisher_task,2020.1.3,Win32,60,-0.055555543,-0.239814826,1,0,0,6.381535,scale,,,,,,0.3702,0.3,0.1234,0.1,stimuli/lakes/904049_left.png,stimuli/lakes/904049_right.png,,,,0,40,40,49,1,,,,,
,,,,,,$6104570035,2020-07-07_19h47.26.758,fisher_task,2020.1.3,Win32,60,-0.004629616,-0.23425927,1,0,0,2.99932,scale,,,,,,0.21373507,0.173205081,0.326485712,0.264575131,stimuli/lakes/306073_left.png,stimuli/lakes/306073_right.png,,,,0,41,41,73,1,,,,,
,,,,,,$6104570035,2020-07-07_19h47.26.758,fisher_task,2020.1.3,Win32,60,-0.001851839,-0.235185196,1,0,0,6.464465,scale,,,,,,0.349027907,0.282842712,0.174513954,0.141421356,stimuli/lakes/804048_left.png,stimuli/lakes/804048_right.png,,,,0,42,42,48,1,,,,,
,,,,,,$6104570035,2020-07-07_19h47.26.758,fisher_task,2020.1.3,Win32,60,-0.081481413,-0.250000011,1,0,0,3.534015,scale,,,,,,0.21373507,0.173205081,0.326485712,0.264575131,stimuli/lakes/3080110_left.png,stimuli/lakes/3080110_right.png,,,,0,43,43,110,1,,,,,
,,,,,,$6104570035,2020-07-07_19h47.26.758,fisher_task,2020.1.3,Win32,60,-0.087037025,-0.248148159,1,0,0,3.148745,scale,,,,,,0.1234,0.1,0.3702,0.3,stimuli/lakes/1080107_left.png,stimuli/lakes/1080107_right.png,,,space,0,44,44,107,1,5.165305,,,,
,,,,,,$6104570035,2020-07-07_19h47.26.758,fisher_task,2020.1.3,Win32,60,-0.151851841,-0.324074086,1,0,0,4.248675,scale,,,,,,0.2468,0.2,0.302267034,0.244948974,stimuli/lakes/4080111_left.png,stimuli/lakes/4080111_right.png,,,,0,45,45,111,1,,,,,
,,,,,,$6104570035,2020-07-07_19h47.26.758,fisher_task,2020.1.3,Win32,60,0.161111127,-0.403703717,1,0,0,5.01497,scale,,,,,,0.275930788,0.223606798,0.275930788,0.223606798,stimuli/lakes/503027_left.png,stimuli/lakes/503027_right.png,,,,0,46,46,27,1,,,,,
,,,,,,$6104570035,2020-07-07_19h47.26.758,fisher_task,2020.1.3,Win32,60,-0.168518508,-0.382407421,1,0,0,3.247785,scale,,,,,,0.349027907,0.282842712,0.174513954,0.141421356,stimuli/lakes/806078_left.png,stimuli/lakes/806078_right.png,,,,0,47,47,78,1,,,,,
,,,,,,$6104570035,2020-07-07_19h47.26.758,fisher_task,2020.1.3,Win32,60,0.000925939,-0.232407418,1,0,0,3.265435,scale,,,,,,0.349027907,0.282842712,0.174513954,0.141421356,stimuli/lakes/803030_left.png,stimuli/lakes/803030_right.png,,,,0,48,48,30,1,,,,,
,,,,,,$6104570035,2020-07-07_19h47.26.758,fisher_task,2020.1.3,Win32,60,0.167592608,-0.40000007,1,0,0,3.13169,scale,,,,,,0.1234,0.1,0.3702,0.3,stimuli/lakes/103032_left.png,stimuli/lakes/103032_right.png,,,,0,49,49,32,1,,,,,
,,,,,,$6104570035,2020-07-07_19h47.26.758,fisher_task,2020.1.3,Win32,60,-0.004629616,-0.224074141,1,0,0,2.864925,scale,,,,,,0.2468,0.2,0.302267034,0.244948974,stimuli/lakes/405063_left.png,stimuli/lakes/405063_right.png,,,,0,50,50,63,1,,,,,
,,,,,,$6104570035,2020-07-07_19h47.26.758,fisher_task,2020.1.3,Win32,60,-0.182407397,-0.427777848,1,0,0,2.882565,scale,,,,,,0.326485712,0.264575131,0.21373507,0.173205081,stimuli/lakes/7090128_left.png,stimuli/lakes/7090128_right.png,,,,0,51,51,128,1,,,,,
,,,,,,$6104570035,2020-07-07_19h47.26.758,fisher_task,2020.1.3,Win32,60,-0.089814803,-0.262037048,1,0,0,4.248385,scale,,,,,,0.349027907,0.282842712,0.174513954,0.141421356,stimuli/lakes/805069_left.png,stimuli/lakes/805069_right.png,,,,0,52,52,69,1,,,,,
,,,,,,$6104570035,2020-07-07_19h47.26.758,fisher_task,2020.1.3,Win32,60,0.069444459,-0.24351853,1,0,0,2.248695,scale,,,,,,0.2468,0.2,0.302267034,0.244948974,stimuli/lakes/404053_left.png,stimuli/lakes/404053_right.png,,,,0,53,53,53,1,,,,,
,,,,,,$6104570035,2020-07-07_19h47.26.758,fisher_task,2020.1.3,Win32,60,0.098148163,-0.279629698,1,0,0,3.965765,scale,,,,,,0.2468,0.2,0.302267034,0.244948974,stimuli/lakes/404044_left.png,stimuli/lakes/404044_right.png,,,,0,54,54,44,1,,,,,
,,,,,,$6104570035,2020-07-07_19h47.26.758,fisher_task,2020.1.3,Win32,60,0.143518534,-0.344444514,1,0,0,1.88132,scale,,,,,,0.2468,0.2,0.302267034,0.244948974,stimuli/lakes/403026_left.png,stimuli/lakes/403026_right.png,,,,0,55,55,26,1,,,,,
,,,,,,$6104570035,2020-07-07_19h47.26.758,fisher_task,2020.1.3,Win32,60,-0.14074073,-0.336111124,1,0,0,4.61614,scale,,,,,,0.302267034,0.244948974,0.2468,0.2,stimuli/lakes/6070103_left.png,stimuli/lakes/6070103_right.png,,,,0,56,56,103,1,,,,,
,,,,,,$6104570035,2020-07-07_19h47.26.758,fisher_task,2020.1.3,Win32,60,0.082407422,-0.249074085,1,0,0,3.04845,scale,,,,,,0.326485712,0.264575131,0.21373507,0.173205081,stimuli/lakes/702019_left.png,stimuli/lakes/702019_right.png,,,,0,57,57,19,1,,,,,
,,,,,,$6104570035,2020-07-07_19h47.26.758,fisher_task,2020.1.3,Win32,60,-0.002777708,-0.237037048,1,0,0,5.08193,scale,,,,,,0.302267034,0.244948974,0.2468,0.2,stimuli/lakes/604046_left.png,stimuli/lakes/604046_right.png,,,,0,58,58,46,1,,,,,
,,,,,,$6104570035,2020-07-07_19h47.26.758,fisher_task,2020.1.3,Win32,60,-0.130555544,-0.307407476,1,0,0,3.51492,scale,,,,,,0.326485712,0.264575131,0.21373507,0.173205081,stimuli/lakes/706077_left.png,stimuli/lakes/706077_right.png,,,,0,59,59,77,1,,,,,
,,,,,,$6104570035,2020-07-07_19h47.26.758,fisher_task,2020.1.3,Win32,60,0.005555569,-0.244444456,1,0,0,5.81472,scale,,,,,,0.174513954,0.141421356,0.349027907,0.282842712,stimuli/lakes/206081_left.png,stimuli/lakes/206081_right.png,,,,0,60,60,81,1,,,,,
,,,,,,$6104570035,2020-07-07_19h47.26.758,fisher_task,2020.1.3,Win32,60,-0.098148136,-0.269444456,1,0,0,3.38181,scale,,,,,,0.3702,0.3,0.1234,0.1,stimuli/lakes/905070_left.png,stimuli/lakes/905070_right.png,,,,0,61,61,70,1,,,,,
,,,,,,$6104570035,2020-07-07_19h47.26.758,fisher_task,2020.1.3,Win32,60,0.05092594,-0.24722229,1,0,0,3.29877,scale,,,,,,0.3702,0.3,0.1234,0.1,stimuli/lakes/902022_left.png,stimuli/lakes/902022_right.png,,,,0,62,62,22,1,,,,,
,,,,,,$6104570035,2020-07-07_19h47.26.758,fisher_task,2020.1.3,Win32,60,0.132407423,-0.309259271,1,0,0,4.34861,scale,,,,,,0.326485712,0.264575131,0.21373507,0.173205081,stimuli/lakes/70108_left.png,stimuli/lakes/70108_right.png,,,,0,63,63,8,1,,,,,
,,,,,,$6104570035,2020-07-07_19h47.26.758,fisher_task,2020.1.3,Win32,60,0.166666682,-0.39537044,1,0,0,2.749415,scale,,,,,,0.21373507,0.173205081,0.326485712,0.264575131,stimuli/lakes/30101_left.png,stimuli/lakes/30101_right.png,,,,0,64,64,1,1,,,,,
,,,,,,$6104570035,2020-07-07_19h47.26.758,fisher_task,2020.1.3,Win32,60,0.062037051,-0.248148159,1,0,0,5.547925,scale,,,,,,0.2468,0.2,0.302267034,0.244948974,stimuli/lakes/406083_left.png,stimuli/lakes/406083_right.png,,,,0,65,65,83,1,,,,,
,,,,,,$6104570035,2020-07-07_19h47.26.758,fisher_task,2020.1.3,Win32,60,0.002777791,-0.254629641,1,0,0,3.64903,scale,,,,,,0.349027907,0.282842712,0.174513954,0.141421356,stimuli/lakes/804057_left.png,stimuli/lakes/804057_right.png,,,space,0,66,66,57,1,3.312945,,,,
,,,,,,$6104570035,2020-07-07_19h47.26.758,fisher_task,2020.1.3,Win32,60,-0.122222211,-0.293518587,1,0,0,3.39877,scale,,,,,,0.2468,0.2,0.302267034,0.244948974,stimuli/lakes/4090124_left.png,stimuli/lakes/4090124_right.png,,,,0,67,67,124,1,,,,,
,,,,,,$6104570035,2020-07-07_19h47.26.758,fisher_task,2020.1.3,Win32,60,0.097222237,-0.278703715,1,0,0,2.750045,scale,,,,,,0.275930788,0.223606798,0.275930788,0.223606798,stimuli/lakes/504054_left.png,stimuli/lakes/504054_right.png,,,,0,68,68,54,1,,,,,
,,,,,,$6104570035,2020-07-07_19h47.26.758,fisher_task,2020.1.3,Win32,60,0.130555571,-0.322222234,1,0,0,2.84852,scale,,,,,,0.174513954,0.141421356,0.349027907,0.282842712,stimuli/lakes/203024_left.png,stimuli/lakes/203024_right.png,,,,0,69,69,24,1,,,,,
,,,,,,$6104570035,2020-07-07_19h47.26.758,fisher_task,2020.1.3,Win32,60,0.05555557,-0.244444456,1,0,0,4.89791,scale,,,,,,0.302267034,0.244948974,0.2468,0.2,stimuli/lakes/60106_left.png,stimuli/lakes/60106_right.png,,,,0,70,70,6,1,,,,,
,,,,,,$6104570035,2020-07-07_19h47.26.758,fisher_task,2020.1.3,Win32,60,-0.050925913,-0.244444456,1,0,0,5.63099,scale,,,,,,0.174513954,0.141421356,0.349027907,0.282842712,stimuli/lakes/207099_left.png,stimuli/lakes/207099_right.png,,,,0,71,71,99,1,,,,,
,,,,,,$6104570035,2020-07-07_19h47.26.758,fisher_task,2020.1.3,Win32,60,-0.067592524,-0.249074085,1,0,0,2.648865,scale,,,,,,0.21373507,0.173205081,0.326485712,0.264575131,stimuli/lakes/3070100_left.png,stimuli/lakes/3070100_right.png,,,,0,72,72,100,1,,,,,
,,,,,,$6104570035,2020-07-07_19h47.26.758,fisher_task,2020.1.3,Win32,60,0.165740756,-0.379629643,1,0,0,3.248225,scale,,,,,,0.275930788,0.223606798,0.275930788,0.223606798,stimuli/lakes/503036_left.png,stimuli/lakes/503036_right.png,,,,0,73,73,36,1,,,,,
,,,,,,$6104570035,2020-07-07_19h47.26.758,fisher_task,2020.1.3,Win32,60,-0.156481471,-0.372222292,1,0,0,3.199155,scale,,,,,,0.302267034,0.244948974,0.2468,0.2,stimuli/lakes/6090127_left.png,stimuli/lakes/6090127_right.png,,,,0,74,74,127,1,,,,,
,,,,,,$6104570035,2020-07-07_19h47.26.758,fisher_task,2020.1.3,Win32,60,0.10555557,-0.293518587,1,0,0,4.28237,scale,,,,,,0.2468,0.2,0.302267034,0.244948974,stimuli/lakes/402014_left.png,stimuli/lakes/402014_right.png,,,,0,75,75,14,1,,,,,
,,,,,,$6104570035,2020-07-07_19h47.26.758,fisher_task,2020.1.3,Win32,60,0.123148163,-0.324074086,1,0,0,3.481635,scale,,,,,,0.1234,0.1,0.3702,0.3,stimuli/lakes/106071_left.png,stimuli/lakes/106071_right.png,,,,0,76,76,71,1,,,,,
,,,,,,$6104570035,2020-07-07_19h47.26.758,fisher_task,2020.1.3,Win32,60,0.065740755,-0.253703715,1,0,0,5.214495,scale,,,,,,0.3702,0.3,0.1234,0.1,stimuli/lakes/901010_left.png,stimuli/lakes/901010_right.png,,,,0,77,77,10,1,,,,,
,,,,,,$6104570035,2020-07-07_19h47.26.758,fisher_task,2020.1.3,Win32,60,-0.000925913,-0.23796303,1,0,0,1.998345,scale,,,,,,0.302267034,0.244948974,0.2468,0.2,stimuli/lakes/605065_left.png,stimuli/lakes/605065_right.png,,,,0,78,78,65,1,,,,,
,,,,,,$6104570035,2020-07-07_19h47.26.758,fisher_task,2020.1.3,Win32,60,-0.000925913,-0.23796303,1,0,0,3.29801,scale,,,,,,0.174513954,0.141421356,0.349027907,0.282842712,stimuli/lakes/206072_left.png,stimuli/lakes/206072_right.png,,,,0,79,79,72,1,,,,,
,,,,,,$6104570035,2020-07-07_19h47.26.758,fisher_task,2020.1.3,Win32,60,-0.163888878,-0.371296309,1,0,0,3.297995,scale,,,,,,0.349027907,0.282842712,0.174513954,0.141421356,stimuli/lakes/8070105_left.png,stimuli/lakes/8070105_right.png,,,,0,80,80,105,1,,,,,
,,,,,,$6104570035,2020-07-07_19h47.26.758,fisher_task,2020.1.3,Win32,60,-0.154629619,-0.338888901,1,0,0,2.382535,scale,,,,,,0.326485712,0.264575131,0.21373507,0.173205081,stimuli/lakes/706086_left.png,stimuli/lakes/706086_right.png,,,,0,81,81,86,1,,,,,
,,,,,,$6104570035,2020-07-07_19h47.26.758,fisher_task,2020.1.3,Win32,60,-0.168518508,-0.370370383,1,0,0,7.031245,scale,,,,,,0.302267034,0.244948974,0.2468,0.2,stimuli/lakes/607094_left.png,stimuli/lakes/607094_right.png,,,,0,82,82,94,1,,,,,
,,,,,,$6104570035,2020-07-07_19h47.26.758,fisher_task,2020.1.3,Win32,60,0.006481551,-0.237037048,1,0,0,4.63175,scale,,,,,,0.3702,0.3,0.1234,0.1,stimuli/lakes/903031_left.png,stimuli/lakes/903031_right.png,,,,0,83,83,31,1,,,,,
,,,,,,$6104570035,2020-07-07_19h47.26.758,fisher_task,2020.1.3,Win32,60,-0.168518508,-0.39166668,1,0,0,2.115815,scale,,,,,,0.326485712,0.264575131,0.21373507,0.173205081,stimuli/lakes/707095_left.png,stimuli/lakes/707095_right.png,,,,0,84,84,95,1,,,,,
,,,,,,$6104570035,2020-07-07_19h47.26.758,fisher_task,2020.1.3,Win32,60,-0.180555545,-0.390740811,1,0,0,2.565155,scale,,,,,,0.275930788,0.223606798,0.275930788,0.223606798,stimuli/lakes/5070102_left.png,stimuli/lakes/5070102_right.png,,,,0,85,85,102,1,,,,,
,,,,,,$6104570035,2020-07-07_19h47.26.758,fisher_task,2020.1.3,Win32,60,0.103703718,-0.274074086,1,0,0,5.748465,scale,,,,,,0.302267034,0.244948974,0.2468,0.2,stimuli/lakes/602018_left.png,stimuli/lakes/602018_right.png,,,,0,86,86,18,1,,,,,
,,,,,,$6104570035,2020-07-07_19h47.26.758,fisher_task,2020.1.3,Win32,60,1.32455E-08,-0.237037048,1,0,0,3.76485,scale,,,,,,0.302267034,0.244948974,0.2468,0.2,stimuli/lakes/603037_left.png,stimuli/lakes/603037_right.png,,,,0,87,87,37,1,,,,,
,,,,,,$6104570035,2020-07-07_19h47.26.758,fisher_task,2020.1.3,Win32,60,-0.104629561,-0.267592604,1,0,0,3.01531,scale,,,,,,0.2468,0.2,0.302267034,0.244948974,stimuli/lakes/4090123_left.png,stimuli/lakes/4090123_right.png,,,space,0,88,88,123,1,3.56755,,,,
,,,,,,$6104570035,2020-07-07_19h47.26.758,fisher_task,2020.1.3,Win32,60,0.060185199,-0.250000011,1,0,0,2.9659,scale,,,,,,0.326485712,0.264575131,0.21373507,0.173205081,stimuli/lakes/702020_left.png,stimuli/lakes/702020_right.png,,,,0,89,89,20,1,,,,,
,,,,,,$6104570035,2020-07-07_19h47.26.758,fisher_task,2020.1.3,Win32,60,0.138888904,-0.328703716,1,0,0,2.365425,scale,,,,,,0.1234,0.1,0.3702,0.3,stimuli/lakes/104050_left.png,stimuli/lakes/104050_right.png,,,,0,90,90,50,1,,,,,
,,,,,,$6104570035,2020-07-07_19h47.26.758,fisher_task,2020.1.3,Win32,60,-0.13148147,-0.315740753,1,0,0,2.74916,scale,,,,,,0.302267034,0.244948974,0.2468,0.2,stimuli/lakes/605066_left.png,stimuli/lakes/605066_right.png,,,,0,91,91,66,1,,,,,
,,,,,,$6104570035,2020-07-07_19h47.26.758,fisher_task,2020.1.3,Win32,60,-0.071296284,-0.262037048,1,0,0,2.182505,scale,,,,,,0.2468,0.2,0.302267034,0.244948974,stimuli/lakes/4080112_left.png,stimuli/lakes/4080112_right.png,,,,0,92,92,112,1,,,,,
,,,,,,$6104570035,2020-07-07_19h47.26.758,fisher_task,2020.1.3,Win32,60,-0.176851841,-0.382407421,1,0,0,1.7657,scale,,,,,,0.275930788,0.223606798,0.275930788,0.223606798,stimuli/lakes/507093_left.png,stimuli/lakes/507093_right.png,,,,0,93,93,93,1,,,,,
,,,,,,$6104570035,2020-07-07_19h47.26.758,fisher_task,2020.1.3,Win32,60,0.162962979,-0.367592662,1,0,0,3.298295,scale,,,,,,0.21373507,0.173205081,0.326485712,0.264575131,stimuli/lakes/305061_left.png,stimuli/lakes/305061_right.png,,,,0,94,94,61,1,,,,,
,,,,,,$6104570035,2020-07-07_19h47.26.758,fisher_task,2020.1.3,Win32,60,0.01203705,-0.249074085,1,0,0,5.315105,scale,,,,,,0.3702,0.3,0.1234,0.1,stimuli/lakes/904058_left.png,stimuli/lakes/904058_right.png,,,,0,95,95,58,1,,,,,
,,,,,,$6104570035,2020-07-07_19h47.26.758,fisher_task,2020.1.3,Win32,60,-0.137036969,-0.324074086,1,0,0,3.84445,scale,,,,,,0.349027907,0.282842712,0.174513954,0.141421356,stimuli/lakes/806087_left.png,stimuli/lakes/806087_right.png,,,,0,96,96,87,1,,,,,
,,,,,,$6104570035,2020-07-07_19h47.26.758,fisher_task,2020.1.3,Win32,60,-0.044444375,-0.24722229,1,0,0,4.39847,scale,,,,,,0.2468,0.2,0.302267034,0.244948974,stimuli/lakes/4070101_left.png,stimuli/lakes/4070101_right.png,,,,0,97,97,101,1,,,,,
,,,,,,$6104570035,2020-07-07_19h47.26.758,fisher_task,2020.1.3,Win32,60,0.14907409,-0.417592606,1,0,0,2.16557,scale,,,,,,0.174513954,0.141421356,0.349027907,0.282842712,stimuli/lakes/202011_left.png,stimuli/lakes/202011_right.png,,,,0,98,98,11,1,,,,,
,,,,,,$6104570035,2020-07-07_19h47.26.758,fisher_task,2020.1.3,Win32,60,-0.032407395,-0.2388889,1,0,0,5.848645,scale,,,,,,0.174513954,0.141421356,0.349027907,0.282842712,stimuli/lakes/2090120_left.png,stimuli/lakes/2090120_right.png,,,,0,99,99,120,1,,,,,
,,,,,,$6104570035,2020-07-07_19h47.26.758,fisher_task,2020.1.3,Win32,60,0.107407422,-0.291666678,1,0,0,2.014805,scale,,,,,,0.21373507,0.173205081,0.326485712,0.264575131,stimuli/lakes/304043_left.png,stimuli/lakes/304043_right.png,,,,0,100,100,43,1,,,,,
,,,,,,$6104570035,2020-07-07_19h47.26.758,fisher_task,2020.1.3,Win32,60,-0.130555544,-0.317592605,1,0,0,1.78223,scale,,,,,,0.326485712,0.264575131,0.21373507,0.173205081,stimuli/lakes/705068_left.png,stimuli/lakes/705068_right.png,,,,0,101,101,68,1,,,,,
,,,,,,$6104570035,2020-07-07_19h47.26.758,fisher_task,2020.1.3,Win32,60,-0.137036969,-0.330555624,1,0,0,2.69913,scale,,,,,,0.275930788,0.223606798,0.275930788,0.223606798,stimuli/lakes/506075_left.png,stimuli/lakes/506075_right.png,,,,0,102,102,75,1,,,,,
,,,,,,$6104570035,2020-07-07_19h47.26.758,fisher_task,2020.1.3,Win32,60,-0.152777767,-0.351851865,1,0,0,3.23278,scale,,,,,,0.326485712,0.264575131,0.21373507,0.173205081,stimuli/lakes/7070104_left.png,stimuli/lakes/7070104_right.png,,,,0,103,103,104,1,,,,,
,,,,,,$6104570035,2020-07-07_19h47.26.758,fisher_task,2020.1.3,Win32,60,-0.166666656,-0.376851921,1,0,0,2.149735,scale,,,,,,0.275930788,0.223606798,0.275930788,0.223606798,stimuli/lakes/5080113_left.png,stimuli/lakes/5080113_right.png,,,,0,104,104,113,1,,,,,
,,,,,,$6104570035,2020-07-07_19h47.26.758,fisher_task,2020.1.3,Win32,60,0.008333347,-0.254629641,1,0,0,4.26458,scale,,,,,,0.302267034,0.244948974,0.2468,0.2,stimuli/lakes/604055_left.png,stimuli/lakes/604055_right.png,,,,0,105,105,55,1,,,,,
,,,,,,$6104570035,2020-07-07_19h47.26.758,fisher_task,2020.1.3,Win32,60,-0.112037025,-0.299074086,1,0,0,3.59839,scale,,,,,,0.302267034,0.244948974,0.2468,0.2,stimuli/lakes/606076_left.png,stimuli/lakes/606076_right.png,,,,0,106,106,76,1,,,,,
,,,,,,$6104570035,2020-07-07_19h47.26.758,fisher_task,2020.1.3,Win32,60,-0.169444377,-0.40000007,1,0,0,1.963995,scale,,,,,,0.3702,0.3,0.1234,0.1,stimuli/lakes/9070106_left.png,stimuli/lakes/9070106_right.png,,,,0,107,107,106,1,,,,,
,,,,,,$6104570035,2020-07-07_19h47.26.758,fisher_task,2020.1.3,Win32,60,1.32455E-08,-0.237037048,1,0,0,2.56613,scale,,,,,,0.2468,0.2,0.302267034,0.244948974,stimuli/lakes/405064_left.png,stimuli/lakes/405064_right.png,,,,0,108,108,64,1,,,,,
,,,,,,$6104570035,2020-07-07_19h47.26.758,fisher_task,2020.1.3,Win32,60,-0.048148136,-0.24351853,1,0,0,2.698925,scale,,,,,,0.21373507,0.173205081,0.326485712,0.264575131,stimuli/lakes/307091_left.png,stimuli/lakes/307091_right.png,,,,0,109,109,91,1,,,,,
,,,,,,$6104570035,2020-07-07_19h47.26.758,fisher_task,2020.1.3,Win32,60,-0.164814748,-0.373148161,1,0,0,2.64909,scale,,,,,,0.275930788,0.223606798,0.275930788,0.223606798,stimuli/lakes/5090125_left.png,stimuli/lakes/5090125_right.png,,,space,0,110,110,125,1,3.15579,,,,
,,,,,,$6104570035,2020-07-07_19h47.26.758,fisher_task,2020.1.3,Win32,60,-0.003703691,-0.241666678,1,0,0,2.032205,scale,,,,,,0.326485712,0.264575131,0.21373507,0.173205081,stimuli/lakes/703029_left.png,stimuli/lakes/703029_right.png,,,,0,111,111,29,1,,,,,
,,,,,,$6104570035,2020-07-07_19h47.26.758,fisher_task,2020.1.3,Win32,60,-0.16574073,-0.364814828,1,0,0,9.364355,scale,,,,,,0.3702,0.3,0.1234,0.1,stimuli/lakes/906088_left.png,stimuli/lakes/906088_right.png,,,,0,112,112,88,1,,,,,
,,,,,,$6104570035,2020-07-07_19h47.26.758,fisher_task,2020.1.3,Win32,60,0.049074088,-0.244444456,1,0,0,2.83243,scale,,,,,,0.275930788,0.223606798,0.275930788,0.223606798,stimuli/lakes/504045_left.png,stimuli/lakes/504045_right.png,,,,0,113,113,45,1,,,,,
,,,,,,$6104570035,2020-07-07_19h47.26.758,fisher_task,2020.1.3,Win32,60,0.070370385,-0.254629641,1,0,0,2.99833,scale,,,,,,0.21373507,0.173205081,0.326485712,0.264575131,stimuli/lakes/306082_left.png,stimuli/lakes/306082_right.png,,,,0,114,114,82,1,,,,,
,,,,,,$6104570035,2020-07-07_19h47.26.758,fisher_task,2020.1.3,Win32,60,0.070370385,-0.254629641,1,0,0,1.898345,scale,,,,,,0.21373507,0.173205081,0.326485712,0.264575131,stimuli/lakes/305062_left.png,stimuli/lakes/305062_right.png,,,,0,115,115,62,1,,,,,
,,,,,,$6104570035,2020-07-07_19h47.26.758,fisher_task,2020.1.3,Win32,60,-0.102777766,-0.277777789,1,0,0,2.39906,scale,,,,,,0.302267034,0.244948974,0.2468,0.2,stimuli/lakes/606085_left.png,stimuli/lakes/606085_right.png,,,,0,116,116,85,1,,,,,
,,,,,,$6104570035,2020-07-07_19h47.26.758,fisher_task,2020.1.3,Win32,60,0.129629645,-0.301851864,1,0,0,1.999205,scale,,,,,,0.2468,0.2,0.302267034,0.244948974,stimuli/lakes/402015_left.png,stimuli/lakes/402015_right.png,,,,0,117,117,15,1,,,,,
,,,,,,$6104570035,2020-07-07_19h47.26.758,fisher_task,2020.1.3,Win32,60,-0.002777708,-0.2388889,1,0,0,3.664555,scale,,,,,,0.174513954,0.141421356,0.349027907,0.282842712,stimuli/lakes/207090_left.png,stimuli/lakes/207090_right.png,,,,0,118,118,90,1,,,,,
,,,,,,$6104570035,2020-07-07_19h47.26.758,fisher_task,2020.1.3,Win32,60,-0.107407396,-0.275000068,1,0,0,2.832135,scale,,,,,,0.326485712,0.264575131,0.21373507,0.173205081,stimuli/lakes/705067_left.png,stimuli/lakes/705067_right.png,,,,0,119,119,67,1,,,,,
,,,,,,$6104570035,2020-07-07_19h47.26.758,fisher_task,2020.1.3,Win32,60,-0.182407397,-0.41666668,1,0,0,2.58241,scale,,,,,,0.326485712,0.264575131,0.21373507,0.173205081,stimuli/lakes/7090129_left.png,stimuli/lakes/7090129_right.png,,,,0,120,120,129,1,,,,,
,,,,,,$6104570035,2020-07-07_19h47.26.758,fisher_task,2020.1.3,Win32,60,-0.03796295,-0.23796303,1,0,0,4.147765,scale,,,,,,0.21373507,0.173205081,0.326485712,0.264575131,stimuli/lakes/3080109_left.png,stimuli/lakes/3080109_right.png,,,,0,121,121,109,1,,,,,
,,,,,,$6104570035,2020-07-07_19h47.26.758,fisher_task,2020.1.3,Win32,60,0.004629643,-0.237037048,1,0,0,3.764735,scale,,,,,,0.326485712,0.264575131,0.21373507,0.173205081,stimuli/lakes/704047_left.png,stimuli/lakes/704047_right.png,,,,0,122,122,47,1,,,,,
,,,,,,$6104570035,2020-07-07_19h47.26.758,fisher_task,2020.1.3,Win32,60,-0.113888821,-0.295370382,1,0,0,1.94882,scale,,,,,,0.275930788,0.223606798,0.275930788,0.223606798,stimuli/lakes/506084_left.png,stimuli/lakes/506084_right.png,,,,0,123,123,84,1,,,,,
,,,,,,$6104570035,2020-07-07_19h47.26.758,fisher_task,2020.1.3,Win32,60,0.136111126,-0.342592605,1,0,0,1.782545,scale,,,,,,0.2468,0.2,0.302267034,0.244948974,stimuli/lakes/403035_left.png,stimuli/lakes/403035_right.png,,,,0,124,124,35,1,,,,,
,,,,,,$6104570035,2020-07-07_19h47.26.758,fisher_task,2020.1.3,Win32,60,0.160185201,-0.35277779,1,0,0,2.016,scale,,,,,,0.275930788,0.223606798,0.275930788,0.223606798,stimuli/lakes/50104_left.png,stimuli/lakes/50104_right.png,,,,0,125,125,4,1,,,,,
,,,,,,$6104570035,2020-07-07_19h47.26.758,fisher_task,2020.1.3,Win32,60,0.145370386,-0.325000012,1,0,0,2.71501,scale,,,,,,0.174513954,0.141421356,0.349027907,0.282842712,stimuli/lakes/204051_left.png,stimuli/lakes/204051_right.png,,,,0,126,126,51,1,,,,,
,,,,,,$6104570035,2020-07-07_19h47.26.758,fisher_task,2020.1.3,Win32,60,0.14907409,-0.33240742,1,0,0,3.61566,scale,,,,,,0.21373507,0.173205081,0.326485712,0.264575131,stimuli/lakes/302012_left.png,stimuli/lakes/302012_right.png,,,,0,127,127,12,1,,,,,
,,,,,,$6104570035,2020-07-07_19h47.26.758,fisher_task,2020.1.3,Win32,60,-0.055555543,-0.236111122,1,0,0,4.44875,scale,,,,,,0.21373507,0.173205081,0.326485712,0.264575131,stimuli/lakes/3090121_left.png,stimuli/lakes/3090121_right.png,,,,0,128,128,121,1,,,,,
,,,,,,$6104570035,2020-07-07_19h47.26.758,fisher_task,2020.1.3,Win32,60,-0.16574073,-0.381481551,1,0,0,4.74839,scale,,,,,,0.349027907,0.282842712,0.174513954,0.141421356,stimuli/lakes/8080118_left.png,stimuli/lakes/8080118_right.png,,,,0,129,129,118,1,,,,,
,,,,,,$6104570035,2020-07-07_19h47.26.758,fisher_task,2020.1.3,Win32,60,,,,,,,,,,,,,,,,,,,,,,,,,,,,space,11.20487,space,31.57597
