keySpace.keys,instructions.thisRepN,instructions.thisTrialN,instructions.thisN,instructions.thisIndex,instructions.ran,participant,date,expName,psychopyVersion,OS,frameRate,mouse.x,mouse.y,mouse.leftButton,mouse.midButton,mouse.rightButton,mouse.time,mouse.clicked_name,training.thisRepN,training.thisTrialN,training.thisN,training.thisIndex,training.ran,widthBasketLeft,heightBasketLeft,widthBasketRight,heightBasketRight,leftLake,rightLake,space2.keys,space2.rt,space1.keys,trials.thisRepN,trials.thisTrialN,trials.thisN,trials.thisIndex,trials.ran,space1.rt,finalSpace1.keys,finalSpace1.rt,finalSpace2.keys,finalSpace2.rt
,0,0,0,0,1,$2516048461,2020-07-08_20h06.35.641,fisher_task,2020.1.3,Win32,60,,,,,,,,,,,,,,,,,,,,,,,,,,,,,,,
,,,,,,$2516048461,2020-07-08_20h06.35.641,fisher_task,2020.1.3,Win32,60,0.169444444,-0.348148148,1,0,0,6.114745,scale,0,0,0,0,1,0.275930788,0.223606798,0.275930788,0.223606798,stimuli/training/20_left.png,stimuli/training/20_right.png,,,,,,,,,,,,,
,,,,,,$2516048461,2020-07-08_20h06.35.641,fisher_task,2020.1.3,Win32,60,-0.149074074,-0.344444444,1,0,0,3.54847,scale,0,1,1,1,1,0.275930788,0.223606798,0.275930788,0.223606798,stimuli/training/80_left.png,stimuli/training/80_right.png,,,,,,,,,,,,,
,,,,,,$2516048461,2020-07-08_20h06.35.641,fisher_task,2020.1.3,Win32,60,0.146296296,-0.302777778,1,0,0,6.7812,scale,0,2,2,2,1,0.174513954,0.141421356,0.349027907,0.282842712,stimuli/training/50_left.png,stimuli/training/50_right.png,,,,,,,,,,,,,
,,,,,,$2516048461,2020-07-08_20h06.35.641,fisher_task,2020.1.3,Win32,60,-0.109259259,-0.265740741,1,0,0,2.948585,scale,0,3,3,3,1,0.349027907,0.282842712,0.174513954,0.141421356,stimuli/training/50_left.png,stimuli/training/50_right.png,,,,,,,,,,,,,
,,,,,,$2516048461,2020-07-08_20h06.35.641,fisher_task,2020.1.3,Win32,60,0.000925926,-0.241666667,1,0,0,3.23148,scale,0,4,4,4,1,0.275930788,0.223606798,0.275930788,0.223606798,stimuli/training/50_left.png,stimuli/training/50_right.png,,,,,,,,,,,,,
,,,,,,$2516048461,2020-07-08_20h06.35.641,fisher_task,2020.1.3,Win32,60,0.17037037,-0.419444444,1,0,0,2.532365,scale,0,5,5,5,1,0.174513954,0.141421356,0.349027907,0.282842712,stimuli/training/20_left.png,stimuli/training/20_right.png,,,,,,,,,,,,,
,,,,,,$2516048461,2020-07-08_20h06.35.641,fisher_task,2020.1.3,Win32,60,-0.165740741,-0.418518519,1,0,0,2.29861,scale,0,6,6,6,1,0.349027907,0.282842712,0.174513954,0.141421356,stimuli/training/80_left.png,stimuli/training/80_right.png,,,,,,,,,,,,,
,,,,,,$2516048461,2020-07-08_20h06.35.641,fisher_task,2020.1.3,Win32,60,0.155555556,-0.339814815,1,0,0,2.2493,scale,0,7,7,7,1,0.1234,0.1,0.3702,0.3,stimuli/training/30_left.png,stimuli/training/30_right.png,,,,,,,,,,,,,
,,,,,,$2516048461,2020-07-08_20h06.35.641,fisher_task,2020.1.3,Win32,60,-0.15462963,-0.418518519,1,0,0,2.36597,scale,0,8,8,8,1,0.3702,0.3,0.1234,0.1,stimuli/training/70_left.png,stimuli/training/70_right.png,,,,,,,,,,,,,
,,,,,,$2516048461,2020-07-08_20h06.35.641,fisher_task,2020.1.3,Win32,60,-0.171296296,-0.435185185,1,0,0,2.365335,scale,0,9,9,9,1,0.326485712,0.264575131,0.21373507,0.173205081,stimuli/training/90_left.png,stimuli/training/90_right.png,,,,,,,,,,,,,
,,,,,,$2516048461,2020-07-08_20h06.35.641,fisher_task,2020.1.3,Win32,60,0.178703704,-0.434259259,1,0,0,2.14888,scale,0,10,10,10,1,0.21373507,0.173205081,0.326485712,0.264575131,stimuli/training/10_left.png,stimuli/training/10_right.png,,,,,,,,,,,,,
,,,,,,$2516048461,2020-07-08_20h06.35.641,fisher_task,2020.1.3,Win32,60,0.00462963,-0.232407407,1,0,0,4.66491,scale,,,,,,0.21373507,0.173205081,0.326485712,0.264575131,stimuli/lakes/306073_left.png,stimuli/lakes/306073_right.png,space,6.108915,,0,0,0,73,1,,,,,
,,,,,,$2516048461,2020-07-08_20h06.35.641,fisher_task,2020.1.3,Win32,60,0.000925926,-0.24537037,1,0,0,5.348035,scale,,,,,,0.1234,0.1,0.3702,0.3,stimuli/lakes/107098_left.png,stimuli/lakes/107098_right.png,,,,0,1,1,98,1,,,,,
,,,,,,$2516048461,2020-07-08_20h06.35.641,fisher_task,2020.1.3,Win32,60,0.177777778,-0.431481481,1,0,0,2.065565,scale,,,,,,0.174513954,0.141421356,0.349027907,0.282842712,stimuli/lakes/202011_left.png,stimuli/lakes/202011_right.png,,,,0,2,2,11,1,,,,,
,,,,,,$2516048461,2020-07-08_20h06.35.641,fisher_task,2020.1.3,Win32,60,0.135185185,-0.3,1,0,0,5.498585,scale,,,,,,0.326485712,0.264575131,0.21373507,0.173205081,stimuli/lakes/70108_left.png,stimuli/lakes/70108_right.png,,,,0,3,3,8,1,,,,,
,,,,,,$2516048461,2020-07-08_20h06.35.641,fisher_task,2020.1.3,Win32,60,0.083333333,-0.251851852,1,0,0,3.532235,scale,,,,,,0.2468,0.2,0.302267034,0.244948974,stimuli/lakes/407092_left.png,stimuli/lakes/407092_right.png,,,,0,4,4,92,1,,,,,
,,,,,,$2516048461,2020-07-08_20h06.35.641,fisher_task,2020.1.3,Win32,60,-0.088888889,-0.257407407,1,0,0,4.28145,scale,,,,,,0.3702,0.3,0.1234,0.1,stimuli/lakes/904049_left.png,stimuli/lakes/904049_right.png,,,,0,5,5,49,1,,,,,
,,,,,,$2516048461,2020-07-08_20h06.35.641,fisher_task,2020.1.3,Win32,60,0.143518519,-0.302777778,1,0,0,2.132465,scale,,,,,,0.275930788,0.223606798,0.275930788,0.223606798,stimuli/lakes/502016_left.png,stimuli/lakes/502016_right.png,,,,0,6,6,16,1,,,,,
,,,,,,$2516048461,2020-07-08_20h06.35.641,fisher_task,2020.1.3,Win32,60,-0.162037037,-0.372222222,1,0,0,2.96575,scale,,,,,,0.3702,0.3,0.1234,0.1,stimuli/lakes/906088_left.png,stimuli/lakes/906088_right.png,,,,0,7,7,88,1,,,,,
,,,,,,$2516048461,2020-07-08_20h06.35.641,fisher_task,2020.1.3,Win32,60,0.136111111,-0.299074074,1,0,0,2.8656,scale,,,,,,0.2468,0.2,0.302267034,0.244948974,stimuli/lakes/405064_left.png,stimuli/lakes/405064_right.png,,,,0,8,8,64,1,,,,,
,,,,,,$2516048461,2020-07-08_20h06.35.641,fisher_task,2020.1.3,Win32,60,-0.177777778,-0.393518519,1,0,0,2.13255,scale,,,,,,0.349027907,0.282842712,0.174513954,0.141421356,stimuli/lakes/8070105_left.png,stimuli/lakes/8070105_right.png,,,,0,9,9,105,1,,,,,
,,,,,,$2516048461,2020-07-08_20h06.35.641,fisher_task,2020.1.3,Win32,60,-0.075,-0.257407407,1,0,0,1.898775,scale,,,,,,0.3702,0.3,0.1234,0.1,stimuli/lakes/903031_left.png,stimuli/lakes/903031_right.png,,,,0,10,10,31,1,,,,,
,,,,,,$2516048461,2020-07-08_20h06.35.641,fisher_task,2020.1.3,Win32,60,0.181481481,-0.422222222,1,0,0,2.41559,scale,,,,,,0.21373507,0.173205081,0.326485712,0.264575131,stimuli/lakes/303034_left.png,stimuli/lakes/303034_right.png,,,,0,11,11,34,1,,,,,
,,,,,,$2516048461,2020-07-08_20h06.35.641,fisher_task,2020.1.3,Win32,60,0.180555556,-0.399074074,1,0,0,2.53227,scale,,,,,,0.1234,0.1,0.3702,0.3,stimuli/lakes/104050_left.png,stimuli/lakes/104050_right.png,,,,0,12,12,50,1,,,,,
,,,,,,$2516048461,2020-07-08_20h06.35.641,fisher_task,2020.1.3,Win32,60,0.089814815,-0.257407407,1,0,0,2.815135,scale,,,,,,0.275930788,0.223606798,0.275930788,0.223606798,stimuli/lakes/503036_left.png,stimuli/lakes/503036_right.png,,,,0,13,13,36,1,,,,,
,,,,,,$2516048461,2020-07-08_20h06.35.641,fisher_task,2020.1.3,Win32,60,-0.110185185,-0.287962963,1,0,0,1.982025,scale,,,,,,0.302267034,0.244948974,0.2468,0.2,stimuli/lakes/6080114_left.png,stimuli/lakes/6080114_right.png,,,,0,14,14,114,1,,,,,
,,,,,,$2516048461,2020-07-08_20h06.35.641,fisher_task,2020.1.3,Win32,60,-0.152777778,-0.343518519,1,0,0,1.782515,scale,,,,,,0.302267034,0.244948974,0.2468,0.2,stimuli/lakes/607094_left.png,stimuli/lakes/607094_right.png,,,,0,15,15,94,1,,,,,
,,,,,,$2516048461,2020-07-08_20h06.35.641,fisher_task,2020.1.3,Win32,60,0.107407407,-0.278703704,1,0,0,2.19892,scale,,,,,,0.1234,0.1,0.3702,0.3,stimuli/lakes/106080_left.png,stimuli/lakes/106080_right.png,,,,0,16,16,80,1,,,,,
,,,,,,$2516048461,2020-07-08_20h06.35.641,fisher_task,2020.1.3,Win32,60,-0.152777778,-0.331481481,1,0,0,3.665355,scale,,,,,,0.349027907,0.282842712,0.174513954,0.141421356,stimuli/lakes/806078_left.png,stimuli/lakes/806078_right.png,,,,0,17,17,78,1,,,,,
,,,,,,$2516048461,2020-07-08_20h06.35.641,fisher_task,2020.1.3,Win32,60,0.167592593,-0.382407407,1,0,0,3.132145,scale,,,,,,0.21373507,0.173205081,0.326485712,0.264575131,stimuli/lakes/30100_left.png,stimuli/lakes/30100_right.png,,,,0,18,18,0,1,,,,,
,,,,,,$2516048461,2020-07-08_20h06.35.641,fisher_task,2020.1.3,Win32,60,-0.155555556,-0.324074074,1,0,0,2.965265,scale,,,,,,0.275930788,0.223606798,0.275930788,0.223606798,stimuli/lakes/5080113_left.png,stimuli/lakes/5080113_right.png,,,,0,19,19,113,1,,,,,
,,,,,,$2516048461,2020-07-08_20h06.35.641,fisher_task,2020.1.3,Win32,60,-0.160185185,-0.336111111,1,0,0,1.499505,scale,,,,,,0.275930788,0.223606798,0.275930788,0.223606798,stimuli/lakes/5090125_left.png,stimuli/lakes/5090125_right.png,,,,0,20,20,125,1,,,,,
,,,,,,$2516048461,2020-07-08_20h06.35.641,fisher_task,2020.1.3,Win32,60,0.078703704,-0.252777778,1,0,0,3.39904,scale,,,,,,0.302267034,0.244948974,0.2468,0.2,stimuli/lakes/602018_left.png,stimuli/lakes/602018_right.png,,,,0,21,21,18,1,,,,,
,,,,,,$2516048461,2020-07-08_20h06.35.641,fisher_task,2020.1.3,Win32,60,0.005555556,-0.241666667,1,0,0,9.29683,scale,,,,,,0.326485712,0.264575131,0.21373507,0.173205081,stimuli/lakes/70107_left.png,stimuli/lakes/70107_right.png,,,space,0,22,22,7,1,4.333045,,,,
,,,,,,$2516048461,2020-07-08_20h06.35.641,fisher_task,2020.1.3,Win32,60,0.178703704,-0.42962963,1,0,0,1.89909,scale,,,,,,0.21373507,0.173205081,0.326485712,0.264575131,stimuli/lakes/30101_left.png,stimuli/lakes/30101_right.png,,,,0,23,23,1,1,,,,,
,,,,,,$2516048461,2020-07-08_20h06.35.641,fisher_task,2020.1.3,Win32,60,0.157407407,-0.34537037,1,0,0,1.649295,scale,,,,,,0.174513954,0.141421356,0.349027907,0.282842712,stimuli/lakes/204051_left.png,stimuli/lakes/204051_right.png,,,,0,24,24,51,1,,,,,
,,,,,,$2516048461,2020-07-08_20h06.35.641,fisher_task,2020.1.3,Win32,60,-0.144444444,-0.369444444,1,0,0,2.132155,scale,,,,,,0.326485712,0.264575131,0.21373507,0.173205081,stimuli/lakes/7080116_left.png,stimuli/lakes/7080116_right.png,,,,0,25,25,116,1,,,,,
,,,,,,$2516048461,2020-07-08_20h06.35.641,fisher_task,2020.1.3,Win32,60,0.175,-0.425925926,1,0,0,1.949035,scale,,,,,,0.2468,0.2,0.302267034,0.244948974,stimuli/lakes/40103_left.png,stimuli/lakes/40103_right.png,,,,0,26,26,3,1,,,,,
,,,,,,$2516048461,2020-07-08_20h06.35.641,fisher_task,2020.1.3,Win32,60,0.059259259,-0.243518519,1,0,0,3.08232,scale,,,,,,0.2468,0.2,0.302267034,0.244948974,stimuli/lakes/4070101_left.png,stimuli/lakes/4070101_right.png,,,,0,27,27,101,1,,,,,
,,,,,,$2516048461,2020-07-08_20h06.35.641,fisher_task,2020.1.3,Win32,60,0.082407407,-0.252777778,1,0,0,2.2656,scale,,,,,,0.174513954,0.141421356,0.349027907,0.282842712,stimuli/lakes/2080108_left.png,stimuli/lakes/2080108_right.png,,,,0,28,28,108,1,,,,,
,,,,,,$2516048461,2020-07-08_20h06.35.641,fisher_task,2020.1.3,Win32,60,0.124074074,-0.3,1,0,0,2.53271,scale,,,,,,0.174513954,0.141421356,0.349027907,0.282842712,stimuli/lakes/204042_left.png,stimuli/lakes/204042_right.png,,,,0,29,29,42,1,,,,,
,,,,,,$2516048461,2020-07-08_20h06.35.641,fisher_task,2020.1.3,Win32,60,-0.062962963,-0.240740741,1,0,0,1.89866,scale,,,,,,0.3702,0.3,0.1234,0.1,stimuli/lakes/904058_left.png,stimuli/lakes/904058_right.png,,,,0,30,30,58,1,,,,,
,,,,,,$2516048461,2020-07-08_20h06.35.641,fisher_task,2020.1.3,Win32,60,0.126851852,-0.291666667,1,0,0,2.681955,scale,,,,,,0.275930788,0.223606798,0.275930788,0.223606798,stimuli/lakes/504054_left.png,stimuli/lakes/504054_right.png,,,,0,31,31,54,1,,,,,
,,,,,,$2516048461,2020-07-08_20h06.35.641,fisher_task,2020.1.3,Win32,60,0.098148148,-0.27037037,1,0,0,3.54861,scale,,,,,,0.326485712,0.264575131,0.21373507,0.173205081,stimuli/lakes/705067_left.png,stimuli/lakes/705067_right.png,,,,0,32,32,67,1,,,,,
,,,,,,$2516048461,2020-07-08_20h06.35.641,fisher_task,2020.1.3,Win32,60,-0.169444444,-0.386111111,1,0,0,1.63295,scale,,,,,,0.3702,0.3,0.1234,0.1,stimuli/lakes/907097_left.png,stimuli/lakes/907097_right.png,,,,0,33,33,97,1,,,,,
,,,,,,$2516048461,2020-07-08_20h06.35.641,fisher_task,2020.1.3,Win32,60,0.126851852,-0.312037037,1,0,0,2.015465,scale,,,,,,0.275930788,0.223606798,0.275930788,0.223606798,stimuli/lakes/503027_left.png,stimuli/lakes/503027_right.png,,,,0,34,34,27,1,,,,,
,,,,,,$2516048461,2020-07-08_20h06.35.641,fisher_task,2020.1.3,Win32,60,-0.069444444,-0.250925926,1,0,0,3.231735,scale,,,,,,0.3702,0.3,0.1234,0.1,stimuli/lakes/903040_left.png,stimuli/lakes/903040_right.png,,,,0,35,35,40,1,,,,,
,,,,,,$2516048461,2020-07-08_20h06.35.641,fisher_task,2020.1.3,Win32,60,-0.15462963,-0.358333333,1,0,0,2.19871,scale,,,,,,0.326485712,0.264575131,0.21373507,0.173205081,stimuli/lakes/706086_left.png,stimuli/lakes/706086_right.png,,,,0,36,36,86,1,,,,,
,,,,,,$2516048461,2020-07-08_20h06.35.641,fisher_task,2020.1.3,Win32,60,-0.069444444,-0.243518519,1,0,0,4.415255,scale,,,,,,0.302267034,0.244948974,0.2468,0.2,stimuli/lakes/604046_left.png,stimuli/lakes/604046_right.png,,,,0,37,37,46,1,,,,,
,,,,,,$2516048461,2020-07-08_20h06.35.641,fisher_task,2020.1.3,Win32,60,0.175925926,-0.372222222,1,0,0,2.032105,scale,,,,,,0.1234,0.1,0.3702,0.3,stimuli/lakes/103032_left.png,stimuli/lakes/103032_right.png,,,,0,38,38,32,1,,,,,
,,,,,,$2516048461,2020-07-08_20h06.35.641,fisher_task,2020.1.3,Win32,60,0.156481481,-0.325,1,0,0,2.64877,scale,,,,,,0.2468,0.2,0.302267034,0.244948974,stimuli/lakes/403035_left.png,stimuli/lakes/403035_right.png,,,,0,39,39,35,1,,,,,
,,,,,,$2516048461,2020-07-08_20h06.35.641,fisher_task,2020.1.3,Win32,60,-0.097222222,-0.256481481,1,0,0,2.732435,scale,,,,,,0.302267034,0.244948974,0.2468,0.2,stimuli/lakes/603028_left.png,stimuli/lakes/603028_right.png,,,,0,40,40,28,1,,,,,
,,,,,,$2516048461,2020-07-08_20h06.35.641,fisher_task,2020.1.3,Win32,60,0.059259259,-0.242592593,1,0,0,3.831975,scale,,,,,,0.21373507,0.173205081,0.326485712,0.264575131,stimuli/lakes/3090121_left.png,stimuli/lakes/3090121_right.png,,,,0,41,41,121,1,,,,,
,,,,,,$2516048461,2020-07-08_20h06.35.641,fisher_task,2020.1.3,Win32,60,-0.12962963,-0.272222222,1,0,0,2.132135,scale,,,,,,0.275930788,0.223606798,0.275930788,0.223606798,stimuli/lakes/507093_left.png,stimuli/lakes/507093_right.png,,,,0,42,42,93,1,,,,,
,,,,,,$2516048461,2020-07-08_20h06.35.641,fisher_task,2020.1.3,Win32,60,-0.178703704,-0.361111111,1,0,0,2.881815,scale,,,,,,0.174513954,0.141421356,0.349027907,0.282842712,stimuli/lakes/207099_left.png,stimuli/lakes/207099_right.png,,,,0,43,43,99,1,,,,,
,,,,,,$2516048461,2020-07-08_20h06.35.641,fisher_task,2020.1.3,Win32,60,0.169444444,-0.377777778,1,0,0,1.715875,scale,,,,,,0.2468,0.2,0.302267034,0.244948974,stimuli/lakes/403026_left.png,stimuli/lakes/403026_right.png,,,space,0,44,44,26,1,2.738605,,,,
,,,,,,$2516048461,2020-07-08_20h06.35.641,fisher_task,2020.1.3,Win32,60,0.112037037,-0.274074074,1,0,0,1.582295,scale,,,,,,0.1234,0.1,0.3702,0.3,stimuli/lakes/106071_left.png,stimuli/lakes/106071_right.png,,,,0,45,45,71,1,,,,,
,,,,,,$2516048461,2020-07-08_20h06.35.641,fisher_task,2020.1.3,Win32,60,-0.00462963,-0.224074074,1,0,0,4.347715,scale,,,,,,0.349027907,0.282842712,0.174513954,0.141421356,stimuli/lakes/80109_left.png,stimuli/lakes/80109_right.png,,,,0,46,46,9,1,,,,,
,,,,,,$2516048461,2020-07-08_20h06.35.641,fisher_task,2020.1.3,Win32,60,0.108333333,-0.284259259,1,0,0,2.74879,scale,,,,,,0.174513954,0.141421356,0.349027907,0.282842712,stimuli/lakes/206081_left.png,stimuli/lakes/206081_right.png,,,,0,47,47,81,1,,,,,
,,,,,,$2516048461,2020-07-08_20h06.35.641,fisher_task,2020.1.3,Win32,60,0.125925926,-0.287037037,1,0,0,2.965825,scale,,,,,,0.174513954,0.141421356,0.349027907,0.282842712,stimuli/lakes/206072_left.png,stimuli/lakes/206072_right.png,,,,0,48,48,72,1,,,,,
,,,,,,$2516048461,2020-07-08_20h06.35.641,fisher_task,2020.1.3,Win32,60,0.167592593,-0.399074074,1,0,0,3.44852,scale,,,,,,0.1234,0.1,0.3702,0.3,stimuli/lakes/103023_left.png,stimuli/lakes/103023_right.png,,,,0,49,49,23,1,,,,,
,,,,,,$2516048461,2020-07-08_20h06.35.641,fisher_task,2020.1.3,Win32,60,-0.131481481,-0.280555556,1,0,0,1.89889,scale,,,,,,0.349027907,0.282842712,0.174513954,0.141421356,stimuli/lakes/804057_left.png,stimuli/lakes/804057_right.png,,,,0,50,50,57,1,,,,,
,,,,,,$2516048461,2020-07-08_20h06.35.641,fisher_task,2020.1.3,Win32,60,-0.167592593,-0.339814815,1,0,0,1.83265,scale,,,,,,0.302267034,0.244948974,0.2468,0.2,stimuli/lakes/606085_left.png,stimuli/lakes/606085_right.png,,,,0,51,51,85,1,,,,,
,,,,,,$2516048461,2020-07-08_20h06.35.641,fisher_task,2020.1.3,Win32,60,0.130555556,-0.27962963,1,0,0,2.84937,scale,,,,,,0.21373507,0.173205081,0.326485712,0.264575131,stimuli/lakes/305062_left.png,stimuli/lakes/305062_right.png,,,,0,52,52,62,1,,,,,
,,,,,,$2516048461,2020-07-08_20h06.35.641,fisher_task,2020.1.3,Win32,60,-0.006481481,-0.230555556,1,0,0,3.9156,scale,,,,,,0.302267034,0.244948974,0.2468,0.2,stimuli/lakes/60106_left.png,stimuli/lakes/60106_right.png,,,,0,53,53,6,1,,,,,
,,,,,,$2516048461,2020-07-08_20h06.35.641,fisher_task,2020.1.3,Win32,60,0.083333333,-0.262037037,1,0,0,2.7486,scale,,,,,,0.2468,0.2,0.302267034,0.244948974,stimuli/lakes/404053_left.png,stimuli/lakes/404053_right.png,,,,0,54,54,53,1,,,,,
,,,,,,$2516048461,2020-07-08_20h06.35.641,fisher_task,2020.1.3,Win32,60,-0.133333333,-0.290740741,1,0,0,4.331975,scale,,,,,,0.275930788,0.223606798,0.275930788,0.223606798,stimuli/lakes/506084_left.png,stimuli/lakes/506084_right.png,,,,0,55,55,84,1,,,,,
,,,,,,$2516048461,2020-07-08_20h06.35.641,fisher_task,2020.1.3,Win32,60,-0.102777778,-0.264814815,1,0,0,6.630875,scale,,,,,,0.326485712,0.264575131,0.21373507,0.173205081,stimuli/lakes/703029_left.png,stimuli/lakes/703029_right.png,,,,0,56,56,29,1,,,,,
,,,,,,$2516048461,2020-07-08_20h06.35.641,fisher_task,2020.1.3,Win32,60,0.068518519,-0.25,1,0,0,2.132405,scale,,,,,,0.174513954,0.141421356,0.349027907,0.282842712,stimuli/lakes/207090_left.png,stimuli/lakes/207090_right.png,,,,0,57,57,90,1,,,,,
,,,,,,$2516048461,2020-07-08_20h06.35.641,fisher_task,2020.1.3,Win32,60,-0.173148148,-0.32962963,1,0,0,1.981425,scale,,,,,,0.275930788,0.223606798,0.275930788,0.223606798,stimuli/lakes/506075_left.png,stimuli/lakes/506075_right.png,,,,0,58,58,75,1,,,,,
,,,,,,$2516048461,2020-07-08_20h06.35.641,fisher_task,2020.1.3,Win32,60,-0.180555556,-0.424074074,1,0,0,1.315815,scale,,,,,,0.326485712,0.264575131,0.21373507,0.173205081,stimuli/lakes/7080117_left.png,stimuli/lakes/7080117_right.png,,,,0,59,59,117,1,,,,,
,,,,,,$2516048461,2020-07-08_20h06.35.641,fisher_task,2020.1.3,Win32,60,-0.103703704,-0.255555556,1,0,0,2.98175,scale,,,,,,0.349027907,0.282842712,0.174513954,0.141421356,stimuli/lakes/804048_left.png,stimuli/lakes/804048_right.png,,,,0,60,60,48,1,,,,,
,,,,,,$2516048461,2020-07-08_20h06.35.641,fisher_task,2020.1.3,Win32,60,0.007407407,-0.242592593,1,0,0,6.564095,scale,,,,,,0.3702,0.3,0.1234,0.1,stimuli/lakes/905070_left.png,stimuli/lakes/905070_right.png,,,,0,61,61,70,1,,,,,
,,,,,,$2516048461,2020-07-08_20h06.35.641,fisher_task,2020.1.3,Win32,60,-0.049074074,-0.239814815,1,0,0,7.31397,scale,,,,,,0.302267034,0.244948974,0.2468,0.2,stimuli/lakes/605065_left.png,stimuli/lakes/605065_right.png,,,,0,62,62,65,1,,,,,
,,,,,,$2516048461,2020-07-08_20h06.35.641,fisher_task,2020.1.3,Win32,60,0.089814815,-0.265740741,1,0,0,1.86568,scale,,,,,,0.2468,0.2,0.302267034,0.244948974,stimuli/lakes/405063_left.png,stimuli/lakes/405063_right.png,,,,0,63,63,63,1,,,,,
,,,,,,$2516048461,2020-07-08_20h06.35.641,fisher_task,2020.1.3,Win32,60,0.153703704,-0.328703704,1,0,0,1.79886,scale,,,,,,0.275930788,0.223606798,0.275930788,0.223606798,stimuli/lakes/50104_left.png,stimuli/lakes/50104_right.png,,,,0,64,64,4,1,,,,,
,,,,,,$2516048461,2020-07-08_20h06.35.641,fisher_task,2020.1.3,Win32,60,-0.00462963,-0.234259259,1,0,0,2.2826,scale,,,,,,0.1234,0.1,0.3702,0.3,stimuli/lakes/1080107_left.png,stimuli/lakes/1080107_right.png,,,,0,65,65,107,1,,,,,
,,,,,,$2516048461,2020-07-08_20h06.35.641,fisher_task,2020.1.3,Win32,60,-0.166666667,-0.383333333,1,0,0,1.49915,scale,,,,,,0.326485712,0.264575131,0.21373507,0.173205081,stimuli/lakes/7090129_left.png,stimuli/lakes/7090129_right.png,,,space,0,66,66,129,1,2.275555,,,,
,,,,,,$2516048461,2020-07-08_20h06.35.641,fisher_task,2020.1.3,Win32,60,-0.069444444,-0.258333333,1,0,0,3.58187,scale,,,,,,0.1234,0.1,0.3702,0.3,stimuli/lakes/107089_left.png,stimuli/lakes/107089_right.png,,,,0,67,67,89,1,,,,,
,,,,,,$2516048461,2020-07-08_20h06.35.641,fisher_task,2020.1.3,Win32,60,0.088888889,-0.265740741,1,0,0,3.348345,scale,,,,,,0.174513954,0.141421356,0.349027907,0.282842712,stimuli/lakes/203024_left.png,stimuli/lakes/203024_right.png,,,,0,68,68,24,1,,,,,
,,,,,,$2516048461,2020-07-08_20h06.35.641,fisher_task,2020.1.3,Win32,60,0.069444444,-0.238888889,1,0,0,5.63111,scale,,,,,,0.302267034,0.244948974,0.2468,0.2,stimuli/lakes/602017_left.png,stimuli/lakes/602017_right.png,,,,0,69,69,17,1,,,,,
,,,,,,$2516048461,2020-07-08_20h06.35.641,fisher_task,2020.1.3,Win32,60,0.048148148,-0.241666667,1,0,0,2.61419,scale,,,,,,0.21373507,0.173205081,0.326485712,0.264575131,stimuli/lakes/305061_left.png,stimuli/lakes/305061_right.png,,,,0,70,70,61,1,,,,,
,,,,,,$2516048461,2020-07-08_20h06.35.641,fisher_task,2020.1.3,Win32,60,-0.09537037,-0.257407407,1,0,0,2.332325,scale,,,,,,0.2468,0.2,0.302267034,0.244948974,stimuli/lakes/406074_left.png,stimuli/lakes/406074_right.png,,,,0,71,71,74,1,,,,,
,,,,,,$2516048461,2020-07-08_20h06.35.641,fisher_task,2020.1.3,Win32,60,-0.014814815,-0.248148148,1,0,0,2.165435,scale,,,,,,0.326485712,0.264575131,0.21373507,0.173205081,stimuli/lakes/703038_left.png,stimuli/lakes/703038_right.png,,,,0,72,72,38,1,,,,,
,,,,,,$2516048461,2020-07-08_20h06.35.641,fisher_task,2020.1.3,Win32,60,0.169444444,-0.405555556,1,0,0,2.21561,scale,,,,,,0.21373507,0.173205081,0.326485712,0.264575131,stimuli/lakes/302013_left.png,stimuli/lakes/302013_right.png,,,,0,73,73,13,1,,,,,
,,,,,,$2516048461,2020-07-08_20h06.35.641,fisher_task,2020.1.3,Win32,60,-0.091666667,-0.273148148,1,0,0,2.49906,scale,,,,,,0.21373507,0.173205081,0.326485712,0.264575131,stimuli/lakes/3070100_left.png,stimuli/lakes/3070100_right.png,,,,0,74,74,100,1,,,,,
,,,,,,$2516048461,2020-07-08_20h06.35.641,fisher_task,2020.1.3,Win32,60,-0.119444444,-0.29537037,1,0,0,2.549285,scale,,,,,,0.1234,0.1,0.3702,0.3,stimuli/lakes/1090119_left.png,stimuli/lakes/1090119_right.png,,,,0,75,75,119,1,,,,,
,,,,,,$2516048461,2020-07-08_20h06.35.641,fisher_task,2020.1.3,Win32,60,-0.07962963,-0.25462963,1,0,0,2.6493,scale,,,,,,0.302267034,0.244948974,0.2468,0.2,stimuli/lakes/604055_left.png,stimuli/lakes/604055_right.png,,,,0,76,76,55,1,,,,,
,,,,,,$2516048461,2020-07-08_20h06.35.641,fisher_task,2020.1.3,Win32,60,-0.172222222,-0.402777778,1,0,0,1.266195,scale,,,,,,0.349027907,0.282842712,0.174513954,0.141421356,stimuli/lakes/8080118_left.png,stimuli/lakes/8080118_right.png,,,,0,77,77,118,1,,,,,
,,,,,,$2516048461,2020-07-08_20h06.35.641,fisher_task,2020.1.3,Win32,60,-0.156481481,-0.344444444,1,0,0,2.33219,scale,,,,,,0.349027907,0.282842712,0.174513954,0.141421356,stimuli/lakes/806087_left.png,stimuli/lakes/806087_right.png,,,,0,78,78,87,1,,,,,
,,,,,,$2516048461,2020-07-08_20h06.35.641,fisher_task,2020.1.3,Win32,60,0.167592593,-0.375925926,1,0,0,1.66569,scale,,,,,,0.21373507,0.173205081,0.326485712,0.264575131,stimuli/lakes/302012_left.png,stimuli/lakes/302012_right.png,,,,0,79,79,12,1,,,,,
,,,,,,$2516048461,2020-07-08_20h06.35.641,fisher_task,2020.1.3,Win32,60,-0.174074074,-0.363888889,1,0,0,1.598955,scale,,,,,,0.302267034,0.244948974,0.2468,0.2,stimuli/lakes/6080115_left.png,stimuli/lakes/6080115_right.png,,,,0,80,80,115,1,,,,,
,,,,,,$2516048461,2020-07-08_20h06.35.641,fisher_task,2020.1.3,Win32,60,0.093518519,-0.266666667,1,0,0,2.88185,scale,,,,,,0.21373507,0.173205081,0.326485712,0.264575131,stimuli/lakes/307091_left.png,stimuli/lakes/307091_right.png,,,,0,81,81,91,1,,,,,
,,,,,,$2516048461,2020-07-08_20h06.35.641,fisher_task,2020.1.3,Win32,60,0.149074074,-0.309259259,1,0,0,2.315555,scale,,,,,,0.275930788,0.223606798,0.275930788,0.223606798,stimuli/lakes/504045_left.png,stimuli/lakes/504045_right.png,,,,0,82,82,45,1,,,,,
,,,,,,$2516048461,2020-07-08_20h06.35.641,fisher_task,2020.1.3,Win32,60,0.077777778,-0.246296296,1,0,0,3.71476,scale,,,,,,0.302267034,0.244948974,0.2468,0.2,stimuli/lakes/603037_left.png,stimuli/lakes/603037_right.png,,,,0,83,83,37,1,,,,,
,,,,,,$2516048461,2020-07-08_20h06.35.641,fisher_task,2020.1.3,Win32,60,0.158333333,-0.351851852,1,0,0,1.732695,scale,,,,,,0.21373507,0.173205081,0.326485712,0.264575131,stimuli/lakes/303025_left.png,stimuli/lakes/303025_right.png,,,,0,84,84,25,1,,,,,
,,,,,,$2516048461,2020-07-08_20h06.35.641,fisher_task,2020.1.3,Win32,60,0.187962963,-0.381481481,1,0,0,1.76561,scale,,,,,,0.1234,0.1,0.3702,0.3,stimuli/lakes/104041_left.png,stimuli/lakes/104041_right.png,,,,0,85,85,41,1,,,,,
,,,,,,$2516048461,2020-07-08_20h06.35.641,fisher_task,2020.1.3,Win32,60,0.17962963,-0.436111111,1,0,0,2.21565,scale,,,,,,0.2468,0.2,0.302267034,0.244948974,stimuli/lakes/40102_left.png,stimuli/lakes/40102_right.png,,,,0,86,86,2,1,,,,,
,,,,,,$2516048461,2020-07-08_20h06.35.641,fisher_task,2020.1.3,Win32,60,-0.071296296,-0.251851852,1,0,0,4.14806,scale,,,,,,0.302267034,0.244948974,0.2468,0.2,stimuli/lakes/605066_left.png,stimuli/lakes/605066_right.png,,,,0,87,87,66,1,,,,,
,,,,,,$2516048461,2020-07-08_20h06.35.641,fisher_task,2020.1.3,Win32,60,0.121296296,-0.305555556,1,0,0,2.86567,scale,,,,,,0.302267034,0.244948974,0.2468,0.2,stimuli/lakes/60105_left.png,stimuli/lakes/60105_right.png,,,space,0,88,88,5,1,39.1782,,,,
,,,,,,$2516048461,2020-07-08_20h06.35.641,fisher_task,2020.1.3,Win32,60,-0.12037037,-0.294444444,1,0,0,1.598625,scale,,,,,,0.21373507,0.173205081,0.326485712,0.264575131,stimuli/lakes/3080109_left.png,stimuli/lakes/3080109_right.png,,,,0,89,89,109,1,,,,,
,,,,,,$2516048461,2020-07-08_20h06.35.641,fisher_task,2020.1.3,Win32,60,0.128703704,-0.29537037,1,0,0,2.898935,scale,,,,,,0.3702,0.3,0.1234,0.1,stimuli/lakes/901010_left.png,stimuli/lakes/901010_right.png,,,,0,90,90,10,1,,,,,
,,,,,,$2516048461,2020-07-08_20h06.35.641,fisher_task,2020.1.3,Win32,60,-0.073148148,-0.258333333,1,0,0,2.66591,scale,,,,,,0.349027907,0.282842712,0.174513954,0.141421356,stimuli/lakes/807096_left.png,stimuli/lakes/807096_right.png,,,,0,91,91,96,1,,,,,
,,,,,,$2516048461,2020-07-08_20h06.35.641,fisher_task,2020.1.3,Win32,60,-0.00462963,-0.258333333,1,0,0,2.248745,scale,,,,,,0.21373507,0.173205081,0.326485712,0.264575131,stimuli/lakes/3080110_left.png,stimuli/lakes/3080110_right.png,,,,0,92,92,110,1,,,,,
,,,,,,$2516048461,2020-07-08_20h06.35.641,fisher_task,2020.1.3,Win32,60,0.10462963,-0.274074074,1,0,0,2.964915,scale,,,,,,0.21373507,0.173205081,0.326485712,0.264575131,stimuli/lakes/304043_left.png,stimuli/lakes/304043_right.png,,,,0,93,93,43,1,,,,,
,,,,,,$2516048461,2020-07-08_20h06.35.641,fisher_task,2020.1.3,Win32,60,-0.00462963,-0.249074074,1,0,0,4.031845,scale,,,,,,0.326485712,0.264575131,0.21373507,0.173205081,stimuli/lakes/704047_left.png,stimuli/lakes/704047_right.png,,,,0,94,94,47,1,,,,,
,,,,,,$2516048461,2020-07-08_20h06.35.641,fisher_task,2020.1.3,Win32,60,-0.14537037,-0.346296296,1,0,0,1.598825,scale,,,,,,0.275930788,0.223606798,0.275930788,0.223606798,stimuli/lakes/5070102_left.png,stimuli/lakes/5070102_right.png,,,,0,95,95,102,1,,,,,
,,,,,,$2516048461,2020-07-08_20h06.35.641,fisher_task,2020.1.3,Win32,60,0.098148148,-0.260185185,1,0,0,2.298775,scale,,,,,,0.21373507,0.173205081,0.326485712,0.264575131,stimuli/lakes/304052_left.png,stimuli/lakes/304052_right.png,,,,0,96,96,52,1,,,,,
,,,,,,$2516048461,2020-07-08_20h06.35.641,fisher_task,2020.1.3,Win32,60,-0.15,-0.334259259,1,0,0,2.2988,scale,,,,,,0.326485712,0.264575131,0.21373507,0.173205081,stimuli/lakes/7070104_left.png,stimuli/lakes/7070104_right.png,,,,0,97,97,104,1,,,,,
,,,,,,$2516048461,2020-07-08_20h06.35.641,fisher_task,2020.1.3,Win32,60,-0.185185185,-0.417592593,1,0,0,1.50037,scale,,,,,,0.302267034,0.244948974,0.2468,0.2,stimuli/lakes/6090126_left.png,stimuli/lakes/6090126_right.png,,,,0,98,98,126,1,,,,,
,,,,,,$2516048461,2020-07-08_20h06.35.641,fisher_task,2020.1.3,Win32,60,-0.17037037,-0.348148148,1,0,0,2.98178,scale,,,,,,0.326485712,0.264575131,0.21373507,0.173205081,stimuli/lakes/707095_left.png,stimuli/lakes/707095_right.png,,,,0,99,99,95,1,,,,,
,,,,,,$2516048461,2020-07-08_20h06.35.641,fisher_task,2020.1.3,Win32,60,0.074074074,-0.262962963,1,0,0,2.73165,scale,,,,,,0.3702,0.3,0.1234,0.1,stimuli/lakes/902022_left.png,stimuli/lakes/902022_right.png,,,,0,100,100,22,1,,,,,
,,,,,,$2516048461,2020-07-08_20h06.35.641,fisher_task,2020.1.3,Win32,60,-0.150925926,-0.322222222,1,0,0,2.08194,scale,,,,,,0.3702,0.3,0.1234,0.1,stimuli/lakes/906079_left.png,stimuli/lakes/906079_right.png,,,,0,101,101,79,1,,,,,
,,,,,,$2516048461,2020-07-08_20h06.35.641,fisher_task,2020.1.3,Win32,60,0.075925926,-0.249074074,1,0,0,2.58241,scale,,,,,,0.174513954,0.141421356,0.349027907,0.282842712,stimuli/lakes/205060_left.png,stimuli/lakes/205060_right.png,,,,0,102,102,60,1,,,,,
,,,,,,$2516048461,2020-07-08_20h06.35.641,fisher_task,2020.1.3,Win32,60,0.117592593,-0.280555556,1,0,0,2.132985,scale,,,,,,0.2468,0.2,0.302267034,0.244948974,stimuli/lakes/404044_left.png,stimuli/lakes/404044_right.png,,,,0,103,103,44,1,,,,,
,,,,,,$2516048461,2020-07-08_20h06.35.641,fisher_task,2020.1.3,Win32,60,-0.164814815,-0.347222222,1,0,0,4.214835,scale,,,,,,0.21373507,0.173205081,0.326485712,0.264575131,stimuli/lakes/3090122_left.png,stimuli/lakes/3090122_right.png,,,,0,104,104,122,1,,,,,
,,,,,,$2516048461,2020-07-08_20h06.35.641,fisher_task,2020.1.3,Win32,60,-0.135185185,-0.296296296,1,0,0,1.648175,scale,,,,,,0.2468,0.2,0.302267034,0.244948974,stimuli/lakes/4080112_left.png,stimuli/lakes/4080112_right.png,,,,0,105,105,112,1,,,,,
,,,,,,$2516048461,2020-07-08_20h06.35.641,fisher_task,2020.1.3,Win32,60,0.00462963,-0.267592593,1,0,0,8.563785,scale,,,,,,0.326485712,0.264575131,0.21373507,0.173205081,stimuli/lakes/702019_left.png,stimuli/lakes/702019_right.png,,,,0,106,106,19,1,,,,,
,,,,,,$2516048461,2020-07-08_20h06.35.641,fisher_task,2020.1.3,Win32,60,-0.175925926,-0.369444444,1,0,0,3.16567,scale,,,,,,0.2468,0.2,0.302267034,0.244948974,stimuli/lakes/4080111_left.png,stimuli/lakes/4080111_right.png,,,,0,107,107,111,1,,,,,
,,,,,,$2516048461,2020-07-08_20h06.35.641,fisher_task,2020.1.3,Win32,60,-0.17962963,-0.425925926,1,0,0,1.715635,scale,,,,,,0.2468,0.2,0.302267034,0.244948974,stimuli/lakes/4090124_left.png,stimuli/lakes/4090124_right.png,,,,0,108,108,124,1,,,,,
,,,,,,$2516048461,2020-07-08_20h06.35.641,fisher_task,2020.1.3,Win32,60,0.17037037,-0.412037037,1,0,0,1.88267,scale,,,,,,0.174513954,0.141421356,0.349027907,0.282842712,stimuli/lakes/203033_left.png,stimuli/lakes/203033_right.png,,,,0,109,109,33,1,,,,,
,,,,,,$2516048461,2020-07-08_20h06.35.641,fisher_task,2020.1.3,Win32,60,-0.149074074,-0.319444444,1,0,0,2.06599,scale,,,,,,0.302267034,0.244948974,0.2468,0.2,stimuli/lakes/606076_left.png,stimuli/lakes/606076_right.png,,,space,0,110,110,76,1,1.89605,,,,
,,,,,,$2516048461,2020-07-08_20h06.35.641,fisher_task,2020.1.3,Win32,60,-0.177777778,-0.42037037,1,0,0,1.399405,scale,,,,,,0.326485712,0.264575131,0.21373507,0.173205081,stimuli/lakes/7090128_left.png,stimuli/lakes/7090128_right.png,,,,0,111,111,128,1,,,,,
,,,,,,$2516048461,2020-07-08_20h06.35.641,fisher_task,2020.1.3,Win32,60,0.072222222,-0.27037037,1,0,0,1.93236,scale,,,,,,0.349027907,0.282842712,0.174513954,0.141421356,stimuli/lakes/803030_left.png,stimuli/lakes/803030_right.png,,,,0,112,112,30,1,,,,,
,,,,,,$2516048461,2020-07-08_20h06.35.641,fisher_task,2020.1.3,Win32,60,-0.016666667,-0.243518519,1,0,0,2.965515,scale,,,,,,0.2468,0.2,0.302267034,0.244948974,stimuli/lakes/4090123_left.png,stimuli/lakes/4090123_right.png,,,,0,113,113,123,1,,,,,
,,,,,,$2516048461,2020-07-08_20h06.35.641,fisher_task,2020.1.3,Win32,60,-0.04537037,-0.24537037,1,0,0,2.28194,scale,,,,,,0.349027907,0.282842712,0.174513954,0.141421356,stimuli/lakes/802021_left.png,stimuli/lakes/802021_right.png,,,,0,114,114,21,1,,,,,
,,,,,,$2516048461,2020-07-08_20h06.35.641,fisher_task,2020.1.3,Win32,60,0.181481481,-0.407407407,1,0,0,1.815805,scale,,,,,,0.2468,0.2,0.302267034,0.244948974,stimuli/lakes/402014_left.png,stimuli/lakes/402014_right.png,,,,0,115,115,14,1,,,,,
,,,,,,$2516048461,2020-07-08_20h06.35.641,fisher_task,2020.1.3,Win32,60,0.101851852,-0.275925926,1,0,0,3.93186,scale,,,,,,0.2468,0.2,0.302267034,0.244948974,stimuli/lakes/406083_left.png,stimuli/lakes/406083_right.png,,,,0,116,116,83,1,,,,,
,,,,,,$2516048461,2020-07-08_20h06.35.641,fisher_task,2020.1.3,Win32,60,0.114814815,-0.278703704,1,0,0,2.232025,scale,,,,,,0.326485712,0.264575131,0.21373507,0.173205081,stimuli/lakes/702020_left.png,stimuli/lakes/702020_right.png,,,,0,117,117,20,1,,,,,
,,,,,,$2516048461,2020-07-08_20h06.35.641,fisher_task,2020.1.3,Win32,60,-0.077777778,-0.27962963,1,0,0,3.048525,scale,,,,,,0.349027907,0.282842712,0.174513954,0.141421356,stimuli/lakes/805069_left.png,stimuli/lakes/805069_right.png,,,,0,118,118,69,1,,,,,
,,,,,,$2516048461,2020-07-08_20h06.35.641,fisher_task,2020.1.3,Win32,60,-0.181481481,-0.388888889,1,0,0,1.882215,scale,,,,,,0.326485712,0.264575131,0.21373507,0.173205081,stimuli/lakes/706077_left.png,stimuli/lakes/706077_right.png,,,,0,119,119,77,1,,,,,
,,,,,,$2516048461,2020-07-08_20h06.35.641,fisher_task,2020.1.3,Win32,60,-0.14537037,-0.319444444,1,0,0,2.099095,scale,,,,,,0.326485712,0.264575131,0.21373507,0.173205081,stimuli/lakes/705068_left.png,stimuli/lakes/705068_right.png,,,,0,120,120,68,1,,,,,
,,,,,,$2516048461,2020-07-08_20h06.35.641,fisher_task,2020.1.3,Win32,60,-0.159259259,-0.401851852,1,0,0,1.865785,scale,,,,,,0.3702,0.3,0.1234,0.1,stimuli/lakes/9070106_left.png,stimuli/lakes/9070106_right.png,,,,0,121,121,106,1,,,,,
,,,,,,$2516048461,2020-07-08_20h06.35.641,fisher_task,2020.1.3,Win32,60,0,-0.250925926,1,0,0,2.2991,scale,,,,,,0.349027907,0.282842712,0.174513954,0.141421356,stimuli/lakes/803039_left.png,stimuli/lakes/803039_right.png,,,,0,122,122,39,1,,,,,
,,,,,,$2516048461,2020-07-08_20h06.35.641,fisher_task,2020.1.3,Win32,60,0.069444444,-0.252777778,1,0,0,2.46599,scale,,,,,,0.21373507,0.173205081,0.326485712,0.264575131,stimuli/lakes/306082_left.png,stimuli/lakes/306082_right.png,,,,0,123,123,82,1,,,,,
,,,,,,$2516048461,2020-07-08_20h06.35.641,fisher_task,2020.1.3,Win32,60,-0.040740741,-0.24537037,1,0,0,2.73242,scale,,,,,,0.326485712,0.264575131,0.21373507,0.173205081,stimuli/lakes/704056_left.png,stimuli/lakes/704056_right.png,,,,0,124,124,56,1,,,,,
,,,,,,$2516048461,2020-07-08_20h06.35.641,fisher_task,2020.1.3,Win32,60,-0.166666667,-0.416666667,1,0,0,2.74847,scale,,,,,,0.302267034,0.244948974,0.2468,0.2,stimuli/lakes/6090127_left.png,stimuli/lakes/6090127_right.png,,,,0,125,125,127,1,,,,,
,,,,,,$2516048461,2020-07-08_20h06.35.641,fisher_task,2020.1.3,Win32,60,-0.159259259,-0.340740741,1,0,0,3.4982,scale,,,,,,0.302267034,0.244948974,0.2468,0.2,stimuli/lakes/6070103_left.png,stimuli/lakes/6070103_right.png,,,,0,126,126,103,1,,,,,
,,,,,,$2516048461,2020-07-08_20h06.35.641,fisher_task,2020.1.3,Win32,60,-0.160185185,-0.392592593,1,0,0,2.89857,scale,,,,,,0.174513954,0.141421356,0.349027907,0.282842712,stimuli/lakes/2090120_left.png,stimuli/lakes/2090120_right.png,,,,0,127,127,120,1,,,,,
,,,,,,$2516048461,2020-07-08_20h06.35.641,fisher_task,2020.1.3,Win32,60,0.137037037,-0.323148148,1,0,0,3.59889,scale,,,,,,0.1234,0.1,0.3702,0.3,stimuli/lakes/105059_left.png,stimuli/lakes/105059_right.png,,,,0,128,128,59,1,,,,,
,,,,,,$2516048461,2020-07-08_20h06.35.641,fisher_task,2020.1.3,Win32,60,0.161111111,-0.397222222,1,0,0,1.631045,scale,,,,,,0.2468,0.2,0.302267034,0.244948974,stimuli/lakes/402015_left.png,stimuli/lakes/402015_right.png,,,,0,129,129,15,1,,,,,
,,,,,,$2516048461,2020-07-08_20h06.35.641,fisher_task,2020.1.3,Win32,60,,,,,,,,,,,,,,,,,,,,,,,,,,,,space,14.30938,space,41.27352
