keySpace.keys,instructions.thisRepN,instructions.thisTrialN,instructions.thisN,instructions.thisIndex,instructions.ran,participant,date,expName,psychopyVersion,OS,frameRate,mouse.x,mouse.y,mouse.leftButton,mouse.midButton,mouse.rightButton,mouse.time,mouse.clicked_name,training.thisRepN,training.thisTrialN,training.thisN,training.thisIndex,training.ran,widthBasketLeft,heightBasketLeft,widthBasketRight,heightBasketRight,leftLake,rightLake,space2.keys,space2.rt,space1.keys,trials.thisRepN,trials.thisTrialN,trials.thisN,trials.thisIndex,trials.ran,space1.rt,finalSpace1.keys,finalSpace1.rt,finalSpace2.keys,finalSpace2.rt
,0,0,0,0,1,$3526537103,2020-07-08_22h47.04.588,fisher_task,2020.1.3,MacIntel,60,,,,,,,,,,,,,,,,,,,,,,,,,,,,,,,
,,,,,,$3526537103,2020-07-08_22h47.04.588,fisher_task,2020.1.3,MacIntel,60,0.160651042,-0.387048611,1,0,0,6.66807,scale,0,0,0,0,1,0.275930788,0.223606798,0.275930788,0.223606798,stimuli/training/20_left.png,stimuli/training/20_right.png,,,,,,,,,,,,,
,,,,,,$3526537103,2020-07-08_22h47.04.588,fisher_task,2020.1.3,MacIntel,60,-0.16499566,-0.391258681,1,0,0,4.115405,scale,0,1,1,1,1,0.275930788,0.223606798,0.275930788,0.223606798,stimuli/training/80_left.png,stimuli/training/80_right.png,,,,,,,,,,,,,
,,,,,,$3526537103,2020-07-08_22h47.04.588,fisher_task,2020.1.3,MacIntel,60,0.002591146,-0.251744792,1,0,0,7.5205,scale,0,2,2,2,1,0.174513954,0.141421356,0.349027907,0.282842712,stimuli/training/50_left.png,stimuli/training/50_right.png,,,,,,,,,,,,,
,,,,,,$3526537103,2020-07-08_22h47.04.588,fisher_task,2020.1.3,MacIntel,60,-0.158103299,-0.417391493,1,0,0,3.654605,scale,0,3,3,3,1,0.349027907,0.282842712,0.174513954,0.141421356,stimuli/training/50_left.png,stimuli/training/50_right.png,,,,,,,,,,,,,
,,,,,,$3526537103,2020-07-08_22h47.04.588,fisher_task,2020.1.3,MacIntel,60,0.135802951,-0.326419271,1,0,0,6.30078,scale,0,4,4,4,1,0.275930788,0.223606798,0.275930788,0.223606798,stimuli/training/50_left.png,stimuli/training/50_right.png,,,,,,,,,,,,,
,,,,,,$3526537103,2020-07-08_22h47.04.588,fisher_task,2020.1.3,MacIntel,60,0.152773437,-0.423923611,1,0,0,1.86945,scale,0,5,5,5,1,0.174513954,0.141421356,0.349027907,0.282842712,stimuli/training/20_left.png,stimuli/training/20_right.png,,,,,,,,,,,,,
,,,,,,$3526537103,2020-07-08_22h47.04.588,fisher_task,2020.1.3,MacIntel,60,-0.153697917,-0.432903646,1,0,0,1.81908,scale,0,6,6,6,1,0.349027907,0.282842712,0.174513954,0.141421356,stimuli/training/80_left.png,stimuli/training/80_right.png,,,,,,,,,,,,,
,,,,,,$3526537103,2020-07-08_22h47.04.588,fisher_task,2020.1.3,MacIntel,60,0.167300347,-0.428311632,1,0,0,2.10356,scale,0,7,7,7,1,0.1234,0.1,0.3702,0.3,stimuli/training/30_left.png,stimuli/training/30_right.png,,,,,,,,,,,,,
,,,,,,$3526537103,2020-07-08_22h47.04.588,fisher_task,2020.1.3,MacIntel,60,-0.17530816,-0.415633681,1,0,0,1.966905,scale,0,8,8,8,1,0.3702,0.3,0.1234,0.1,stimuli/training/70_left.png,stimuli/training/70_right.png,,,,,,,,,,,,,
,,,,,,$3526537103,2020-07-08_22h47.04.588,fisher_task,2020.1.3,MacIntel,60,-0.174448785,-0.415920139,1,0,0,1.485425,scale,0,9,9,9,1,0.326485712,0.264575131,0.21373507,0.173205081,stimuli/training/90_left.png,stimuli/training/90_right.png,,,,,,,,,,,,,
,,,,,,$3526537103,2020-07-08_22h47.04.588,fisher_task,2020.1.3,MacIntel,60,0.166957465,-0.430130208,1,0,0,3.289315,scale,0,10,10,10,1,0.21373507,0.173205081,0.326485712,0.264575131,stimuli/training/10_left.png,stimuli/training/10_right.png,,,,,,,,,,,,,
,,,,,,$3526537103,2020-07-08_22h47.04.588,fisher_task,2020.1.3,MacIntel,60,0.175490451,-0.430872396,1,0,0,1.61818,scale,,,,,,0.1234,0.1,0.3702,0.3,stimuli/lakes/103032_left.png,stimuli/lakes/103032_right.png,space,48.300985,,0,0,0,32,1,,,,,
,,,,,,$3526537103,2020-07-08_22h47.04.588,fisher_task,2020.1.3,MacIntel,60,-0.150911458,-0.425651042,1,0,0,3.021885,scale,,,,,,0.326485712,0.264575131,0.21373507,0.173205081,stimuli/lakes/705068_left.png,stimuli/lakes/705068_right.png,,,,0,1,1,68,1,,,,,
,,,,,,$3526537103,2020-07-08_22h47.04.588,fisher_task,2020.1.3,MacIntel,60,0.136788194,-0.312278646,1,0,0,4.248145,scale,,,,,,0.1234,0.1,0.3702,0.3,stimuli/lakes/106071_left.png,stimuli/lakes/106071_right.png,,,,0,2,2,71,1,,,,,
,,,,,,$3526537103,2020-07-08_22h47.04.588,fisher_task,2020.1.3,MacIntel,60,-0.152604167,-0.424092882,1,0,0,3.65603,scale,,,,,,0.1234,0.1,0.3702,0.3,stimuli/lakes/1080107_left.png,stimuli/lakes/1080107_right.png,,,,0,3,3,107,1,,,,,
,,,,,,$3526537103,2020-07-08_22h47.04.588,fisher_task,2020.1.3,MacIntel,60,0.186458333,-0.434435764,1,0,0,1.452375,scale,,,,,,0.174513954,0.141421356,0.349027907,0.282842712,stimuli/lakes/203024_left.png,stimuli/lakes/203024_right.png,,,,0,4,4,24,1,,,,,
,,,,,,$3526537103,2020-07-08_22h47.04.588,fisher_task,2020.1.3,MacIntel,60,-0.158988715,-0.43437066,1,0,0,1.334545,scale,,,,,,0.349027907,0.282842712,0.174513954,0.141421356,stimuli/lakes/8080118_left.png,stimuli/lakes/8080118_right.png,,,,0,5,5,118,1,,,,,
,,,,,,$3526537103,2020-07-08_22h47.04.588,fisher_task,2020.1.3,MacIntel,60,-0.155551215,-0.43608941,1,0,0,1.234695,scale,,,,,,0.3702,0.3,0.1234,0.1,stimuli/lakes/906088_left.png,stimuli/lakes/906088_right.png,,,,0,6,6,88,1,,,,,
,,,,,,$3526537103,2020-07-08_22h47.04.588,fisher_task,2020.1.3,MacIntel,60,-0.147690972,-0.424813368,1,0,0,3.4133,scale,,,,,,0.275930788,0.223606798,0.275930788,0.223606798,stimuli/lakes/5080113_left.png,stimuli/lakes/5080113_right.png,,,,0,7,7,113,1,,,,,
,,,,,,$3526537103,2020-07-08_22h47.04.588,fisher_task,2020.1.3,MacIntel,60,0.124210069,-0.300598958,1,0,0,3.571845,scale,,,,,,0.2468,0.2,0.302267034,0.244948974,stimuli/lakes/403035_left.png,stimuli/lakes/403035_right.png,,,,0,8,8,35,1,,,,,
,,,,,,$3526537103,2020-07-08_22h47.04.588,fisher_task,2020.1.3,MacIntel,60,-0.163650174,-0.428936632,1,0,0,1.56855,scale,,,,,,0.302267034,0.244948974,0.2468,0.2,stimuli/lakes/606076_left.png,stimuli/lakes/606076_right.png,,,,0,9,9,76,1,,,,,
,,,,,,$3526537103,2020-07-08_22h47.04.588,fisher_task,2020.1.3,MacIntel,60,0.173107639,-0.428289931,1,0,0,1.83635,scale,,,,,,0.275930788,0.223606798,0.275930788,0.223606798,stimuli/lakes/50104_left.png,stimuli/lakes/50104_right.png,,,,0,10,10,4,1,,,,,
,,,,,,$3526537103,2020-07-08_22h47.04.588,fisher_task,2020.1.3,MacIntel,60,0.128038194,-0.302404514,1,0,0,7.737075,scale,,,,,,0.302267034,0.244948974,0.2468,0.2,stimuli/lakes/603028_left.png,stimuli/lakes/603028_right.png,,,,0,11,11,28,1,,,,,
,,,,,,$3526537103,2020-07-08_22h47.04.588,fisher_task,2020.1.3,MacIntel,60,-0.143602431,-0.432855903,1,0,0,1.802105,scale,,,,,,0.349027907,0.282842712,0.174513954,0.141421356,stimuli/lakes/805069_left.png,stimuli/lakes/805069_right.png,,,,0,12,12,69,1,,,,,
,,,,,,$3526537103,2020-07-08_22h47.04.588,fisher_task,2020.1.3,MacIntel,60,0.009014757,-0.250976563,1,0,0,6.45194,scale,,,,,,0.174513954,0.141421356,0.349027907,0.282842712,stimuli/lakes/206081_left.png,stimuli/lakes/206081_right.png,,,,0,13,13,81,1,,,,,
,,,,,,$3526537103,2020-07-08_22h47.04.588,fisher_task,2020.1.3,MacIntel,60,-0.146349826,-0.427439236,1,0,0,2.152615,scale,,,,,,0.349027907,0.282842712,0.174513954,0.141421356,stimuli/lakes/8070105_left.png,stimuli/lakes/8070105_right.png,,,,0,14,14,105,1,,,,,
,,,,,,$3526537103,2020-07-08_22h47.04.588,fisher_task,2020.1.3,MacIntel,60,-0.137356771,-0.315386285,1,0,0,4.306515,scale,,,,,,0.174513954,0.141421356,0.349027907,0.282842712,stimuli/lakes/2090120_left.png,stimuli/lakes/2090120_right.png,,,,0,15,15,120,1,,,,,
,,,,,,$3526537103,2020-07-08_22h47.04.588,fisher_task,2020.1.3,MacIntel,60,0.054431424,-0.244422743,1,0,0,7.61965,scale,,,,,,0.349027907,0.282842712,0.174513954,0.141421356,stimuli/lakes/803039_left.png,stimuli/lakes/803039_right.png,,,,0,16,16,39,1,,,,,
,,,,,,$3526537103,2020-07-08_22h47.04.588,fisher_task,2020.1.3,MacIntel,60,-0.156397569,-0.431432292,1,0,0,2.169475,scale,,,,,,0.302267034,0.244948974,0.2468,0.2,stimuli/lakes/6070103_left.png,stimuli/lakes/6070103_right.png,,,,0,17,17,103,1,,,,,
,,,,,,$3526537103,2020-07-08_22h47.04.588,fisher_task,2020.1.3,MacIntel,60,-0.120199653,-0.332248264,1,0,0,4.12256,scale,,,,,,0.2468,0.2,0.302267034,0.244948974,stimuli/lakes/4080111_left.png,stimuli/lakes/4080111_right.png,,,,0,18,18,111,1,,,,,
,,,,,,$3526537103,2020-07-08_22h47.04.588,fisher_task,2020.1.3,MacIntel,60,0.062300347,-0.257018229,1,0,0,3.30382,scale,,,,,,0.1234,0.1,0.3702,0.3,stimuli/lakes/107089_left.png,stimuli/lakes/107089_right.png,,,,0,19,19,89,1,,,,,
,,,,,,$3526537103,2020-07-08_22h47.04.588,fisher_task,2020.1.3,MacIntel,60,0.134696181,-0.320034722,1,0,0,3.00442,scale,,,,,,0.326485712,0.264575131,0.21373507,0.173205081,stimuli/lakes/70108_left.png,stimuli/lakes/70108_right.png,,,,0,20,20,8,1,,,,,
,,,,,,$3526537103,2020-07-08_22h47.04.588,fisher_task,2020.1.3,MacIntel,60,0.090677083,-0.278051215,1,0,0,3.405305,scale,,,,,,0.1234,0.1,0.3702,0.3,stimuli/lakes/107098_left.png,stimuli/lakes/107098_right.png,,,,0,21,21,98,1,,,,,
,,,,,,$3526537103,2020-07-08_22h47.04.588,fisher_task,2020.1.3,MacIntel,60,0.086827257,-0.264930556,1,0,0,3.59691,scale,,,,,,0.302267034,0.244948974,0.2468,0.2,stimuli/lakes/602018_left.png,stimuli/lakes/602018_right.png,,,space,0,22,22,18,1,6.484985,,,,
,,,,,,$3526537103,2020-07-08_22h47.04.588,fisher_task,2020.1.3,MacIntel,60,0.142243924,-0.407560764,1,0,0,3.471825,scale,,,,,,0.302267034,0.244948974,0.2468,0.2,stimuli/lakes/60105_left.png,stimuli/lakes/60105_right.png,,,,0,23,23,5,1,,,,,
,,,,,,$3526537103,2020-07-08_22h47.04.588,fisher_task,2020.1.3,MacIntel,60,0.002712674,-0.248164063,1,0,0,3.84796,scale,,,,,,0.3702,0.3,0.1234,0.1,stimuli/lakes/903031_left.png,stimuli/lakes/903031_right.png,,,,0,24,24,31,1,,,,,
,,,,,,$3526537103,2020-07-08_22h47.04.588,fisher_task,2020.1.3,MacIntel,60,-0.132842882,-0.351011285,1,0,0,2.33781,scale,,,,,,0.326485712,0.264575131,0.21373507,0.173205081,stimuli/lakes/704056_left.png,stimuli/lakes/704056_right.png,,,,0,25,25,56,1,,,,,
,,,,,,$3526537103,2020-07-08_22h47.04.588,fisher_task,2020.1.3,MacIntel,60,0.097200521,-0.284800347,1,0,0,1.828155,scale,,,,,,0.21373507,0.173205081,0.326485712,0.264575131,stimuli/lakes/306082_left.png,stimuli/lakes/306082_right.png,,,,0,26,26,82,1,,,,,
,,,,,,$3526537103,2020-07-08_22h47.04.588,fisher_task,2020.1.3,MacIntel,60,0.155668403,-0.431540799,1,0,0,1.368385,scale,,,,,,0.2468,0.2,0.302267034,0.244948974,stimuli/lakes/40102_left.png,stimuli/lakes/40102_right.png,,,,0,27,27,2,1,,,,,
,,,,,,$3526537103,2020-07-08_22h47.04.588,fisher_task,2020.1.3,MacIntel,60,-0.164939236,-0.428936632,1,0,0,1.302285,scale,,,,,,0.3702,0.3,0.1234,0.1,stimuli/lakes/9070106_left.png,stimuli/lakes/9070106_right.png,,,,0,28,28,106,1,,,,,
,,,,,,$3526537103,2020-07-08_22h47.04.588,fisher_task,2020.1.3,MacIntel,60,-0.162647569,-0.42921441,1,0,0,1.845245,scale,,,,,,0.3702,0.3,0.1234,0.1,stimuli/lakes/905070_left.png,stimuli/lakes/905070_right.png,,,,0,29,29,70,1,,,,,
,,,,,,$3526537103,2020-07-08_22h47.04.588,fisher_task,2020.1.3,MacIntel,60,0.158007813,-0.422703993,1,0,0,2.63656,scale,,,,,,0.21373507,0.173205081,0.326485712,0.264575131,stimuli/lakes/305061_left.png,stimuli/lakes/305061_right.png,,,,0,30,30,61,1,,,,,
,,,,,,$3526537103,2020-07-08_22h47.04.588,fisher_task,2020.1.3,MacIntel,60,0.131119792,-0.306953125,1,0,0,2.838195,scale,,,,,,0.1234,0.1,0.3702,0.3,stimuli/lakes/106080_left.png,stimuli/lakes/106080_right.png,,,,0,31,31,80,1,,,,,
,,,,,,$3526537103,2020-07-08_22h47.04.588,fisher_task,2020.1.3,MacIntel,60,-0.146328125,-0.425091146,1,0,0,2.603715,scale,,,,,,0.1234,0.1,0.3702,0.3,stimuli/lakes/1090119_left.png,stimuli/lakes/1090119_right.png,,,,0,32,32,119,1,,,,,
,,,,,,$3526537103,2020-07-08_22h47.04.588,fisher_task,2020.1.3,MacIntel,60,0.150928819,-0.416792535,1,0,0,2.120065,scale,,,,,,0.349027907,0.282842712,0.174513954,0.141421356,stimuli/lakes/80109_left.png,stimuli/lakes/80109_right.png,,,,0,33,33,9,1,,,,,
,,,,,,$3526537103,2020-07-08_22h47.04.588,fisher_task,2020.1.3,MacIntel,60,0.159414063,-0.415017361,1,0,0,1.819505,scale,,,,,,0.21373507,0.173205081,0.326485712,0.264575131,stimuli/lakes/304043_left.png,stimuli/lakes/304043_right.png,,,,0,34,34,43,1,,,,,
,,,,,,$3526537103,2020-07-08_22h47.04.588,fisher_task,2020.1.3,MacIntel,60,-0.141072049,-0.429809028,1,0,0,1.268155,scale,,,,,,0.326485712,0.264575131,0.21373507,0.173205081,stimuli/lakes/7090128_left.png,stimuli/lakes/7090128_right.png,,,,0,35,35,128,1,,,,,
,,,,,,$3526537103,2020-07-08_22h47.04.588,fisher_task,2020.1.3,MacIntel,60,-0.141072049,-0.429809028,1,0,0,0.78346,scale,,,,,,0.302267034,0.244948974,0.2468,0.2,stimuli/lakes/6090126_left.png,stimuli/lakes/6090126_right.png,,,,0,36,36,126,1,,,,,
,,,,,,$3526537103,2020-07-08_22h47.04.588,fisher_task,2020.1.3,MacIntel,60,-0.117139757,-0.305329861,1,0,0,2.37844,scale,,,,,,0.3702,0.3,0.1234,0.1,stimuli/lakes/904058_left.png,stimuli/lakes/904058_right.png,,,,0,37,37,58,1,,,,,
,,,,,,$3526537103,2020-07-08_22h47.04.588,fisher_task,2020.1.3,MacIntel,60,0.148836806,-0.428932292,1,0,0,1.4691,scale,,,,,,0.174513954,0.141421356,0.349027907,0.282842712,stimuli/lakes/203033_left.png,stimuli/lakes/203033_right.png,,,,0,38,38,33,1,,,,,
,,,,,,$3526537103,2020-07-08_22h47.04.588,fisher_task,2020.1.3,MacIntel,60,0.147087674,-0.426592882,1,0,0,1.033375,scale,,,,,,0.174513954,0.141421356,0.349027907,0.282842712,stimuli/lakes/204051_left.png,stimuli/lakes/204051_right.png,,,,0,39,39,51,1,,,,,
,,,,,,$3526537103,2020-07-08_22h47.04.588,fisher_task,2020.1.3,MacIntel,60,0.0025,-0.255737847,1,0,0,5.04148,scale,,,,,,0.349027907,0.282842712,0.174513954,0.141421356,stimuli/lakes/803030_left.png,stimuli/lakes/803030_right.png,,,,0,40,40,30,1,,,,,
,,,,,,$3526537103,2020-07-08_22h47.04.588,fisher_task,2020.1.3,MacIntel,60,-0.145568576,-0.429865451,1,0,0,2.48668,scale,,,,,,0.3702,0.3,0.1234,0.1,stimuli/lakes/906079_left.png,stimuli/lakes/906079_right.png,,,,0,41,41,79,1,,,,,
,,,,,,$3526537103,2020-07-08_22h47.04.588,fisher_task,2020.1.3,MacIntel,60,-0.124483507,-0.309769965,1,0,0,2.954605,scale,,,,,,0.2468,0.2,0.302267034,0.244948974,stimuli/lakes/4080112_left.png,stimuli/lakes/4080112_right.png,,,,0,42,42,112,1,,,,,
,,,,,,$3526537103,2020-07-08_22h47.04.588,fisher_task,2020.1.3,MacIntel,60,-0.149131944,-0.42296875,1,0,0,2.102455,scale,,,,,,0.326485712,0.264575131,0.21373507,0.173205081,stimuli/lakes/7080117_left.png,stimuli/lakes/7080117_right.png,,,,0,43,43,117,1,,,,,
,,,,,,$3526537103,2020-07-08_22h47.04.588,fisher_task,2020.1.3,MacIntel,60,0.067517361,-0.263446181,1,0,0,3.63808,scale,,,,,,0.1234,0.1,0.3702,0.3,stimuli/lakes/105059_left.png,stimuli/lakes/105059_right.png,,,space,0,44,44,59,1,3.718075,,,,
,,,,,,$3526537103,2020-07-08_22h47.04.588,fisher_task,2020.1.3,MacIntel,60,-0.128081597,-0.343567708,1,0,0,2.12925,scale,,,,,,0.21373507,0.173205081,0.326485712,0.264575131,stimuli/lakes/3080109_left.png,stimuli/lakes/3080109_right.png,,,,0,45,45,109,1,,,,,
,,,,,,$3526537103,2020-07-08_22h47.04.588,fisher_task,2020.1.3,MacIntel,60,-0.096306424,-0.301592882,1,0,0,2.17007,scale,,,,,,0.349027907,0.282842712,0.174513954,0.141421356,stimuli/lakes/804057_left.png,stimuli/lakes/804057_right.png,,,,0,46,46,57,1,,,,,
,,,,,,$3526537103,2020-07-08_22h47.04.588,fisher_task,2020.1.3,MacIntel,60,-0.147673611,-0.419648438,1,0,0,1.41776,scale,,,,,,0.349027907,0.282842712,0.174513954,0.141421356,stimuli/lakes/806078_left.png,stimuli/lakes/806078_right.png,,,,0,47,47,78,1,,,,,
,,,,,,$3526537103,2020-07-08_22h47.04.588,fisher_task,2020.1.3,MacIntel,60,-0.133220486,-0.325928819,1,0,0,2.586945,scale,,,,,,0.21373507,0.173205081,0.326485712,0.264575131,stimuli/lakes/3070100_left.png,stimuli/lakes/3070100_right.png,,,,0,48,48,100,1,,,,,
,,,,,,$3526537103,2020-07-08_22h47.04.588,fisher_task,2020.1.3,MacIntel,60,0.132677951,-0.321996528,1,0,0,2.43711,scale,,,,,,0.3702,0.3,0.1234,0.1,stimuli/lakes/903040_left.png,stimuli/lakes/903040_right.png,,,,0,49,49,40,1,,,,,
,,,,,,$3526537103,2020-07-08_22h47.04.588,fisher_task,2020.1.3,MacIntel,60,0.088875868,-0.289375,1,0,0,3.4128,scale,,,,,,0.3702,0.3,0.1234,0.1,stimuli/lakes/902022_left.png,stimuli/lakes/902022_right.png,,,,0,50,50,22,1,,,,,
,,,,,,$3526537103,2020-07-08_22h47.04.588,fisher_task,2020.1.3,MacIntel,60,0.123311632,-0.321202257,1,0,0,3.73918,scale,,,,,,0.326485712,0.264575131,0.21373507,0.173205081,stimuli/lakes/70107_left.png,stimuli/lakes/70107_right.png,,,,0,51,51,7,1,,,,,
,,,,,,$3526537103,2020-07-08_22h47.04.588,fisher_task,2020.1.3,MacIntel,60,0.142300347,-0.424917535,1,0,0,1.3685,scale,,,,,,0.174513954,0.141421356,0.349027907,0.282842712,stimuli/lakes/204042_left.png,stimuli/lakes/204042_right.png,,,,0,52,52,42,1,,,,,
,,,,,,$3526537103,2020-07-08_22h47.04.588,fisher_task,2020.1.3,MacIntel,60,0.148146701,-0.416414931,1,0,0,1.15158,scale,,,,,,0.2468,0.2,0.302267034,0.244948974,stimuli/lakes/404053_left.png,stimuli/lakes/404053_right.png,,,,0,53,53,53,1,,,,,
,,,,,,$3526537103,2020-07-08_22h47.04.588,fisher_task,2020.1.3,MacIntel,60,0.148146701,-0.416124132,1,0,0,0.851525,scale,,,,,,0.21373507,0.173205081,0.326485712,0.264575131,stimuli/lakes/30100_left.png,stimuli/lakes/30100_right.png,,,,0,54,54,0,1,,,,,
,,,,,,$3526537103,2020-07-08_22h47.04.588,fisher_task,2020.1.3,MacIntel,60,0.146983507,-0.413797743,1,0,0,0.66748,scale,,,,,,0.21373507,0.173205081,0.326485712,0.264575131,stimuli/lakes/30101_left.png,stimuli/lakes/30101_right.png,,,,0,55,55,1,1,,,,,
,,,,,,$3526537103,2020-07-08_22h47.04.588,fisher_task,2020.1.3,MacIntel,60,-0.104079861,-0.296336806,1,0,0,5.058095,scale,,,,,,0.349027907,0.282842712,0.174513954,0.141421356,stimuli/lakes/807096_left.png,stimuli/lakes/807096_right.png,,,,0,56,56,96,1,,,,,
,,,,,,$3526537103,2020-07-08_22h47.04.588,fisher_task,2020.1.3,MacIntel,60,0.002530382,-0.250203993,1,0,0,3.36308,scale,,,,,,0.349027907,0.282842712,0.174513954,0.141421356,stimuli/lakes/802021_left.png,stimuli/lakes/802021_right.png,,,,0,57,57,21,1,,,,,
,,,,,,$3526537103,2020-07-08_22h47.04.588,fisher_task,2020.1.3,MacIntel,60,-0.062465278,-0.267482639,1,0,0,3.589115,scale,,,,,,0.174513954,0.141421356,0.349027907,0.282842712,stimuli/lakes/207090_left.png,stimuli/lakes/207090_right.png,,,,0,58,58,90,1,,,,,
,,,,,,$3526537103,2020-07-08_22h47.04.588,fisher_task,2020.1.3,MacIntel,60,-0.062769097,-0.266875,1,0,0,2.828915,scale,,,,,,0.3702,0.3,0.1234,0.1,stimuli/lakes/904049_left.png,stimuli/lakes/904049_right.png,,,,0,59,59,49,1,,,,,
,,,,,,$3526537103,2020-07-08_22h47.04.588,fisher_task,2020.1.3,MacIntel,60,-0.131744792,-0.340598958,1,0,0,2.82123,scale,,,,,,0.2468,0.2,0.302267034,0.244948974,stimuli/lakes/4070101_left.png,stimuli/lakes/4070101_right.png,,,,0,60,60,101,1,,,,,
,,,,,,$3526537103,2020-07-08_22h47.04.588,fisher_task,2020.1.3,MacIntel,60,-0.131744792,-0.343172743,1,0,0,2.4955,scale,,,,,,0.302267034,0.244948974,0.2468,0.2,stimuli/lakes/605066_left.png,stimuli/lakes/605066_right.png,,,,0,61,61,66,1,,,,,
,,,,,,$3526537103,2020-07-08_22h47.04.588,fisher_task,2020.1.3,MacIntel,60,-0.151536458,-0.417209201,1,0,0,1.3185,scale,,,,,,0.275930788,0.223606798,0.275930788,0.223606798,stimuli/lakes/506075_left.png,stimuli/lakes/506075_right.png,,,,0,62,62,75,1,,,,,
,,,,,,$3526537103,2020-07-08_22h47.04.588,fisher_task,2020.1.3,MacIntel,60,0.135729167,-0.343159722,1,0,0,2.92187,scale,,,,,,0.302267034,0.244948974,0.2468,0.2,stimuli/lakes/602017_left.png,stimuli/lakes/602017_right.png,,,,0,63,63,17,1,,,,,
,,,,,,$3526537103,2020-07-08_22h47.04.588,fisher_task,2020.1.3,MacIntel,60,-0.149674479,-0.423693576,1,0,0,1.9528,scale,,,,,,0.349027907,0.282842712,0.174513954,0.141421356,stimuli/lakes/806087_left.png,stimuli/lakes/806087_right.png,,,,0,64,64,87,1,,,,,
,,,,,,$3526537103,2020-07-08_22h47.04.588,fisher_task,2020.1.3,MacIntel,60,0.131297743,-0.306445313,1,0,0,2.23697,scale,,,,,,0.2468,0.2,0.302267034,0.244948974,stimuli/lakes/405063_left.png,stimuli/lakes/405063_right.png,,,,0,65,65,63,1,,,,,
,,,,,,$3526537103,2020-07-08_22h47.04.588,fisher_task,2020.1.3,MacIntel,60,-0.141289063,-0.371202257,1,0,0,2.002845,scale,,,,,,0.21373507,0.173205081,0.326485712,0.264575131,stimuli/lakes/3090122_left.png,stimuli/lakes/3090122_right.png,,,space,0,66,66,122,1,2.32969,,,,
,,,,,,$3526537103,2020-07-08_22h47.04.588,fisher_task,2020.1.3,MacIntel,60,-0.14859809,-0.422825521,1,0,0,1.78551,scale,,,,,,0.2468,0.2,0.302267034,0.244948974,stimuli/lakes/4090123_left.png,stimuli/lakes/4090123_right.png,,,,0,67,67,123,1,,,,,
,,,,,,$3526537103,2020-07-08_22h47.04.588,fisher_task,2020.1.3,MacIntel,60,0.164830729,-0.431124132,1,0,0,1.25256,scale,,,,,,0.21373507,0.173205081,0.326485712,0.264575131,stimuli/lakes/303025_left.png,stimuli/lakes/303025_right.png,,,,0,68,68,25,1,,,,,
,,,,,,$3526537103,2020-07-08_22h47.04.588,fisher_task,2020.1.3,MacIntel,60,0.163372396,-0.427634549,1,0,0,1.35166,scale,,,,,,0.2468,0.2,0.302267034,0.244948974,stimuli/lakes/405064_left.png,stimuli/lakes/405064_right.png,,,,0,69,69,64,1,,,,,
,,,,,,$3526537103,2020-07-08_22h47.04.588,fisher_task,2020.1.3,MacIntel,60,0.163081597,-0.42734375,1,0,0,1.25144,scale,,,,,,0.174513954,0.141421356,0.349027907,0.282842712,stimuli/lakes/205060_left.png,stimuli/lakes/205060_right.png,,,,0,70,70,60,1,,,,,
,,,,,,$3526537103,2020-07-08_22h47.04.588,fisher_task,2020.1.3,MacIntel,60,-0.157508681,-0.416358507,1,0,0,1.319435,scale,,,,,,0.302267034,0.244948974,0.2468,0.2,stimuli/lakes/6080114_left.png,stimuli/lakes/6080114_right.png,,,,0,71,71,114,1,,,,,
,,,,,,$3526537103,2020-07-08_22h47.04.588,fisher_task,2020.1.3,MacIntel,60,-0.152925347,-0.432608507,1,0,0,1.00027,scale,,,,,,0.302267034,0.244948974,0.2468,0.2,stimuli/lakes/6090127_left.png,stimuli/lakes/6090127_right.png,,,,0,72,72,127,1,,,,,
,,,,,,$3526537103,2020-07-08_22h47.04.588,fisher_task,2020.1.3,MacIntel,60,-0.152925347,-0.431736111,1,0,0,1.919125,scale,,,,,,0.2468,0.2,0.302267034,0.244948974,stimuli/lakes/4090124_left.png,stimuli/lakes/4090124_right.png,,,,0,73,73,124,1,,,,,
,,,,,,$3526537103,2020-07-08_22h47.04.588,fisher_task,2020.1.3,MacIntel,60,0.051697049,-0.246666667,1,0,0,3.41361,scale,,,,,,0.2468,0.2,0.302267034,0.244948974,stimuli/lakes/406083_left.png,stimuli/lakes/406083_right.png,,,,0,74,74,83,1,,,,,
,,,,,,$3526537103,2020-07-08_22h47.04.588,fisher_task,2020.1.3,MacIntel,60,0.14156684,-0.4309375,1,0,0,1.401915,scale,,,,,,0.275930788,0.223606798,0.275930788,0.223606798,stimuli/lakes/504045_left.png,stimuli/lakes/504045_right.png,,,,0,75,75,45,1,,,,,
,,,,,,$3526537103,2020-07-08_22h47.04.588,fisher_task,2020.1.3,MacIntel,60,0.142981771,-0.424518229,1,0,0,1.017205,scale,,,,,,0.21373507,0.173205081,0.326485712,0.264575131,stimuli/lakes/302012_left.png,stimuli/lakes/302012_right.png,,,,0,76,76,12,1,,,,,
,,,,,,$3526537103,2020-07-08_22h47.04.588,fisher_task,2020.1.3,MacIntel,60,0.149283854,-0.428229167,1,0,0,1.009015,scale,,,,,,0.21373507,0.173205081,0.326485712,0.264575131,stimuli/lakes/303034_left.png,stimuli/lakes/303034_right.png,,,,0,77,77,34,1,,,,,
,,,,,,$3526537103,2020-07-08_22h47.04.588,fisher_task,2020.1.3,MacIntel,60,-0.049118924,-0.253975694,1,0,0,3.421825,scale,,,,,,0.302267034,0.244948974,0.2468,0.2,stimuli/lakes/604055_left.png,stimuli/lakes/604055_right.png,,,,0,78,78,55,1,,,,,
,,,,,,$3526537103,2020-07-08_22h47.04.588,fisher_task,2020.1.3,MacIntel,60,-0.158854167,-0.426393229,1,0,0,1.636825,scale,,,,,,0.21373507,0.173205081,0.326485712,0.264575131,stimuli/lakes/3080110_left.png,stimuli/lakes/3080110_right.png,,,,0,79,79,110,1,,,,,
,,,,,,$3526537103,2020-07-08_22h47.04.588,fisher_task,2020.1.3,MacIntel,60,0.149314236,-0.369175347,1,0,0,2.75356,scale,,,,,,0.326485712,0.264575131,0.21373507,0.173205081,stimuli/lakes/702019_left.png,stimuli/lakes/702019_right.png,,,,0,80,80,19,1,,,,,
,,,,,,$3526537103,2020-07-08_22h47.04.588,fisher_task,2020.1.3,MacIntel,60,0.150112847,-0.423194444,1,0,0,1.218755,scale,,,,,,0.2468,0.2,0.302267034,0.244948974,stimuli/lakes/402014_left.png,stimuli/lakes/402014_right.png,,,,0,81,81,14,1,,,,,
,,,,,,$3526537103,2020-07-08_22h47.04.588,fisher_task,2020.1.3,MacIntel,60,-0.00468316,-0.249665799,1,0,0,3.214285,scale,,,,,,0.302267034,0.244948974,0.2468,0.2,stimuli/lakes/604046_left.png,stimuli/lakes/604046_right.png,,,,0,82,82,46,1,,,,,
,,,,,,$3526537103,2020-07-08_22h47.04.588,fisher_task,2020.1.3,MacIntel,60,-0.099804688,-0.275824653,1,0,0,2.67029,scale,,,,,,0.174513954,0.141421356,0.349027907,0.282842712,stimuli/lakes/207099_left.png,stimuli/lakes/207099_right.png,,,,0,83,83,99,1,,,,,
,,,,,,$3526537103,2020-07-08_22h47.04.588,fisher_task,2020.1.3,MacIntel,60,0.155277778,-0.429444444,1,0,0,1.38535,scale,,,,,,0.1234,0.1,0.3702,0.3,stimuli/lakes/104050_left.png,stimuli/lakes/104050_right.png,,,,0,84,84,50,1,,,,,
,,,,,,$3526537103,2020-07-08_22h47.04.588,fisher_task,2020.1.3,MacIntel,60,-0.158919271,-0.418580729,1,0,0,3.25547,scale,,,,,,0.174513954,0.141421356,0.349027907,0.282842712,stimuli/lakes/2080108_left.png,stimuli/lakes/2080108_right.png,,,,0,85,85,108,1,,,,,
,,,,,,$3526537103,2020-07-08_22h47.04.588,fisher_task,2020.1.3,MacIntel,60,0.118328993,-0.320564236,1,0,0,2.653945,scale,,,,,,0.3702,0.3,0.1234,0.1,stimuli/lakes/901010_left.png,stimuli/lakes/901010_right.png,,,,0,86,86,10,1,,,,,
,,,,,,$3526537103,2020-07-08_22h47.04.588,fisher_task,2020.1.3,MacIntel,60,0.154891493,-0.428498264,1,0,0,1.768425,scale,,,,,,0.275930788,0.223606798,0.275930788,0.223606798,stimuli/lakes/502016_left.png,stimuli/lakes/502016_right.png,,,,0,87,87,16,1,,,,,
,,,,,,$3526537103,2020-07-08_22h47.04.588,fisher_task,2020.1.3,MacIntel,60,0.088658854,-0.282595486,1,0,0,2.37065,scale,,,,,,0.21373507,0.173205081,0.326485712,0.264575131,stimuli/lakes/305062_left.png,stimuli/lakes/305062_right.png,,,space,0,88,88,62,1,2.465185,,,,
,,,,,,$3526537103,2020-07-08_22h47.04.588,fisher_task,2020.1.3,MacIntel,60,-0.142126736,-0.352417535,1,0,0,1.90387,scale,,,,,,0.21373507,0.173205081,0.326485712,0.264575131,stimuli/lakes/3090121_left.png,stimuli/lakes/3090121_right.png,,,,0,89,89,121,1,,,,,
,,,,,,$3526537103,2020-07-08_22h47.04.588,fisher_task,2020.1.3,MacIntel,60,-0.1453125,-0.427777778,1,0,0,1.468915,scale,,,,,,0.275930788,0.223606798,0.275930788,0.223606798,stimuli/lakes/5090125_left.png,stimuli/lakes/5090125_right.png,,,,0,90,90,125,1,,,,,
,,,,,,$3526537103,2020-07-08_22h47.04.588,fisher_task,2020.1.3,MacIntel,60,-0.153368056,-0.431189236,1,0,0,1.201985,scale,,,,,,0.326485712,0.264575131,0.21373507,0.173205081,stimuli/lakes/7090129_left.png,stimuli/lakes/7090129_right.png,,,,0,91,91,129,1,,,,,
,,,,,,$3526537103,2020-07-08_22h47.04.588,fisher_task,2020.1.3,MacIntel,60,0.171605903,-0.430946181,1,0,0,1.434945,scale,,,,,,0.2468,0.2,0.302267034,0.244948974,stimuli/lakes/404044_left.png,stimuli/lakes/404044_right.png,,,,0,92,92,44,1,,,,,
,,,,,,$3526537103,2020-07-08_22h47.04.588,fisher_task,2020.1.3,MacIntel,60,-0.095924479,-0.276671007,1,0,0,2.30296,scale,,,,,,0.21373507,0.173205081,0.326485712,0.264575131,stimuli/lakes/307091_left.png,stimuli/lakes/307091_right.png,,,,0,93,93,91,1,,,,,
,,,,,,$3526537103,2020-07-08_22h47.04.588,fisher_task,2020.1.3,MacIntel,60,-0.135386285,-0.429257813,1,0,0,1.4598,scale,,,,,,0.3702,0.3,0.1234,0.1,stimuli/lakes/907097_left.png,stimuli/lakes/907097_right.png,,,,0,94,94,97,1,,,,,
,,,,,,$3526537103,2020-07-08_22h47.04.588,fisher_task,2020.1.3,MacIntel,60,-0.145190972,-0.341427951,1,0,0,2.502855,scale,,,,,,0.302267034,0.244948974,0.2468,0.2,stimuli/lakes/605065_left.png,stimuli/lakes/605065_right.png,,,,0,95,95,65,1,,,,,
,,,,,,$3526537103,2020-07-08_22h47.04.588,fisher_task,2020.1.3,MacIntel,60,-0.142855903,-0.377595486,1,0,0,2.13741,scale,,,,,,0.326485712,0.264575131,0.21373507,0.173205081,stimuli/lakes/705067_left.png,stimuli/lakes/705067_right.png,,,,0,96,96,67,1,,,,,
,,,,,,$3526537103,2020-07-08_22h47.04.588,fisher_task,2020.1.3,MacIntel,60,0.143476562,-0.334201389,1,0,0,1.718785,scale,,,,,,0.21373507,0.173205081,0.326485712,0.264575131,stimuli/lakes/304052_left.png,stimuli/lakes/304052_right.png,,,,0,97,97,52,1,,,,,
,,,,,,$3526537103,2020-07-08_22h47.04.588,fisher_task,2020.1.3,MacIntel,60,0.071844618,-0.271293403,1,0,0,1.819165,scale,,,,,,0.326485712,0.264575131,0.21373507,0.173205081,stimuli/lakes/703029_left.png,stimuli/lakes/703029_right.png,,,,0,98,98,29,1,,,,,
,,,,,,$3526537103,2020-07-08_22h47.04.588,fisher_task,2020.1.3,MacIntel,60,-0.130351562,-0.331006944,1,0,0,3.71344,scale,,,,,,0.21373507,0.173205081,0.326485712,0.264575131,stimuli/lakes/306073_left.png,stimuli/lakes/306073_right.png,,,,0,99,99,73,1,,,,,
,,,,,,$3526537103,2020-07-08_22h47.04.588,fisher_task,2020.1.3,MacIntel,60,-0.15359809,-0.401128472,1,0,0,1.4354,scale,,,,,,0.326485712,0.264575131,0.21373507,0.173205081,stimuli/lakes/706077_left.png,stimuli/lakes/706077_right.png,,,,0,100,100,77,1,,,,,
,,,,,,$3526537103,2020-07-08_22h47.04.588,fisher_task,2020.1.3,MacIntel,60,0.161302083,-0.43406684,1,0,0,1.11762,scale,,,,,,0.2468,0.2,0.302267034,0.244948974,stimuli/lakes/40103_left.png,stimuli/lakes/40103_right.png,,,,0,101,101,3,1,,,,,
,,,,,,$3526537103,2020-07-08_22h47.04.588,fisher_task,2020.1.3,MacIntel,60,0.068463542,-0.265416667,1,0,0,3.19591,scale,,,,,,0.302267034,0.244948974,0.2468,0.2,stimuli/lakes/603037_left.png,stimuli/lakes/603037_right.png,,,,0,102,102,37,1,,,,,
,,,,,,$3526537103,2020-07-08_22h47.04.588,fisher_task,2020.1.3,MacIntel,60,0.152222222,-0.427478299,1,0,0,1.55282,scale,,,,,,0.2468,0.2,0.302267034,0.244948974,stimuli/lakes/402015_left.png,stimuli/lakes/402015_right.png,,,,0,103,103,15,1,,,,,
,,,,,,$3526537103,2020-07-08_22h47.04.588,fisher_task,2020.1.3,MacIntel,60,-0.153337674,-0.421835937,1,0,0,1.83642,scale,,,,,,0.326485712,0.264575131,0.21373507,0.173205081,stimuli/lakes/706086_left.png,stimuli/lakes/706086_right.png,,,,0,104,104,86,1,,,,,
,,,,,,$3526537103,2020-07-08_22h47.04.588,fisher_task,2020.1.3,MacIntel,60,-0.15219184,-0.422695312,1,0,0,0.90072,scale,,,,,,0.302267034,0.244948974,0.2468,0.2,stimuli/lakes/606085_left.png,stimuli/lakes/606085_right.png,,,,0,105,105,85,1,,,,,
,,,,,,$3526537103,2020-07-08_22h47.04.588,fisher_task,2020.1.3,MacIntel,60,0.155763889,-0.436657986,1,0,0,1.518125,scale,,,,,,0.275930788,0.223606798,0.275930788,0.223606798,stimuli/lakes/504054_left.png,stimuli/lakes/504054_right.png,,,,0,106,106,54,1,,,,,
,,,,,,$3526537103,2020-07-08_22h47.04.588,fisher_task,2020.1.3,MacIntel,60,-0.153953993,-0.425820313,1,0,0,1.45175,scale,,,,,,0.302267034,0.244948974,0.2468,0.2,stimuli/lakes/607094_left.png,stimuli/lakes/607094_right.png,,,,0,107,107,94,1,,,,,
,,,,,,$3526537103,2020-07-08_22h47.04.588,fisher_task,2020.1.3,MacIntel,60,-0.153394097,-0.425238715,1,0,0,0.984595,scale,,,,,,0.302267034,0.244948974,0.2468,0.2,stimuli/lakes/6080115_left.png,stimuli/lakes/6080115_right.png,,,,0,108,108,115,1,,,,,
,,,,,,$3526537103,2020-07-08_22h47.04.588,fisher_task,2020.1.3,MacIntel,60,0.044644097,-0.263411458,1,0,0,3.65532,scale,,,,,,0.2468,0.2,0.302267034,0.244948974,stimuli/lakes/407092_left.png,stimuli/lakes/407092_right.png,,,,0,109,109,92,1,,,,,
,,,,,,$3526537103,2020-07-08_22h47.04.588,fisher_task,2020.1.3,MacIntel,60,0.153728299,-0.429253472,1,0,0,1.26745,scale,,,,,,0.21373507,0.173205081,0.326485712,0.264575131,stimuli/lakes/302013_left.png,stimuli/lakes/302013_right.png,,,space,0,110,110,13,1,4.436665,,,,
,,,,,,$3526537103,2020-07-08_22h47.04.588,fisher_task,2020.1.3,MacIntel,60,-0.157855903,-0.437977431,1,0,0,1.185605,scale,,,,,,0.275930788,0.223606798,0.275930788,0.223606798,stimuli/lakes/507093_left.png,stimuli/lakes/507093_right.png,,,,0,111,111,93,1,,,,,
,,,,,,$3526537103,2020-07-08_22h47.04.588,fisher_task,2020.1.3,MacIntel,60,0.149045139,-0.432469618,1,0,0,1.226125,scale,,,,,,0.2468,0.2,0.302267034,0.244948974,stimuli/lakes/403026_left.png,stimuli/lakes/403026_right.png,,,,0,112,112,26,1,,,,,
,,,,,,$3526537103,2020-07-08_22h47.04.588,fisher_task,2020.1.3,MacIntel,60,-0.066210937,-0.275894097,1,0,0,3.13826,scale,,,,,,0.349027907,0.282842712,0.174513954,0.141421356,stimuli/lakes/804048_left.png,stimuli/lakes/804048_right.png,,,,0,113,113,48,1,,,,,
,,,,,,$3526537103,2020-07-08_22h47.04.588,fisher_task,2020.1.3,MacIntel,60,0.173068576,-0.432152778,1,0,0,1.569205,scale,,,,,,0.275930788,0.223606798,0.275930788,0.223606798,stimuli/lakes/503027_left.png,stimuli/lakes/503027_right.png,,,,0,114,114,27,1,,,,,
,,,,,,$3526537103,2020-07-08_22h47.04.588,fisher_task,2020.1.3,MacIntel,60,0.168706597,-0.426046007,1,0,0,0.950345,scale,,,,,,0.1234,0.1,0.3702,0.3,stimuli/lakes/104041_left.png,stimuli/lakes/104041_right.png,,,,0,115,115,41,1,,,,,
,,,,,,$3526537103,2020-07-08_22h47.04.588,fisher_task,2020.1.3,MacIntel,60,0.124891493,-0.320868056,1,0,0,2.60285,scale,,,,,,0.326485712,0.264575131,0.21373507,0.173205081,stimuli/lakes/702020_left.png,stimuli/lakes/702020_right.png,,,,0,116,116,20,1,,,,,
,,,,,,$3526537103,2020-07-08_22h47.04.588,fisher_task,2020.1.3,MacIntel,60,0.174032118,-0.42875434,1,0,0,1.168635,scale,,,,,,0.174513954,0.141421356,0.349027907,0.282842712,stimuli/lakes/202011_left.png,stimuli/lakes/202011_right.png,,,,0,117,117,11,1,,,,,
,,,,,,$3526537103,2020-07-08_22h47.04.588,fisher_task,2020.1.3,MacIntel,60,-0.14828559,-0.430763889,1,0,0,1.46864,scale,,,,,,0.275930788,0.223606798,0.275930788,0.223606798,stimuli/lakes/506084_left.png,stimuli/lakes/506084_right.png,,,,0,118,118,84,1,,,,,
,,,,,,$3526537103,2020-07-08_22h47.04.588,fisher_task,2020.1.3,MacIntel,60,-0.14828559,-0.429019097,1,0,0,0.91785,scale,,,,,,0.326485712,0.264575131,0.21373507,0.173205081,stimuli/lakes/7080116_left.png,stimuli/lakes/7080116_right.png,,,,0,119,119,116,1,,,,,
,,,,,,$3526537103,2020-07-08_22h47.04.588,fisher_task,2020.1.3,MacIntel,60,0.115911458,-0.297751736,1,0,0,1.819415,scale,,,,,,0.174513954,0.141421356,0.349027907,0.282842712,stimuli/lakes/206072_left.png,stimuli/lakes/206072_right.png,,,,0,120,120,72,1,,,,,
,,,,,,$3526537103,2020-07-08_22h47.04.588,fisher_task,2020.1.3,MacIntel,60,0.058389757,-0.259049479,1,0,0,5.34121,scale,,,,,,0.2468,0.2,0.302267034,0.244948974,stimuli/lakes/406074_left.png,stimuli/lakes/406074_right.png,,,,0,121,121,74,1,,,,,
,,,,,,$3526537103,2020-07-08_22h47.04.588,fisher_task,2020.1.3,MacIntel,60,0.157196181,-0.427947049,1,0,0,1.351555,scale,,,,,,0.275930788,0.223606798,0.275930788,0.223606798,stimuli/lakes/503036_left.png,stimuli/lakes/503036_right.png,,,,0,122,122,36,1,,,,,
,,,,,,$3526537103,2020-07-08_22h47.04.588,fisher_task,2020.1.3,MacIntel,60,-0.07671441,-0.277204861,1,0,0,4.17352,scale,,,,,,0.326485712,0.264575131,0.21373507,0.173205081,stimuli/lakes/704047_left.png,stimuli/lakes/704047_right.png,,,,0,123,123,47,1,,,,,
,,,,,,$3526537103,2020-07-08_22h47.04.588,fisher_task,2020.1.3,MacIntel,60,0.090516493,-0.283940972,1,0,0,1.651895,scale,,,,,,0.326485712,0.264575131,0.21373507,0.173205081,stimuli/lakes/703038_left.png,stimuli/lakes/703038_right.png,,,,0,124,124,38,1,,,,,
,,,,,,$3526537103,2020-07-08_22h47.04.588,fisher_task,2020.1.3,MacIntel,60,-0.151983507,-0.428949653,1,0,0,1.33556,scale,,,,,,0.326485712,0.264575131,0.21373507,0.173205081,stimuli/lakes/7070104_left.png,stimuli/lakes/7070104_right.png,,,,0,125,125,104,1,,,,,
,,,,,,$3526537103,2020-07-08_22h47.04.588,fisher_task,2020.1.3,MacIntel,60,0.163637153,-0.428368056,1,0,0,3.67281,scale,,,,,,0.302267034,0.244948974,0.2468,0.2,stimuli/lakes/60106_left.png,stimuli/lakes/60106_right.png,,,,0,126,126,6,1,,,,,
,,,,,,$3526537103,2020-07-08_22h47.04.588,fisher_task,2020.1.3,MacIntel,60,-0.148203125,-0.431605903,1,0,0,1.243045,scale,,,,,,0.275930788,0.223606798,0.275930788,0.223606798,stimuli/lakes/5070102_left.png,stimuli/lakes/5070102_right.png,,,,0,127,127,102,1,,,,,
,,,,,,$3526537103,2020-07-08_22h47.04.588,fisher_task,2020.1.3,MacIntel,60,0.139743924,-0.432065972,1,0,0,1.468085,scale,,,,,,0.1234,0.1,0.3702,0.3,stimuli/lakes/103023_left.png,stimuli/lakes/103023_right.png,,,,0,128,128,23,1,,,,,
,,,,,,$3526537103,2020-07-08_22h47.04.588,fisher_task,2020.1.3,MacIntel,60,-0.145238715,-0.432604167,1,0,0,1.301555,scale,,,,,,0.326485712,0.264575131,0.21373507,0.173205081,stimuli/lakes/707095_left.png,stimuli/lakes/707095_right.png,,,,0,129,129,95,1,,,,,
,,,,,,$3526537103,2020-07-08_22h47.04.588,fisher_task,2020.1.3,MacIntel,60,,,,,,,,,,,,,,,,,,,,,,,,,,,,space,11.226755,space,79.30668
