keySpace.keys,keySpace.rt,instructions.thisRepN,instructions.thisTrialN,instructions.thisN,instructions.thisIndex,instructions.ran,participant,date,expName,psychopyVersion,OS,frameRate,fbclid,mouse.x,mouse.y,mouse.leftButton,mouse.midButton,mouse.rightButton,mouse.time,mouse.clicked_name,training.thisRepN,training.thisTrialN,training.thisN,training.thisIndex,training.ran,widthBasketLeft,heightBasketLeft,widthBasketRight,heightBasketRight,leftLake,rightLake,space2.keys,space2.rt,space1.keys,trials.thisRepN,trials.thisTrialN,trials.thisN,trials.thisIndex,trials.ran,space1.rt,finalSpace1.keys,finalSpace1.rt,finalSpace2.keys,finalSpace2.rt
space,3.295205,0,0,0,0,1,$participant_id,2020-07-09_13h46.14.480,fisher_task,2020.1.3,Win32,60,IwAR0ukC7OKkr6FcaJuLjCIz0k9s_mGJ0m6iJexdJsibCL-S3CxwrlWgyBN4c,,,,,,,,,,,,,,,,,,,,,,,,,,,,,,,
space,1.636135,1,0,1,0,1,$participant_id,2020-07-09_13h46.14.480,fisher_task,2020.1.3,Win32,60,IwAR0ukC7OKkr6FcaJuLjCIz0k9s_mGJ0m6iJexdJsibCL-S3CxwrlWgyBN4c,,,,,,,,,,,,,,,,,,,,,,,,,,,,,,,
,,2,0,2,0,1,$participant_id,2020-07-09_13h46.14.480,fisher_task,2020.1.3,Win32,60,IwAR0ukC7OKkr6FcaJuLjCIz0k9s_mGJ0m6iJexdJsibCL-S3CxwrlWgyBN4c,,,,,,,,,,,,,,,,,,,,,,,,,,,,,,,
,,,,,,,$participant_id,2020-07-09_13h46.14.480,fisher_task,2020.1.3,Win32,60,IwAR0ukC7OKkr6FcaJuLjCIz0k9s_mGJ0m6iJexdJsibCL-S3CxwrlWgyBN4c,0.068518547,-0.243518597,1,0,0,4.029715,scale,0,0,0,0,1,0.275930788,0.223606798,0.275930788,0.223606798,stimuli/training/20_left.png,stimuli/training/20_right.png,,,,,,,,,,,,,
,,,,,,,$participant_id,2020-07-09_13h46.14.480,fisher_task,2020.1.3,Win32,60,IwAR0ukC7OKkr6FcaJuLjCIz0k9s_mGJ0m6iJexdJsibCL-S3CxwrlWgyBN4c,-0.061111086,-0.237037059,1,0,0,1.781695,scale,0,1,1,1,1,0.275930788,0.223606798,0.275930788,0.223606798,stimuli/training/80_left.png,stimuli/training/80_right.png,,,,,,,,,,,,,
,,,,,,,$participant_id,2020-07-09_13h46.14.480,fisher_task,2020.1.3,Win32,60,IwAR0ukC7OKkr6FcaJuLjCIz0k9s_mGJ0m6iJexdJsibCL-S3CxwrlWgyBN4c,0.096296326,-0.241666689,1,0,0,7.293465,scale,0,2,2,2,1,0.174513954,0.141421356,0.349027907,0.282842712,stimuli/training/50_left.png,stimuli/training/50_right.png,,,,,,,,,,,,,
,,,,,,,$participant_id,2020-07-09_13h46.14.480,fisher_task,2020.1.3,Win32,60,IwAR0ukC7OKkr6FcaJuLjCIz0k9s_mGJ0m6iJexdJsibCL-S3CxwrlWgyBN4c,-0.141666644,-0.293518599,1,0,0,4.678985,scale,0,3,3,3,1,0.349027907,0.282842712,0.174513954,0.141421356,stimuli/training/50_left.png,stimuli/training/50_right.png,,,,,,,,,,,,,
,,,,,,,$participant_id,2020-07-09_13h46.14.480,fisher_task,2020.1.3,Win32,60,IwAR0ukC7OKkr6FcaJuLjCIz0k9s_mGJ0m6iJexdJsibCL-S3CxwrlWgyBN4c,-0.006481399,-0.21388891,1,0,0,2.080685,scale,0,4,4,4,1,0.275930788,0.223606798,0.275930788,0.223606798,stimuli/training/50_left.png,stimuli/training/50_right.png,,,,,,,,,,,,,
,,,,,,,$participant_id,2020-07-09_13h46.14.480,fisher_task,2020.1.3,Win32,60,IwAR0ukC7OKkr6FcaJuLjCIz0k9s_mGJ0m6iJexdJsibCL-S3CxwrlWgyBN4c,0.181481513,-0.388888915,1,0,0,2.632455,scale,0,5,5,5,1,0.174513954,0.141421356,0.349027907,0.282842712,stimuli/training/20_left.png,stimuli/training/20_right.png,,,,,,,,,,,,,
,,,,,,,$participant_id,2020-07-09_13h46.14.480,fisher_task,2020.1.3,Win32,60,IwAR0ukC7OKkr6FcaJuLjCIz0k9s_mGJ0m6iJexdJsibCL-S3CxwrlWgyBN4c,-0.188888868,-0.397222249,1,0,0,1.514545,scale,0,6,6,6,1,0.349027907,0.282842712,0.174513954,0.141421356,stimuli/training/80_left.png,stimuli/training/80_right.png,,,,,,,,,,,,,
,,,,,,,$participant_id,2020-07-09_13h46.14.480,fisher_task,2020.1.3,Win32,60,IwAR0ukC7OKkr6FcaJuLjCIz0k9s_mGJ0m6iJexdJsibCL-S3CxwrlWgyBN4c,0.172222254,-0.393518602,1,0,0,1.513755,scale,0,7,7,7,1,0.1234,0.1,0.3702,0.3,stimuli/training/30_left.png,stimuli/training/30_right.png,,,,,,,,,,,,,
,,,,,,,$participant_id,2020-07-09_13h46.14.480,fisher_task,2020.1.3,Win32,60,IwAR0ukC7OKkr6FcaJuLjCIz0k9s_mGJ0m6iJexdJsibCL-S3CxwrlWgyBN4c,-0.189814794,-0.387037063,1,0,0,2.480535,scale,0,8,8,8,1,0.3702,0.3,0.1234,0.1,stimuli/training/70_left.png,stimuli/training/70_right.png,,,,,,,,,,,,,
,,,,,,,$participant_id,2020-07-09_13h46.14.480,fisher_task,2020.1.3,Win32,60,IwAR0ukC7OKkr6FcaJuLjCIz0k9s_mGJ0m6iJexdJsibCL-S3CxwrlWgyBN4c,-0.19537035,-0.430555583,1,0,0,2.49745,scale,0,9,9,9,1,0.326485712,0.264575131,0.21373507,0.173205081,stimuli/training/90_left.png,stimuli/training/90_right.png,,,,,,,,,,,,,
,,,,,,,$participant_id,2020-07-09_13h46.14.480,fisher_task,2020.1.3,Win32,60,IwAR0ukC7OKkr6FcaJuLjCIz0k9s_mGJ0m6iJexdJsibCL-S3CxwrlWgyBN4c,0.197222255,-0.43518527,1,0,0,1.66492,scale,0,10,10,10,1,0.21373507,0.173205081,0.326485712,0.264575131,stimuli/training/10_left.png,stimuli/training/10_right.png,,,,,,,,,,,,,
,,,,,,,$participant_id,2020-07-09_13h46.14.480,fisher_task,2020.1.3,Win32,60,IwAR0ukC7OKkr6FcaJuLjCIz0k9s_mGJ0m6iJexdJsibCL-S3CxwrlWgyBN4c,-0.020370288,-0.221296374,1,0,0,2.46309,scale,,,,,,0.302267034,0.244948974,0.2468,0.2,stimuli/lakes/6080114_left.png,stimuli/lakes/6080114_right.png,space,11.764665,,0,0,0,114,1,,,,,
,,,,,,,$participant_id,2020-07-09_13h46.14.480,fisher_task,2020.1.3,Win32,60,IwAR0ukC7OKkr6FcaJuLjCIz0k9s_mGJ0m6iJexdJsibCL-S3CxwrlWgyBN4c,-0.165740719,-0.332407489,1,0,0,2.064595,scale,,,,,,0.326485712,0.264575131,0.21373507,0.173205081,stimuli/lakes/705068_left.png,stimuli/lakes/705068_right.png,,,,0,1,1,68,1,,,,,
,,,,,,,$participant_id,2020-07-09_13h46.14.480,fisher_task,2020.1.3,Win32,60,IwAR0ukC7OKkr6FcaJuLjCIz0k9s_mGJ0m6iJexdJsibCL-S3CxwrlWgyBN4c,0.185185217,-0.362963045,1,0,0,1.548515,scale,,,,,,0.2468,0.2,0.302267034,0.244948974,stimuli/lakes/403035_left.png,stimuli/lakes/403035_right.png,,,,0,2,2,35,1,,,,,
,,,,,,,$participant_id,2020-07-09_13h46.14.480,fisher_task,2020.1.3,Win32,60,IwAR0ukC7OKkr6FcaJuLjCIz0k9s_mGJ0m6iJexdJsibCL-S3CxwrlWgyBN4c,0.135185216,-0.290740821,1,0,0,2.980015,scale,,,,,,0.275930788,0.223606798,0.275930788,0.223606798,stimuli/lakes/504045_left.png,stimuli/lakes/504045_right.png,,,,0,3,3,45,1,,,,,
,,,,,,,$participant_id,2020-07-09_13h46.14.480,fisher_task,2020.1.3,Win32,60,IwAR0ukC7OKkr6FcaJuLjCIz0k9s_mGJ0m6iJexdJsibCL-S3CxwrlWgyBN4c,-0.200925905,-0.432407492,1,0,0,2.33073,scale,,,,,,0.302267034,0.244948974,0.2468,0.2,stimuli/lakes/6080115_left.png,stimuli/lakes/6080115_right.png,,,,0,4,4,115,1,,,,,
,,,,,,,$participant_id,2020-07-09_13h46.14.480,fisher_task,2020.1.3,Win32,60,IwAR0ukC7OKkr6FcaJuLjCIz0k9s_mGJ0m6iJexdJsibCL-S3CxwrlWgyBN4c,0.194444477,-0.42129638,1,0,0,1.69737,scale,,,,,,0.174513954,0.141421356,0.349027907,0.282842712,stimuli/lakes/203024_left.png,stimuli/lakes/203024_right.png,,,,0,5,5,24,1,,,,,
,,,,,,,$participant_id,2020-07-09_13h46.14.480,fisher_task,2020.1.3,Win32,60,IwAR0ukC7OKkr6FcaJuLjCIz0k9s_mGJ0m6iJexdJsibCL-S3CxwrlWgyBN4c,0.192592625,-0.432407492,1,0,0,1.898765,scale,,,,,,0.21373507,0.173205081,0.326485712,0.264575131,stimuli/lakes/30101_left.png,stimuli/lakes/30101_right.png,,,,0,6,6,1,1,,,,,
,,,,,,,$participant_id,2020-07-09_13h46.14.480,fisher_task,2020.1.3,Win32,60,IwAR0ukC7OKkr6FcaJuLjCIz0k9s_mGJ0m6iJexdJsibCL-S3CxwrlWgyBN4c,-0.005555529,-0.212037058,1,0,0,4.82945,scale,,,,,,0.326485712,0.264575131,0.21373507,0.173205081,stimuli/lakes/70108_left.png,stimuli/lakes/70108_right.png,,,,0,7,7,8,1,,,,,
,,,,,,,$participant_id,2020-07-09_13h46.14.480,fisher_task,2020.1.3,Win32,60,IwAR0ukC7OKkr6FcaJuLjCIz0k9s_mGJ0m6iJexdJsibCL-S3CxwrlWgyBN4c,0.192592625,-0.425000028,1,0,0,2.513795,scale,,,,,,0.21373507,0.173205081,0.326485712,0.264575131,stimuli/lakes/302013_left.png,stimuli/lakes/302013_right.png,,,,0,8,8,13,1,,,,,
,,,,,,,$participant_id,2020-07-09_13h46.14.480,fisher_task,2020.1.3,Win32,60,IwAR0ukC7OKkr6FcaJuLjCIz0k9s_mGJ0m6iJexdJsibCL-S3CxwrlWgyBN4c,0.193518551,-0.426851936,1,0,0,1.56502,scale,,,,,,0.21373507,0.173205081,0.326485712,0.264575131,stimuli/lakes/302012_left.png,stimuli/lakes/302012_right.png,,,,0,9,9,12,1,,,,,
,,,,,,,$participant_id,2020-07-09_13h46.14.480,fisher_task,2020.1.3,Win32,60,IwAR0ukC7OKkr6FcaJuLjCIz0k9s_mGJ0m6iJexdJsibCL-S3CxwrlWgyBN4c,0.055555584,-0.216666688,1,0,0,11.10706,scale,,,,,,0.326485712,0.264575131,0.21373507,0.173205081,stimuli/lakes/704047_left.png,stimuli/lakes/704047_right.png,,,,0,10,10,47,1,,,,,
,,,,,,,$participant_id,2020-07-09_13h46.14.480,fisher_task,2020.1.3,Win32,60,IwAR0ukC7OKkr6FcaJuLjCIz0k9s_mGJ0m6iJexdJsibCL-S3CxwrlWgyBN4c,0.142592623,-0.279629709,1,0,0,6.0113,scale,,,,,,0.21373507,0.173205081,0.326485712,0.264575131,stimuli/lakes/305062_left.png,stimuli/lakes/305062_right.png,,,,0,11,11,62,1,,,,,
,,,,,,,$participant_id,2020-07-09_13h46.14.480,fisher_task,2020.1.3,Win32,60,IwAR0ukC7OKkr6FcaJuLjCIz0k9s_mGJ0m6iJexdJsibCL-S3CxwrlWgyBN4c,-0.171296275,-0.335185267,1,0,0,2.531845,scale,,,,,,0.275930788,0.223606798,0.275930788,0.223606798,stimuli/lakes/5080113_left.png,stimuli/lakes/5080113_right.png,,,,0,12,12,113,1,,,,,
,,,,,,,$participant_id,2020-07-09_13h46.14.480,fisher_task,2020.1.3,Win32,60,IwAR0ukC7OKkr6FcaJuLjCIz0k9s_mGJ0m6iJexdJsibCL-S3CxwrlWgyBN4c,-0.163888867,-0.302777802,1,0,0,11.922915,scale,,,,,,0.1234,0.1,0.3702,0.3,stimuli/lakes/1080107_left.png,stimuli/lakes/1080107_right.png,,,,0,13,13,107,1,,,,,
,,,,,,,$participant_id,2020-07-09_13h46.14.480,fisher_task,2020.1.3,Win32,60,IwAR0ukC7OKkr6FcaJuLjCIz0k9s_mGJ0m6iJexdJsibCL-S3CxwrlWgyBN4c,0.191666699,-0.38240749,1,0,0,4.095205,scale,,,,,,0.174513954,0.141421356,0.349027907,0.282842712,stimuli/lakes/204042_left.png,stimuli/lakes/204042_right.png,,,,0,14,14,42,1,,,,,
,,,,,,,$participant_id,2020-07-09_13h46.14.480,fisher_task,2020.1.3,Win32,60,IwAR0ukC7OKkr6FcaJuLjCIz0k9s_mGJ0m6iJexdJsibCL-S3CxwrlWgyBN4c,-0.204629609,-0.407407491,1,0,0,2.913825,scale,,,,,,0.326485712,0.264575131,0.21373507,0.173205081,stimuli/lakes/706077_left.png,stimuli/lakes/706077_right.png,,,,0,15,15,77,1,,,,,
,,,,,,,$participant_id,2020-07-09_13h46.14.480,fisher_task,2020.1.3,Win32,60,IwAR0ukC7OKkr6FcaJuLjCIz0k9s_mGJ0m6iJexdJsibCL-S3CxwrlWgyBN4c,-0.165740719,-0.312037061,1,0,0,3.929045,scale,,,,,,0.275930788,0.223606798,0.275930788,0.223606798,stimuli/lakes/507093_left.png,stimuli/lakes/507093_right.png,,,,0,16,16,93,1,,,,,
,,,,,,,$participant_id,2020-07-09_13h46.14.480,fisher_task,2020.1.3,Win32,60,IwAR0ukC7OKkr6FcaJuLjCIz0k9s_mGJ0m6iJexdJsibCL-S3CxwrlWgyBN4c,0.005555582,-0.210185206,1,0,0,4.07968,scale,,,,,,0.302267034,0.244948974,0.2468,0.2,stimuli/lakes/603028_left.png,stimuli/lakes/603028_right.png,,,,0,17,17,28,1,,,,,
,,,,,,,$participant_id,2020-07-09_13h46.14.480,fisher_task,2020.1.3,Win32,60,IwAR0ukC7OKkr6FcaJuLjCIz0k9s_mGJ0m6iJexdJsibCL-S3CxwrlWgyBN4c,-0.001851825,-0.206481503,1,0,0,2.797205,scale,,,,,,0.302267034,0.244948974,0.2468,0.2,stimuli/lakes/604046_left.png,stimuli/lakes/604046_right.png,,,,0,18,18,46,1,,,,,
,,,,,,,$participant_id,2020-07-09_13h46.14.480,fisher_task,2020.1.3,Win32,60,IwAR0ukC7OKkr6FcaJuLjCIz0k9s_mGJ0m6iJexdJsibCL-S3CxwrlWgyBN4c,0.111111141,-0.256481504,1,0,0,3.83055,scale,,,,,,0.302267034,0.244948974,0.2468,0.2,stimuli/lakes/603037_left.png,stimuli/lakes/603037_right.png,,,,0,19,19,37,1,,,,,
,,,,,,,$participant_id,2020-07-09_13h46.14.480,fisher_task,2020.1.3,Win32,60,IwAR0ukC7OKkr6FcaJuLjCIz0k9s_mGJ0m6iJexdJsibCL-S3CxwrlWgyBN4c,-0.174999979,-0.325000025,1,0,0,8.4426,scale,,,,,,0.2468,0.2,0.302267034,0.244948974,stimuli/lakes/4090123_left.png,stimuli/lakes/4090123_right.png,,,,0,20,20,123,1,,,,,
,,,,,,,$participant_id,2020-07-09_13h46.14.480,fisher_task,2020.1.3,Win32,60,IwAR0ukC7OKkr6FcaJuLjCIz0k9s_mGJ0m6iJexdJsibCL-S3CxwrlWgyBN4c,-0.187962942,-0.367592618,1,0,0,6.927235,scale,,,,,,0.3702,0.3,0.1234,0.1,stimuli/lakes/903040_left.png,stimuli/lakes/903040_right.png,,,,0,21,21,40,1,,,,,
,,,,,,,$participant_id,2020-07-09_13h46.14.480,fisher_task,2020.1.3,Win32,60,IwAR0ukC7OKkr6FcaJuLjCIz0k9s_mGJ0m6iJexdJsibCL-S3CxwrlWgyBN4c,-0.005555529,-0.212963041,1,0,0,3.26352,scale,,,,,,0.326485712,0.264575131,0.21373507,0.173205081,stimuli/lakes/704056_left.png,stimuli/lakes/704056_right.png,,,space,0,22,22,56,1,4.116025,,,,
,,,,,,,$participant_id,2020-07-09_13h46.14.480,fisher_task,2020.1.3,Win32,60,IwAR0ukC7OKkr6FcaJuLjCIz0k9s_mGJ0m6iJexdJsibCL-S3CxwrlWgyBN4c,-0.100925846,-0.24814817,1,0,0,4.27927,scale,,,,,,0.349027907,0.282842712,0.174513954,0.141421356,stimuli/lakes/804057_left.png,stimuli/lakes/804057_right.png,,,,0,23,23,57,1,,,,,
,,,,,,,$participant_id,2020-07-09_13h46.14.480,fisher_task,2020.1.3,Win32,60,IwAR0ukC7OKkr6FcaJuLjCIz0k9s_mGJ0m6iJexdJsibCL-S3CxwrlWgyBN4c,-0.192592572,-0.37870373,1,0,0,1.781295,scale,,,,,,0.3702,0.3,0.1234,0.1,stimuli/lakes/906088_left.png,stimuli/lakes/906088_right.png,,,,0,24,24,88,1,,,,,
,,,,,,,$participant_id,2020-07-09_13h46.14.480,fisher_task,2020.1.3,Win32,60,IwAR0ukC7OKkr6FcaJuLjCIz0k9s_mGJ0m6iJexdJsibCL-S3CxwrlWgyBN4c,0.00370373,-0.216666688,1,0,0,2.79743,scale,,,,,,0.21373507,0.173205081,0.326485712,0.264575131,stimuli/lakes/307091_left.png,stimuli/lakes/307091_right.png,,,,0,25,25,91,1,,,,,
,,,,,,,$participant_id,2020-07-09_13h46.14.480,fisher_task,2020.1.3,Win32,60,IwAR0ukC7OKkr6FcaJuLjCIz0k9s_mGJ0m6iJexdJsibCL-S3CxwrlWgyBN4c,0.188888921,-0.379629712,1,0,0,4.629095,scale,,,,,,0.302267034,0.244948974,0.2468,0.2,stimuli/lakes/60106_left.png,stimuli/lakes/60106_right.png,,,,0,26,26,6,1,,,,,
,,,,,,,$participant_id,2020-07-09_13h46.14.480,fisher_task,2020.1.3,Win32,60,IwAR0ukC7OKkr6FcaJuLjCIz0k9s_mGJ0m6iJexdJsibCL-S3CxwrlWgyBN4c,-0.191666646,-0.385185268,1,0,0,3.48002,scale,,,,,,0.2468,0.2,0.302267034,0.244948974,stimuli/lakes/4090124_left.png,stimuli/lakes/4090124_right.png,,,,0,27,27,124,1,,,,,
,,,,,,,$participant_id,2020-07-09_13h46.14.480,fisher_task,2020.1.3,Win32,60,IwAR0ukC7OKkr6FcaJuLjCIz0k9s_mGJ0m6iJexdJsibCL-S3CxwrlWgyBN4c,-0.199999979,-0.425925954,1,0,0,1.815175,scale,,,,,,0.3702,0.3,0.1234,0.1,stimuli/lakes/9070106_left.png,stimuli/lakes/9070106_right.png,,,,0,28,28,106,1,,,,,
,,,,,,,$participant_id,2020-07-09_13h46.14.480,fisher_task,2020.1.3,Win32,60,IwAR0ukC7OKkr6FcaJuLjCIz0k9s_mGJ0m6iJexdJsibCL-S3CxwrlWgyBN4c,0.060185213,-0.224074152,1,0,0,6.26066,scale,,,,,,0.21373507,0.173205081,0.326485712,0.264575131,stimuli/lakes/306082_left.png,stimuli/lakes/306082_right.png,,,,0,29,29,82,1,,,,,
,,,,,,,$participant_id,2020-07-09_13h46.14.480,fisher_task,2020.1.3,Win32,60,IwAR0ukC7OKkr6FcaJuLjCIz0k9s_mGJ0m6iJexdJsibCL-S3CxwrlWgyBN4c,0.191666699,-0.355555581,1,0,0,3.42977,scale,,,,,,0.302267034,0.244948974,0.2468,0.2,stimuli/lakes/602017_left.png,stimuli/lakes/602017_right.png,,,,0,30,30,17,1,,,,,
,,,,,,,$participant_id,2020-07-09_13h46.14.480,fisher_task,2020.1.3,Win32,60,IwAR0ukC7OKkr6FcaJuLjCIz0k9s_mGJ0m6iJexdJsibCL-S3CxwrlWgyBN4c,0.192592625,-0.392592619,1,0,0,5.47816,scale,,,,,,0.1234,0.1,0.3702,0.3,stimuli/lakes/104041_left.png,stimuli/lakes/104041_right.png,,,,0,31,31,41,1,,,,,
,,,,,,,$participant_id,2020-07-09_13h46.14.480,fisher_task,2020.1.3,Win32,60,IwAR0ukC7OKkr6FcaJuLjCIz0k9s_mGJ0m6iJexdJsibCL-S3CxwrlWgyBN4c,0.185185217,-0.400925953,1,0,0,2.38104,scale,,,,,,0.1234,0.1,0.3702,0.3,stimuli/lakes/103032_left.png,stimuli/lakes/103032_right.png,,,,0,32,32,32,1,,,,,
,,,,,,,$participant_id,2020-07-09_13h46.14.480,fisher_task,2020.1.3,Win32,60,IwAR0ukC7OKkr6FcaJuLjCIz0k9s_mGJ0m6iJexdJsibCL-S3CxwrlWgyBN4c,0.178703736,-0.337963044,1,0,0,2.73015,scale,,,,,,0.1234,0.1,0.3702,0.3,stimuli/lakes/106080_left.png,stimuli/lakes/106080_right.png,,,,0,33,33,80,1,,,,,
,,,,,,,$participant_id,2020-07-09_13h46.14.480,fisher_task,2020.1.3,Win32,60,IwAR0ukC7OKkr6FcaJuLjCIz0k9s_mGJ0m6iJexdJsibCL-S3CxwrlWgyBN4c,-0.19074072,-0.37870373,1,0,0,2.06508,scale,,,,,,0.349027907,0.282842712,0.174513954,0.141421356,stimuli/lakes/806078_left.png,stimuli/lakes/806078_right.png,,,,0,34,34,78,1,,,,,
,,,,,,,$participant_id,2020-07-09_13h46.14.480,fisher_task,2020.1.3,Win32,60,IwAR0ukC7OKkr6FcaJuLjCIz0k9s_mGJ0m6iJexdJsibCL-S3CxwrlWgyBN4c,0.198148181,-0.399074157,1,0,0,2.19769,scale,,,,,,0.1234,0.1,0.3702,0.3,stimuli/lakes/104050_left.png,stimuli/lakes/104050_right.png,,,,0,35,35,50,1,,,,,
,,,,,,,$participant_id,2020-07-09_13h46.14.480,fisher_task,2020.1.3,Win32,60,IwAR0ukC7OKkr6FcaJuLjCIz0k9s_mGJ0m6iJexdJsibCL-S3CxwrlWgyBN4c,0.139814845,-0.26666669,1,0,0,2.497485,scale,,,,,,0.21373507,0.173205081,0.326485712,0.264575131,stimuli/lakes/304043_left.png,stimuli/lakes/304043_right.png,,,,0,36,36,43,1,,,,,
,,,,,,,$participant_id,2020-07-09_13h46.14.480,fisher_task,2020.1.3,Win32,60,IwAR0ukC7OKkr6FcaJuLjCIz0k9s_mGJ0m6iJexdJsibCL-S3CxwrlWgyBN4c,0.121296326,-0.257407486,1,0,0,8.276625,scale,,,,,,0.302267034,0.244948974,0.2468,0.2,stimuli/lakes/602018_left.png,stimuli/lakes/602018_right.png,,,,0,37,37,18,1,,,,,
,,,,,,,$participant_id,2020-07-09_13h46.14.480,fisher_task,2020.1.3,Win32,60,IwAR0ukC7OKkr6FcaJuLjCIz0k9s_mGJ0m6iJexdJsibCL-S3CxwrlWgyBN4c,-0.196296276,-0.431481509,1,0,0,2.497515,scale,,,,,,0.326485712,0.264575131,0.21373507,0.173205081,stimuli/lakes/7090128_left.png,stimuli/lakes/7090128_right.png,,,,0,38,38,128,1,,,,,
,,,,,,,$participant_id,2020-07-09_13h46.14.480,fisher_task,2020.1.3,Win32,60,IwAR0ukC7OKkr6FcaJuLjCIz0k9s_mGJ0m6iJexdJsibCL-S3CxwrlWgyBN4c,0.178703736,-0.33055558,1,0,0,9.72496,scale,,,,,,0.326485712,0.264575131,0.21373507,0.173205081,stimuli/lakes/702019_left.png,stimuli/lakes/702019_right.png,,,,0,39,39,19,1,,,,,
,,,,,,,$participant_id,2020-07-09_13h46.14.480,fisher_task,2020.1.3,Win32,60,IwAR0ukC7OKkr6FcaJuLjCIz0k9s_mGJ0m6iJexdJsibCL-S3CxwrlWgyBN4c,-0.193518498,-0.379629712,1,0,0,2.44773,scale,,,,,,0.275930788,0.223606798,0.275930788,0.223606798,stimuli/lakes/506084_left.png,stimuli/lakes/506084_right.png,,,,0,40,40,84,1,,,,,
,,,,,,,$participant_id,2020-07-09_13h46.14.480,fisher_task,2020.1.3,Win32,60,IwAR0ukC7OKkr6FcaJuLjCIz0k9s_mGJ0m6iJexdJsibCL-S3CxwrlWgyBN4c,0.005555582,-0.215740819,1,0,0,5.39544,scale,,,,,,0.326485712,0.264575131,0.21373507,0.173205081,stimuli/lakes/705067_left.png,stimuli/lakes/705067_right.png,,,,0,41,41,67,1,,,,,
,,,,,,,$participant_id,2020-07-09_13h46.14.480,fisher_task,2020.1.3,Win32,60,IwAR0ukC7OKkr6FcaJuLjCIz0k9s_mGJ0m6iJexdJsibCL-S3CxwrlWgyBN4c,0.060185213,-0.214814836,1,0,0,3.180695,scale,,,,,,0.326485712,0.264575131,0.21373507,0.173205081,stimuli/lakes/703038_left.png,stimuli/lakes/703038_right.png,,,,0,42,42,38,1,,,,,
,,,,,,,$participant_id,2020-07-09_13h46.14.480,fisher_task,2020.1.3,Win32,60,IwAR0ukC7OKkr6FcaJuLjCIz0k9s_mGJ0m6iJexdJsibCL-S3CxwrlWgyBN4c,0.070370399,-0.233333355,1,0,0,3.231075,scale,,,,,,0.349027907,0.282842712,0.174513954,0.141421356,stimuli/lakes/802021_left.png,stimuli/lakes/802021_right.png,,,,0,43,43,21,1,,,,,
,,,,,,,$participant_id,2020-07-09_13h46.14.480,fisher_task,2020.1.3,Win32,60,IwAR0ukC7OKkr6FcaJuLjCIz0k9s_mGJ0m6iJexdJsibCL-S3CxwrlWgyBN4c,0.158333365,-0.284259283,1,0,0,1.51511,scale,,,,,,0.275930788,0.223606798,0.275930788,0.223606798,stimuli/lakes/503036_left.png,stimuli/lakes/503036_right.png,,,space,0,44,44,36,1,2.88297,,,,
,,,,,,,$participant_id,2020-07-09_13h46.14.480,fisher_task,2020.1.3,Win32,60,IwAR0ukC7OKkr6FcaJuLjCIz0k9s_mGJ0m6iJexdJsibCL-S3CxwrlWgyBN4c,0.17314818,-0.314814839,1,0,0,2.68085,scale,,,,,,0.275930788,0.223606798,0.275930788,0.223606798,stimuli/lakes/504054_left.png,stimuli/lakes/504054_right.png,,,,0,45,45,54,1,,,,,
,,,,,,,$participant_id,2020-07-09_13h46.14.480,fisher_task,2020.1.3,Win32,60,IwAR0ukC7OKkr6FcaJuLjCIz0k9s_mGJ0m6iJexdJsibCL-S3CxwrlWgyBN4c,0.187962995,-0.362963045,1,0,0,1.715245,scale,,,,,,0.174513954,0.141421356,0.349027907,0.282842712,stimuli/lakes/204051_left.png,stimuli/lakes/204051_right.png,,,,0,46,46,51,1,,,,,
,,,,,,,$participant_id,2020-07-09_13h46.14.480,fisher_task,2020.1.3,Win32,60,IwAR0ukC7OKkr6FcaJuLjCIz0k9s_mGJ0m6iJexdJsibCL-S3CxwrlWgyBN4c,0.187962995,-0.362963045,1,0,0,0.94969,scale,,,,,,0.2468,0.2,0.302267034,0.244948974,stimuli/lakes/405064_left.png,stimuli/lakes/405064_right.png,,,,0,47,47,64,1,,,,,
,,,,,,,$participant_id,2020-07-09_13h46.14.480,fisher_task,2020.1.3,Win32,60,IwAR0ukC7OKkr6FcaJuLjCIz0k9s_mGJ0m6iJexdJsibCL-S3CxwrlWgyBN4c,0.196296329,-0.387037063,1,0,0,2.980475,scale,,,,,,0.275930788,0.223606798,0.275930788,0.223606798,stimuli/lakes/50104_left.png,stimuli/lakes/50104_right.png,,,,0,48,48,4,1,,,,,
,,,,,,,$participant_id,2020-07-09_13h46.14.480,fisher_task,2020.1.3,Win32,60,IwAR0ukC7OKkr6FcaJuLjCIz0k9s_mGJ0m6iJexdJsibCL-S3CxwrlWgyBN4c,-0.19074072,-0.342592618,1,0,0,2.231115,scale,,,,,,0.275930788,0.223606798,0.275930788,0.223606798,stimuli/lakes/5070102_left.png,stimuli/lakes/5070102_right.png,,,,0,49,49,102,1,,,,,
,,,,,,,$participant_id,2020-07-09_13h46.14.480,fisher_task,2020.1.3,Win32,60,IwAR0ukC7OKkr6FcaJuLjCIz0k9s_mGJ0m6iJexdJsibCL-S3CxwrlWgyBN4c,-0.093518495,-0.244444467,1,0,0,2.230945,scale,,,,,,0.174513954,0.141421356,0.349027907,0.282842712,stimuli/lakes/207099_left.png,stimuli/lakes/207099_right.png,,,,0,50,50,99,1,,,,,
,,,,,,,$participant_id,2020-07-09_13h46.14.480,fisher_task,2020.1.3,Win32,60,IwAR0ukC7OKkr6FcaJuLjCIz0k9s_mGJ0m6iJexdJsibCL-S3CxwrlWgyBN4c,-0.197222202,-0.426851936,1,0,0,1.498365,scale,,,,,,0.349027907,0.282842712,0.174513954,0.141421356,stimuli/lakes/8080118_left.png,stimuli/lakes/8080118_right.png,,,,0,51,51,118,1,,,,,
,,,,,,,$participant_id,2020-07-09_13h46.14.480,fisher_task,2020.1.3,Win32,60,IwAR0ukC7OKkr6FcaJuLjCIz0k9s_mGJ0m6iJexdJsibCL-S3CxwrlWgyBN4c,0.006481508,-0.211111132,1,0,0,3.19669,scale,,,,,,0.21373507,0.173205081,0.326485712,0.264575131,stimuli/lakes/305061_left.png,stimuli/lakes/305061_right.png,,,,0,52,52,61,1,,,,,
,,,,,,,$participant_id,2020-07-09_13h46.14.480,fisher_task,2020.1.3,Win32,60,IwAR0ukC7OKkr6FcaJuLjCIz0k9s_mGJ0m6iJexdJsibCL-S3CxwrlWgyBN4c,-0.194444424,-0.371296379,1,0,0,1.74814,scale,,,,,,0.3702,0.3,0.1234,0.1,stimuli/lakes/905070_left.png,stimuli/lakes/905070_right.png,,,,0,53,53,70,1,,,,,
,,,,,,,$participant_id,2020-07-09_13h46.14.480,fisher_task,2020.1.3,Win32,60,IwAR0ukC7OKkr6FcaJuLjCIz0k9s_mGJ0m6iJexdJsibCL-S3CxwrlWgyBN4c,-0.199074054,-0.415740825,1,0,0,3.412885,scale,,,,,,0.302267034,0.244948974,0.2468,0.2,stimuli/lakes/6070103_left.png,stimuli/lakes/6070103_right.png,,,,0,54,54,103,1,,,,,
,,,,,,,$participant_id,2020-07-09_13h46.14.480,fisher_task,2020.1.3,Win32,60,IwAR0ukC7OKkr6FcaJuLjCIz0k9s_mGJ0m6iJexdJsibCL-S3CxwrlWgyBN4c,-0.199999979,-0.431481509,1,0,0,1.498015,scale,,,,,,0.349027907,0.282842712,0.174513954,0.141421356,stimuli/lakes/807096_left.png,stimuli/lakes/807096_right.png,,,,0,55,55,96,1,,,,,
,,,,,,,$participant_id,2020-07-09_13h46.14.480,fisher_task,2020.1.3,Win32,60,IwAR0ukC7OKkr6FcaJuLjCIz0k9s_mGJ0m6iJexdJsibCL-S3CxwrlWgyBN4c,-0.115740718,-0.250000022,1,0,0,5.71147,scale,,,,,,0.1234,0.1,0.3702,0.3,stimuli/lakes/1090119_left.png,stimuli/lakes/1090119_right.png,,,,0,56,56,119,1,,,,,
,,,,,,,$participant_id,2020-07-09_13h46.14.480,fisher_task,2020.1.3,Win32,60,IwAR0ukC7OKkr6FcaJuLjCIz0k9s_mGJ0m6iJexdJsibCL-S3CxwrlWgyBN4c,-0.007407381,-0.211111132,1,0,0,2.09824,scale,,,,,,0.302267034,0.244948974,0.2468,0.2,stimuli/lakes/605065_left.png,stimuli/lakes/605065_right.png,,,,0,57,57,65,1,,,,,
,,,,,,,$participant_id,2020-07-09_13h46.14.480,fisher_task,2020.1.3,Win32,60,IwAR0ukC7OKkr6FcaJuLjCIz0k9s_mGJ0m6iJexdJsibCL-S3CxwrlWgyBN4c,-0.19537035,-0.398148175,1,0,0,5.911265,scale,,,,,,0.326485712,0.264575131,0.21373507,0.173205081,stimuli/lakes/7090129_left.png,stimuli/lakes/7090129_right.png,,,,0,58,58,129,1,,,,,
,,,,,,,$participant_id,2020-07-09_13h46.14.480,fisher_task,2020.1.3,Win32,60,IwAR0ukC7OKkr6FcaJuLjCIz0k9s_mGJ0m6iJexdJsibCL-S3CxwrlWgyBN4c,-0.171296275,-0.320370395,1,0,0,6.14401,scale,,,,,,0.302267034,0.244948974,0.2468,0.2,stimuli/lakes/6090126_left.png,stimuli/lakes/6090126_right.png,,,,0,59,59,126,1,,,,,
,,,,,,,$participant_id,2020-07-09_13h46.14.480,fisher_task,2020.1.3,Win32,60,IwAR0ukC7OKkr6FcaJuLjCIz0k9s_mGJ0m6iJexdJsibCL-S3CxwrlWgyBN4c,-0.201851831,-0.402777805,1,0,0,1.38173,scale,,,,,,0.3702,0.3,0.1234,0.1,stimuli/lakes/906079_left.png,stimuli/lakes/906079_right.png,,,,0,60,60,79,1,,,,,
,,,,,,,$participant_id,2020-07-09_13h46.14.480,fisher_task,2020.1.3,Win32,60,IwAR0ukC7OKkr6FcaJuLjCIz0k9s_mGJ0m6iJexdJsibCL-S3CxwrlWgyBN4c,0.186111143,-0.351851934,1,0,0,4.679905,scale,,,,,,0.275930788,0.223606798,0.275930788,0.223606798,stimuli/lakes/502016_left.png,stimuli/lakes/502016_right.png,,,,0,61,61,16,1,,,,,
,,,,,,,$participant_id,2020-07-09_13h46.14.480,fisher_task,2020.1.3,Win32,60,IwAR0ukC7OKkr6FcaJuLjCIz0k9s_mGJ0m6iJexdJsibCL-S3CxwrlWgyBN4c,-0.096296273,-0.237037059,1,0,0,2.846755,scale,,,,,,0.349027907,0.282842712,0.174513954,0.141421356,stimuli/lakes/805069_left.png,stimuli/lakes/805069_right.png,,,,0,62,62,69,1,,,,,
,,,,,,,$participant_id,2020-07-09_13h46.14.480,fisher_task,2020.1.3,Win32,60,IwAR0ukC7OKkr6FcaJuLjCIz0k9s_mGJ0m6iJexdJsibCL-S3CxwrlWgyBN4c,-0.005555529,-0.212037058,1,0,0,3.39671,scale,,,,,,0.2468,0.2,0.302267034,0.244948974,stimuli/lakes/406074_left.png,stimuli/lakes/406074_right.png,,,,0,63,63,74,1,,,,,
,,,,,,,$participant_id,2020-07-09_13h46.14.480,fisher_task,2020.1.3,Win32,60,IwAR0ukC7OKkr6FcaJuLjCIz0k9s_mGJ0m6iJexdJsibCL-S3CxwrlWgyBN4c,-0.187962942,-0.373148174,1,0,0,1.84838,scale,,,,,,0.302267034,0.244948974,0.2468,0.2,stimuli/lakes/6090127_left.png,stimuli/lakes/6090127_right.png,,,,0,64,64,127,1,,,,,
,,,,,,,$participant_id,2020-07-09_13h46.14.480,fisher_task,2020.1.3,Win32,60,IwAR0ukC7OKkr6FcaJuLjCIz0k9s_mGJ0m6iJexdJsibCL-S3CxwrlWgyBN4c,-0.110185162,-0.243518597,1,0,0,4.42876,scale,,,,,,0.3702,0.3,0.1234,0.1,stimuli/lakes/904058_left.png,stimuli/lakes/904058_right.png,,,,0,65,65,58,1,,,,,
,,,,,,,$participant_id,2020-07-09_13h46.14.480,fisher_task,2020.1.3,Win32,60,IwAR0ukC7OKkr6FcaJuLjCIz0k9s_mGJ0m6iJexdJsibCL-S3CxwrlWgyBN4c,-0.158333312,-0.284259283,1,0,0,2.33108,scale,,,,,,0.174513954,0.141421356,0.349027907,0.282842712,stimuli/lakes/2090120_left.png,stimuli/lakes/2090120_right.png,,,space,0,66,66,120,1,2.349565,,,,
,,,,,,,$participant_id,2020-07-09_13h46.14.480,fisher_task,2020.1.3,Win32,60,IwAR0ukC7OKkr6FcaJuLjCIz0k9s_mGJ0m6iJexdJsibCL-S3CxwrlWgyBN4c,-0.174999979,-0.325925951,1,0,0,1.88159,scale,,,,,,0.326485712,0.264575131,0.21373507,0.173205081,stimuli/lakes/7070104_left.png,stimuli/lakes/7070104_right.png,,,,0,67,67,104,1,,,,,
,,,,,,,$participant_id,2020-07-09_13h46.14.480,fisher_task,2020.1.3,Win32,60,IwAR0ukC7OKkr6FcaJuLjCIz0k9s_mGJ0m6iJexdJsibCL-S3CxwrlWgyBN4c,0.103703733,-0.249074153,1,0,0,3.21289,scale,,,,,,0.1234,0.1,0.3702,0.3,stimuli/lakes/106071_left.png,stimuli/lakes/106071_right.png,,,,0,68,68,71,1,,,,,
,,,,,,,$participant_id,2020-07-09_13h46.14.480,fisher_task,2020.1.3,Win32,60,IwAR0ukC7OKkr6FcaJuLjCIz0k9s_mGJ0m6iJexdJsibCL-S3CxwrlWgyBN4c,0.148148179,-0.284259283,1,0,0,4.51257,scale,,,,,,0.326485712,0.264575131,0.21373507,0.173205081,stimuli/lakes/703029_left.png,stimuli/lakes/703029_right.png,,,,0,69,69,29,1,,,,,
,,,,,,,$participant_id,2020-07-09_13h46.14.480,fisher_task,2020.1.3,Win32,60,IwAR0ukC7OKkr6FcaJuLjCIz0k9s_mGJ0m6iJexdJsibCL-S3CxwrlWgyBN4c,-0.144444422,-0.278703727,1,0,0,1.531175,scale,,,,,,0.302267034,0.244948974,0.2468,0.2,stimuli/lakes/606076_left.png,stimuli/lakes/606076_right.png,,,,0,70,70,76,1,,,,,
,,,,,,,$participant_id,2020-07-09_13h46.14.480,fisher_task,2020.1.3,Win32,60,IwAR0ukC7OKkr6FcaJuLjCIz0k9s_mGJ0m6iJexdJsibCL-S3CxwrlWgyBN4c,-0.079629606,-0.228703725,1,0,0,3.963595,scale,,,,,,0.174513954,0.141421356,0.349027907,0.282842712,stimuli/lakes/207090_left.png,stimuli/lakes/207090_right.png,,,,0,71,71,90,1,,,,,
,,,,,,,$participant_id,2020-07-09_13h46.14.480,fisher_task,2020.1.3,Win32,60,IwAR0ukC7OKkr6FcaJuLjCIz0k9s_mGJ0m6iJexdJsibCL-S3CxwrlWgyBN4c,0.015740824,-0.207407428,1,0,0,2.630975,scale,,,,,,0.2468,0.2,0.302267034,0.244948974,stimuli/lakes/407092_left.png,stimuli/lakes/407092_right.png,,,,0,72,72,92,1,,,,,
,,,,,,,$participant_id,2020-07-09_13h46.14.480,fisher_task,2020.1.3,Win32,60,IwAR0ukC7OKkr6FcaJuLjCIz0k9s_mGJ0m6iJexdJsibCL-S3CxwrlWgyBN4c,-0.168518497,-0.321296377,1,0,0,4.54628,scale,,,,,,0.21373507,0.173205081,0.326485712,0.264575131,stimuli/lakes/3080110_left.png,stimuli/lakes/3080110_right.png,,,,0,73,73,110,1,,,,,
,,,,,,,$participant_id,2020-07-09_13h46.14.480,fisher_task,2020.1.3,Win32,60,IwAR0ukC7OKkr6FcaJuLjCIz0k9s_mGJ0m6iJexdJsibCL-S3CxwrlWgyBN4c,-0.096296273,-0.233333355,1,0,0,2.996925,scale,,,,,,0.1234,0.1,0.3702,0.3,stimuli/lakes/107089_left.png,stimuli/lakes/107089_right.png,,,,0,74,74,89,1,,,,,
,,,,,,,$participant_id,2020-07-09_13h46.14.480,fisher_task,2020.1.3,Win32,60,IwAR0ukC7OKkr6FcaJuLjCIz0k9s_mGJ0m6iJexdJsibCL-S3CxwrlWgyBN4c,-0.194444424,-0.40833336,1,0,0,3.96267,scale,,,,,,0.326485712,0.264575131,0.21373507,0.173205081,stimuli/lakes/707095_left.png,stimuli/lakes/707095_right.png,,,,0,75,75,95,1,,,,,
,,,,,,,$participant_id,2020-07-09_13h46.14.480,fisher_task,2020.1.3,Win32,60,IwAR0ukC7OKkr6FcaJuLjCIz0k9s_mGJ0m6iJexdJsibCL-S3CxwrlWgyBN4c,0.083333362,-0.228703725,1,0,0,3.8801,scale,,,,,,0.1234,0.1,0.3702,0.3,stimuli/lakes/107098_left.png,stimuli/lakes/107098_right.png,,,,0,76,76,98,1,,,,,
,,,,,,,$participant_id,2020-07-09_13h46.14.480,fisher_task,2020.1.3,Win32,60,IwAR0ukC7OKkr6FcaJuLjCIz0k9s_mGJ0m6iJexdJsibCL-S3CxwrlWgyBN4c,-0.189814794,-0.380555582,1,0,0,7.209265,scale,,,,,,0.349027907,0.282842712,0.174513954,0.141421356,stimuli/lakes/8070105_left.png,stimuli/lakes/8070105_right.png,,,,0,77,77,105,1,,,,,
,,,,,,,$participant_id,2020-07-09_13h46.14.480,fisher_task,2020.1.3,Win32,60,IwAR0ukC7OKkr6FcaJuLjCIz0k9s_mGJ0m6iJexdJsibCL-S3CxwrlWgyBN4c,0.002777804,-0.214814836,1,0,0,2.64698,scale,,,,,,0.3702,0.3,0.1234,0.1,stimuli/lakes/902022_left.png,stimuli/lakes/902022_right.png,,,,0,78,78,22,1,,,,,
,,,,,,,$participant_id,2020-07-09_13h46.14.480,fisher_task,2020.1.3,Win32,60,IwAR0ukC7OKkr6FcaJuLjCIz0k9s_mGJ0m6iJexdJsibCL-S3CxwrlWgyBN4c,-0.19074072,-0.371296379,1,0,0,5.312845,scale,,,,,,0.349027907,0.282842712,0.174513954,0.141421356,stimuli/lakes/806087_left.png,stimuli/lakes/806087_right.png,,,,0,79,79,87,1,,,,,
,,,,,,,$participant_id,2020-07-09_13h46.14.480,fisher_task,2020.1.3,Win32,60,IwAR0ukC7OKkr6FcaJuLjCIz0k9s_mGJ0m6iJexdJsibCL-S3CxwrlWgyBN4c,0.162962994,-0.320370395,1,0,0,6.278015,scale,,,,,,0.326485712,0.264575131,0.21373507,0.173205081,stimuli/lakes/70107_left.png,stimuli/lakes/70107_right.png,,,,0,80,80,7,1,,,,,
,,,,,,,$participant_id,2020-07-09_13h46.14.480,fisher_task,2020.1.3,Win32,60,IwAR0ukC7OKkr6FcaJuLjCIz0k9s_mGJ0m6iJexdJsibCL-S3CxwrlWgyBN4c,0.199074106,-0.42222225,1,0,0,3.763005,scale,,,,,,0.2468,0.2,0.302267034,0.244948974,stimuli/lakes/40102_left.png,stimuli/lakes/40102_right.png,,,,0,81,81,2,1,,,,,
,,,,,,,$participant_id,2020-07-09_13h46.14.480,fisher_task,2020.1.3,Win32,60,IwAR0ukC7OKkr6FcaJuLjCIz0k9s_mGJ0m6iJexdJsibCL-S3CxwrlWgyBN4c,0.198148181,-0.406481508,1,0,0,2.914065,scale,,,,,,0.21373507,0.173205081,0.326485712,0.264575131,stimuli/lakes/30100_left.png,stimuli/lakes/30100_right.png,,,,0,82,82,0,1,,,,,
,,,,,,,$participant_id,2020-07-09_13h46.14.480,fisher_task,2020.1.3,Win32,60,IwAR0ukC7OKkr6FcaJuLjCIz0k9s_mGJ0m6iJexdJsibCL-S3CxwrlWgyBN4c,0.038888917,-0.211111132,1,0,0,3.19725,scale,,,,,,0.21373507,0.173205081,0.326485712,0.264575131,stimuli/lakes/306073_left.png,stimuli/lakes/306073_right.png,,,,0,83,83,73,1,,,,,
,,,,,,,$participant_id,2020-07-09_13h46.14.480,fisher_task,2020.1.3,Win32,60,IwAR0ukC7OKkr6FcaJuLjCIz0k9s_mGJ0m6iJexdJsibCL-S3CxwrlWgyBN4c,-0.187037016,-0.361111137,1,0,0,3.063455,scale,,,,,,0.326485712,0.264575131,0.21373507,0.173205081,stimuli/lakes/7080117_left.png,stimuli/lakes/7080117_right.png,,,,0,84,84,117,1,,,,,
,,,,,,,$participant_id,2020-07-09_13h46.14.480,fisher_task,2020.1.3,Win32,60,IwAR0ukC7OKkr6FcaJuLjCIz0k9s_mGJ0m6iJexdJsibCL-S3CxwrlWgyBN4c,0.141666697,-0.276851932,1,0,0,3.396805,scale,,,,,,0.2468,0.2,0.302267034,0.244948974,stimuli/lakes/404044_left.png,stimuli/lakes/404044_right.png,,,,0,85,85,44,1,,,,,
,,,,,,,$participant_id,2020-07-09_13h46.14.480,fisher_task,2020.1.3,Win32,60,IwAR0ukC7OKkr6FcaJuLjCIz0k9s_mGJ0m6iJexdJsibCL-S3CxwrlWgyBN4c,-0.084259179,-0.229629708,1,0,0,4.07982,scale,,,,,,0.21373507,0.173205081,0.326485712,0.264575131,stimuli/lakes/3080109_left.png,stimuli/lakes/3080109_right.png,,,,0,86,86,109,1,,,,,
,,,,,,,$participant_id,2020-07-09_13h46.14.480,fisher_task,2020.1.3,Win32,60,IwAR0ukC7OKkr6FcaJuLjCIz0k9s_mGJ0m6iJexdJsibCL-S3CxwrlWgyBN4c,0.072222251,-0.225000022,1,0,0,2.480695,scale,,,,,,0.174513954,0.141421356,0.349027907,0.282842712,stimuli/lakes/206081_left.png,stimuli/lakes/206081_right.png,,,,0,87,87,81,1,,,,,
,,,,,,,$participant_id,2020-07-09_13h46.14.480,fisher_task,2020.1.3,Win32,60,IwAR0ukC7OKkr6FcaJuLjCIz0k9s_mGJ0m6iJexdJsibCL-S3CxwrlWgyBN4c,-0.19537035,-0.406481508,1,0,0,2.896835,scale,,,,,,0.2468,0.2,0.302267034,0.244948974,stimuli/lakes/4080112_left.png,stimuli/lakes/4080112_right.png,,,space,0,88,88,112,1,7.792385,,,,
,,,,,,,$participant_id,2020-07-09_13h46.14.480,fisher_task,2020.1.3,Win32,60,IwAR0ukC7OKkr6FcaJuLjCIz0k9s_mGJ0m6iJexdJsibCL-S3CxwrlWgyBN4c,0.099074104,-0.239814837,1,0,0,2.164535,scale,,,,,,0.349027907,0.282842712,0.174513954,0.141421356,stimuli/lakes/803039_left.png,stimuli/lakes/803039_right.png,,,,0,89,89,39,1,,,,,
,,,,,,,$participant_id,2020-07-09_13h46.14.480,fisher_task,2020.1.3,Win32,60,IwAR0ukC7OKkr6FcaJuLjCIz0k9s_mGJ0m6iJexdJsibCL-S3CxwrlWgyBN4c,-0.187962942,-0.352777803,1,0,0,3.58064,scale,,,,,,0.21373507,0.173205081,0.326485712,0.264575131,stimuli/lakes/3090121_left.png,stimuli/lakes/3090121_right.png,,,,0,90,90,121,1,,,,,
,,,,,,,$participant_id,2020-07-09_13h46.14.480,fisher_task,2020.1.3,Win32,60,IwAR0ukC7OKkr6FcaJuLjCIz0k9s_mGJ0m6iJexdJsibCL-S3CxwrlWgyBN4c,-0.061111086,-0.225925948,1,0,0,2.914345,scale,,,,,,0.302267034,0.244948974,0.2468,0.2,stimuli/lakes/605066_left.png,stimuli/lakes/605066_right.png,,,,0,91,91,66,1,,,,,
,,,,,,,$participant_id,2020-07-09_13h46.14.480,fisher_task,2020.1.3,Win32,60,IwAR0ukC7OKkr6FcaJuLjCIz0k9s_mGJ0m6iJexdJsibCL-S3CxwrlWgyBN4c,-0.128703625,-0.26203706,1,0,0,1.464865,scale,,,,,,0.302267034,0.244948974,0.2468,0.2,stimuli/lakes/606085_left.png,stimuli/lakes/606085_right.png,,,,0,92,92,85,1,,,,,
,,,,,,,$participant_id,2020-07-09_13h46.14.480,fisher_task,2020.1.3,Win32,60,IwAR0ukC7OKkr6FcaJuLjCIz0k9s_mGJ0m6iJexdJsibCL-S3CxwrlWgyBN4c,-0.059259178,-0.220370392,1,0,0,2.597765,scale,,,,,,0.174513954,0.141421356,0.349027907,0.282842712,stimuli/lakes/206072_left.png,stimuli/lakes/206072_right.png,,,,0,93,93,72,1,,,,,
,,,,,,,$participant_id,2020-07-09_13h46.14.480,fisher_task,2020.1.3,Win32,60,IwAR0ukC7OKkr6FcaJuLjCIz0k9s_mGJ0m6iJexdJsibCL-S3CxwrlWgyBN4c,0.176851884,-0.329629711,1,0,0,2.29768,scale,,,,,,0.21373507,0.173205081,0.326485712,0.264575131,stimuli/lakes/303034_left.png,stimuli/lakes/303034_right.png,,,,0,94,94,34,1,,,,,
,,,,,,,$participant_id,2020-07-09_13h46.14.480,fisher_task,2020.1.3,Win32,60,IwAR0ukC7OKkr6FcaJuLjCIz0k9s_mGJ0m6iJexdJsibCL-S3CxwrlWgyBN4c,-0.007407381,-0.211111132,1,0,0,2.58087,scale,,,,,,0.349027907,0.282842712,0.174513954,0.141421356,stimuli/lakes/803030_left.png,stimuli/lakes/803030_right.png,,,,0,95,95,30,1,,,,,
,,,,,,,$participant_id,2020-07-09_13h46.14.480,fisher_task,2020.1.3,Win32,60,IwAR0ukC7OKkr6FcaJuLjCIz0k9s_mGJ0m6iJexdJsibCL-S3CxwrlWgyBN4c,0.165740772,-0.313888913,1,0,0,2.729945,scale,,,,,,0.2468,0.2,0.302267034,0.244948974,stimuli/lakes/402014_left.png,stimuli/lakes/402014_right.png,,,,0,96,96,14,1,,,,,
,,,,,,,$participant_id,2020-07-09_13h46.14.480,fisher_task,2020.1.3,Win32,60,IwAR0ukC7OKkr6FcaJuLjCIz0k9s_mGJ0m6iJexdJsibCL-S3CxwrlWgyBN4c,0.187037069,-0.358333359,1,0,0,1.997125,scale,,,,,,0.174513954,0.141421356,0.349027907,0.282842712,stimuli/lakes/203033_left.png,stimuli/lakes/203033_right.png,,,,0,97,97,33,1,,,,,
,,,,,,,$participant_id,2020-07-09_13h46.14.480,fisher_task,2020.1.3,Win32,60,IwAR0ukC7OKkr6FcaJuLjCIz0k9s_mGJ0m6iJexdJsibCL-S3CxwrlWgyBN4c,-0.160185163,-0.292592616,1,0,0,1.964375,scale,,,,,,0.21373507,0.173205081,0.326485712,0.264575131,stimuli/lakes/3070100_left.png,stimuli/lakes/3070100_right.png,,,,0,98,98,100,1,,,,,
,,,,,,,$participant_id,2020-07-09_13h46.14.480,fisher_task,2020.1.3,Win32,60,IwAR0ukC7OKkr6FcaJuLjCIz0k9s_mGJ0m6iJexdJsibCL-S3CxwrlWgyBN4c,-0.200925905,-0.412963047,1,0,0,1.514655,scale,,,,,,0.3702,0.3,0.1234,0.1,stimuli/lakes/907097_left.png,stimuli/lakes/907097_right.png,,,,0,99,99,97,1,,,,,
,,,,,,,$participant_id,2020-07-09_13h46.14.480,fisher_task,2020.1.3,Win32,60,IwAR0ukC7OKkr6FcaJuLjCIz0k9s_mGJ0m6iJexdJsibCL-S3CxwrlWgyBN4c,0.140740771,-0.272222245,1,0,0,4.52933,scale,,,,,,0.302267034,0.244948974,0.2468,0.2,stimuli/lakes/604055_left.png,stimuli/lakes/604055_right.png,,,,0,100,100,55,1,,,,,
,,,,,,,$participant_id,2020-07-09_13h46.14.480,fisher_task,2020.1.3,Win32,60,IwAR0ukC7OKkr6FcaJuLjCIz0k9s_mGJ0m6iJexdJsibCL-S3CxwrlWgyBN4c,0.110185215,-0.257407486,1,0,0,9.358115,scale,,,,,,0.2468,0.2,0.302267034,0.244948974,stimuli/lakes/406083_left.png,stimuli/lakes/406083_right.png,,,,0,101,101,83,1,,,,,
,,,,,,,$participant_id,2020-07-09_13h46.14.480,fisher_task,2020.1.3,Win32,60,IwAR0ukC7OKkr6FcaJuLjCIz0k9s_mGJ0m6iJexdJsibCL-S3CxwrlWgyBN4c,0.13888892,-0.274074154,1,0,0,6.410135,scale,,,,,,0.326485712,0.264575131,0.21373507,0.173205081,stimuli/lakes/702020_left.png,stimuli/lakes/702020_right.png,,,,0,102,102,20,1,,,,,
,,,,,,,$participant_id,2020-07-09_13h46.14.480,fisher_task,2020.1.3,Win32,60,IwAR0ukC7OKkr6FcaJuLjCIz0k9s_mGJ0m6iJexdJsibCL-S3CxwrlWgyBN4c,-0.09537029,-0.236111133,1,0,0,2.914015,scale,,,,,,0.349027907,0.282842712,0.174513954,0.141421356,stimuli/lakes/804048_left.png,stimuli/lakes/804048_right.png,,,,0,103,103,48,1,,,,,
,,,,,,,$participant_id,2020-07-09_13h46.14.480,fisher_task,2020.1.3,Win32,60,IwAR0ukC7OKkr6FcaJuLjCIz0k9s_mGJ0m6iJexdJsibCL-S3CxwrlWgyBN4c,0.195370403,-0.38240749,1,0,0,1.74852,scale,,,,,,0.1234,0.1,0.3702,0.3,stimuli/lakes/103023_left.png,stimuli/lakes/103023_right.png,,,,0,104,104,23,1,,,,,
,,,,,,,$participant_id,2020-07-09_13h46.14.480,fisher_task,2020.1.3,Win32,60,IwAR0ukC7OKkr6FcaJuLjCIz0k9s_mGJ0m6iJexdJsibCL-S3CxwrlWgyBN4c,0.169444476,-0.312963044,1,0,0,3.597055,scale,,,,,,0.2468,0.2,0.302267034,0.244948974,stimuli/lakes/402015_left.png,stimuli/lakes/402015_right.png,,,,0,105,105,15,1,,,,,
,,,,,,,$participant_id,2020-07-09_13h46.14.480,fisher_task,2020.1.3,Win32,60,IwAR0ukC7OKkr6FcaJuLjCIz0k9s_mGJ0m6iJexdJsibCL-S3CxwrlWgyBN4c,-0.196296276,-0.394444471,1,0,0,2.164155,scale,,,,,,0.326485712,0.264575131,0.21373507,0.173205081,stimuli/lakes/7080116_left.png,stimuli/lakes/7080116_right.png,,,,0,106,106,116,1,,,,,
,,,,,,,$participant_id,2020-07-09_13h46.14.480,fisher_task,2020.1.3,Win32,60,IwAR0ukC7OKkr6FcaJuLjCIz0k9s_mGJ0m6iJexdJsibCL-S3CxwrlWgyBN4c,0.001851935,-0.210185206,1,0,0,2.130675,scale,,,,,,0.2468,0.2,0.302267034,0.244948974,stimuli/lakes/405063_left.png,stimuli/lakes/405063_right.png,,,,0,107,107,63,1,,,,,
,,,,,,,$participant_id,2020-07-09_13h46.14.480,fisher_task,2020.1.3,Win32,60,IwAR0ukC7OKkr6FcaJuLjCIz0k9s_mGJ0m6iJexdJsibCL-S3CxwrlWgyBN4c,0.189814847,-0.375000026,1,0,0,8.509575,scale,,,,,,0.3702,0.3,0.1234,0.1,stimuli/lakes/901010_left.png,stimuli/lakes/901010_right.png,,,,0,108,108,10,1,,,,,
,,,,,,,$participant_id,2020-07-09_13h46.14.480,fisher_task,2020.1.3,Win32,60,IwAR0ukC7OKkr6FcaJuLjCIz0k9s_mGJ0m6iJexdJsibCL-S3CxwrlWgyBN4c,-0.168518497,-0.312037061,1,0,0,6.643835,scale,,,,,,0.174513954,0.141421356,0.349027907,0.282842712,stimuli/lakes/2080108_left.png,stimuli/lakes/2080108_right.png,,,,0,109,109,108,1,,,,,
,,,,,,,$participant_id,2020-07-09_13h46.14.480,fisher_task,2020.1.3,Win32,60,IwAR0ukC7OKkr6FcaJuLjCIz0k9s_mGJ0m6iJexdJsibCL-S3CxwrlWgyBN4c,0.176851884,-0.321296377,1,0,0,5.478735,scale,,,,,,0.302267034,0.244948974,0.2468,0.2,stimuli/lakes/60105_left.png,stimuli/lakes/60105_right.png,,,space,0,110,110,5,1,2.263185,,,,
,,,,,,,$participant_id,2020-07-09_13h46.14.480,fisher_task,2020.1.3,Win32,60,IwAR0ukC7OKkr6FcaJuLjCIz0k9s_mGJ0m6iJexdJsibCL-S3CxwrlWgyBN4c,-0.196296276,-0.385185268,1,0,0,3.71363,scale,,,,,,0.21373507,0.173205081,0.326485712,0.264575131,stimuli/lakes/3090122_left.png,stimuli/lakes/3090122_right.png,,,,0,111,111,122,1,,,,,
,,,,,,,$participant_id,2020-07-09_13h46.14.480,fisher_task,2020.1.3,Win32,60,IwAR0ukC7OKkr6FcaJuLjCIz0k9s_mGJ0m6iJexdJsibCL-S3CxwrlWgyBN4c,-0.177777757,-0.336111136,1,0,0,3.64607,scale,,,,,,0.302267034,0.244948974,0.2468,0.2,stimuli/lakes/607094_left.png,stimuli/lakes/607094_right.png,,,,0,112,112,94,1,,,,,
,,,,,,,$participant_id,2020-07-09_13h46.14.480,fisher_task,2020.1.3,Win32,60,IwAR0ukC7OKkr6FcaJuLjCIz0k9s_mGJ0m6iJexdJsibCL-S3CxwrlWgyBN4c,0.155555587,-0.289814838,1,0,0,5.278685,scale,,,,,,0.275930788,0.223606798,0.275930788,0.223606798,stimuli/lakes/503027_left.png,stimuli/lakes/503027_right.png,,,,0,113,113,27,1,,,,,
,,,,,,,$participant_id,2020-07-09_13h46.14.480,fisher_task,2020.1.3,Win32,60,IwAR0ukC7OKkr6FcaJuLjCIz0k9s_mGJ0m6iJexdJsibCL-S3CxwrlWgyBN4c,-0.188888868,-0.387037063,1,0,0,4.44567,scale,,,,,,0.2468,0.2,0.302267034,0.244948974,stimuli/lakes/4080111_left.png,stimuli/lakes/4080111_right.png,,,,0,114,114,111,1,,,,,
,,,,,,,$participant_id,2020-07-09_13h46.14.480,fisher_task,2020.1.3,Win32,60,IwAR0ukC7OKkr6FcaJuLjCIz0k9s_mGJ0m6iJexdJsibCL-S3CxwrlWgyBN4c,-0.153703625,-0.290740821,1,0,0,2.78057,scale,,,,,,0.326485712,0.264575131,0.21373507,0.173205081,stimuli/lakes/706086_left.png,stimuli/lakes/706086_right.png,,,,0,115,115,86,1,,,,,
,,,,,,,$participant_id,2020-07-09_13h46.14.480,fisher_task,2020.1.3,Win32,60,IwAR0ukC7OKkr6FcaJuLjCIz0k9s_mGJ0m6iJexdJsibCL-S3CxwrlWgyBN4c,0.184259291,-0.347222247,1,0,0,1.78172,scale,,,,,,0.21373507,0.173205081,0.326485712,0.264575131,stimuli/lakes/303025_left.png,stimuli/lakes/303025_right.png,,,,0,116,116,25,1,,,,,
,,,,,,,$participant_id,2020-07-09_13h46.14.480,fisher_task,2020.1.3,Win32,60,IwAR0ukC7OKkr6FcaJuLjCIz0k9s_mGJ0m6iJexdJsibCL-S3CxwrlWgyBN4c,0.146296327,-0.276851932,1,0,0,5.71235,scale,,,,,,0.21373507,0.173205081,0.326485712,0.264575131,stimuli/lakes/304052_left.png,stimuli/lakes/304052_right.png,,,,0,117,117,52,1,,,,,
,,,,,,,$participant_id,2020-07-09_13h46.14.480,fisher_task,2020.1.3,Win32,60,IwAR0ukC7OKkr6FcaJuLjCIz0k9s_mGJ0m6iJexdJsibCL-S3CxwrlWgyBN4c,0.183333365,-0.359259285,1,0,0,3.713345,scale,,,,,,0.2468,0.2,0.302267034,0.244948974,stimuli/lakes/40103_left.png,stimuli/lakes/40103_right.png,,,,0,118,118,3,1,,,,,
,,,,,,,$participant_id,2020-07-09_13h46.14.480,fisher_task,2020.1.3,Win32,60,IwAR0ukC7OKkr6FcaJuLjCIz0k9s_mGJ0m6iJexdJsibCL-S3CxwrlWgyBN4c,0.103703733,-0.241666689,1,0,0,2.398025,scale,,,,,,0.3702,0.3,0.1234,0.1,stimuli/lakes/903031_left.png,stimuli/lakes/903031_right.png,,,,0,119,119,31,1,,,,,
,,,,,,,$participant_id,2020-07-09_13h46.14.480,fisher_task,2020.1.3,Win32,60,IwAR0ukC7OKkr6FcaJuLjCIz0k9s_mGJ0m6iJexdJsibCL-S3CxwrlWgyBN4c,0.155555587,-0.293518599,1,0,0,5.36147,scale,,,,,,0.349027907,0.282842712,0.174513954,0.141421356,stimuli/lakes/80109_left.png,stimuli/lakes/80109_right.png,,,,0,120,120,9,1,,,,,
,,,,,,,$participant_id,2020-07-09_13h46.14.480,fisher_task,2020.1.3,Win32,60,IwAR0ukC7OKkr6FcaJuLjCIz0k9s_mGJ0m6iJexdJsibCL-S3CxwrlWgyBN4c,-0.012962937,-0.212037058,1,0,0,2.41424,scale,,,,,,0.2468,0.2,0.302267034,0.244948974,stimuli/lakes/404053_left.png,stimuli/lakes/404053_right.png,,,,0,121,121,53,1,,,,,
,,,,,,,$participant_id,2020-07-09_13h46.14.480,fisher_task,2020.1.3,Win32,60,IwAR0ukC7OKkr6FcaJuLjCIz0k9s_mGJ0m6iJexdJsibCL-S3CxwrlWgyBN4c,0.185185217,-0.355555581,1,0,0,3.230265,scale,,,,,,0.2468,0.2,0.302267034,0.244948974,stimuli/lakes/403026_left.png,stimuli/lakes/403026_right.png,,,,0,122,122,26,1,,,,,
,,,,,,,$participant_id,2020-07-09_13h46.14.480,fisher_task,2020.1.3,Win32,60,IwAR0ukC7OKkr6FcaJuLjCIz0k9s_mGJ0m6iJexdJsibCL-S3CxwrlWgyBN4c,-0.114814735,-0.240740819,1,0,0,2.963355,scale,,,,,,0.275930788,0.223606798,0.275930788,0.223606798,stimuli/lakes/506075_left.png,stimuli/lakes/506075_right.png,,,,0,123,123,75,1,,,,,
,,,,,,,$participant_id,2020-07-09_13h46.14.480,fisher_task,2020.1.3,Win32,60,IwAR0ukC7OKkr6FcaJuLjCIz0k9s_mGJ0m6iJexdJsibCL-S3CxwrlWgyBN4c,0.097222252,-0.238888911,1,0,0,4.828595,scale,,,,,,0.174513954,0.141421356,0.349027907,0.282842712,stimuli/lakes/205060_left.png,stimuli/lakes/205060_right.png,,,,0,124,124,60,1,,,,,
,,,,,,,$participant_id,2020-07-09_13h46.14.480,fisher_task,2020.1.3,Win32,60,IwAR0ukC7OKkr6FcaJuLjCIz0k9s_mGJ0m6iJexdJsibCL-S3CxwrlWgyBN4c,-0.145370292,-0.269444467,1,0,0,2.494905,scale,,,,,,0.3702,0.3,0.1234,0.1,stimuli/lakes/904049_left.png,stimuli/lakes/904049_right.png,,,,0,125,125,49,1,,,,,
,,,,,,,$participant_id,2020-07-09_13h46.14.480,fisher_task,2020.1.3,Win32,60,IwAR0ukC7OKkr6FcaJuLjCIz0k9s_mGJ0m6iJexdJsibCL-S3CxwrlWgyBN4c,0.15925929,-0.30092595,1,0,0,5.128985,scale,,,,,,0.1234,0.1,0.3702,0.3,stimuli/lakes/105059_left.png,stimuli/lakes/105059_right.png,,,,0,126,126,59,1,,,,,
,,,,,,,$participant_id,2020-07-09_13h46.14.480,fisher_task,2020.1.3,Win32,60,IwAR0ukC7OKkr6FcaJuLjCIz0k9s_mGJ0m6iJexdJsibCL-S3CxwrlWgyBN4c,-0.18148146,-0.329629711,1,0,0,3.24715,scale,,,,,,0.275930788,0.223606798,0.275930788,0.223606798,stimuli/lakes/5090125_left.png,stimuli/lakes/5090125_right.png,,,,0,127,127,125,1,,,,,
,,,,,,,$participant_id,2020-07-09_13h46.14.480,fisher_task,2020.1.3,Win32,60,IwAR0ukC7OKkr6FcaJuLjCIz0k9s_mGJ0m6iJexdJsibCL-S3CxwrlWgyBN4c,0.190740773,-0.42129638,1,0,0,3.030595,scale,,,,,,0.174513954,0.141421356,0.349027907,0.282842712,stimuli/lakes/202011_left.png,stimuli/lakes/202011_right.png,,,,0,128,128,11,1,,,,,
,,,,,,,$participant_id,2020-07-09_13h46.14.480,fisher_task,2020.1.3,Win32,60,IwAR0ukC7OKkr6FcaJuLjCIz0k9s_mGJ0m6iJexdJsibCL-S3CxwrlWgyBN4c,-0.158333312,-0.302777802,1,0,0,2.881805,scale,,,,,,0.2468,0.2,0.302267034,0.244948974,stimuli/lakes/4070101_left.png,stimuli/lakes/4070101_right.png,,,,0,129,129,101,1,,,,,
,,,,,,,$participant_id,2020-07-09_13h46.14.480,fisher_task,2020.1.3,Win32,60,IwAR0ukC7OKkr6FcaJuLjCIz0k9s_mGJ0m6iJexdJsibCL-S3CxwrlWgyBN4c,,,,,,,,,,,,,,,,,,,,,,,,,,,,space,14.17625,space,1.943915
