keySpace.keys,instructions.thisRepN,instructions.thisTrialN,instructions.thisN,instructions.thisIndex,instructions.ran,participant,date,expName,psychopyVersion,OS,frameRate,mouse.x,mouse.y,mouse.leftButton,mouse.midButton,mouse.rightButton,mouse.time,mouse.clicked_name,training.thisRepN,training.thisTrialN,training.thisN,training.thisIndex,training.ran,widthBasketLeft,heightBasketLeft,widthBasketRight,heightBasketRight,leftLake,rightLake,space2.keys,space2.rt,space1.keys,trials.thisRepN,trials.thisTrialN,trials.thisN,trials.thisIndex,trials.ran,space1.rt,finalSpace1.keys,finalSpace1.rt,finalSpace2.keys,finalSpace2.rt
,0,0,0,0,1,$9559203121,2020-07-08_23h34.14.127,fisher_task,2020.1.3,Win32,60,,,,,,,,,,,,,,,,,,,,,,,,,,,,,,,
,,,,,,$9559203121,2020-07-08_23h34.14.127,fisher_task,2020.1.3,Win32,60,0.126851852,-0.299074074,1,0,0,3.98333,scale,0,0,0,0,1,0.275930788,0.223606798,0.275930788,0.223606798,stimuli/training/20_left.png,stimuli/training/20_right.png,,,,,,,,,,,,,
,,,,,,$9559203121,2020-07-08_23h34.14.127,fisher_task,2020.1.3,Win32,60,-0.132407407,-0.307407407,1,0,0,3.29961,scale,0,1,1,1,1,0.275930788,0.223606798,0.275930788,0.223606798,stimuli/training/80_left.png,stimuli/training/80_right.png,,,,,,,,,,,,,
,,,,,,$9559203121,2020-07-08_23h34.14.127,fisher_task,2020.1.3,Win32,60,0.125925926,-0.319444444,1,0,0,5.233495,scale,0,2,2,2,1,0.174513954,0.141421356,0.349027907,0.282842712,stimuli/training/50_left.png,stimuli/training/50_right.png,,,,,,,,,,,,,
,,,,,,$9559203121,2020-07-08_23h34.14.127,fisher_task,2020.1.3,Win32,60,-0.125925926,-0.307407407,1,0,0,4.01588,scale,0,3,3,3,1,0.349027907,0.282842712,0.174513954,0.141421356,stimuli/training/50_left.png,stimuli/training/50_right.png,,,,,,,,,,,,,
,,,,,,$9559203121,2020-07-08_23h34.14.127,fisher_task,2020.1.3,Win32,60,0.001851852,-0.249074074,1,0,0,8.733175,scale,0,4,4,4,1,0.275930788,0.223606798,0.275930788,0.223606798,stimuli/training/50_left.png,stimuli/training/50_right.png,,,,,,,,,,,,,
,,,,,,$9559203121,2020-07-08_23h34.14.127,fisher_task,2020.1.3,Win32,60,0.163888889,-0.417592593,1,0,0,1.99962,scale,0,5,5,5,1,0.174513954,0.141421356,0.349027907,0.282842712,stimuli/training/20_left.png,stimuli/training/20_right.png,,,,,,,,,,,,,
,,,,,,$9559203121,2020-07-08_23h34.14.127,fisher_task,2020.1.3,Win32,60,-0.156481481,-0.424074074,1,0,0,1.799265,scale,0,6,6,6,1,0.349027907,0.282842712,0.174513954,0.141421356,stimuli/training/80_left.png,stimuli/training/80_right.png,,,,,,,,,,,,,
,,,,,,$9559203121,2020-07-08_23h34.14.127,fisher_task,2020.1.3,Win32,60,0.155555556,-0.424074074,1,0,0,2.61632,scale,0,7,7,7,1,0.1234,0.1,0.3702,0.3,stimuli/training/30_left.png,stimuli/training/30_right.png,,,,,,,,,,,,,
,,,,,,$9559203121,2020-07-08_23h34.14.127,fisher_task,2020.1.3,Win32,60,-0.162962963,-0.424074074,1,0,0,2.116415,scale,0,8,8,8,1,0.3702,0.3,0.1234,0.1,stimuli/training/70_left.png,stimuli/training/70_right.png,,,,,,,,,,,,,
,,,,,,$9559203121,2020-07-08_23h34.14.127,fisher_task,2020.1.3,Win32,60,-0.165740741,-0.42037037,1,0,0,1.666155,scale,0,9,9,9,1,0.326485712,0.264575131,0.21373507,0.173205081,stimuli/training/90_left.png,stimuli/training/90_right.png,,,,,,,,,,,,,
,,,,,,$9559203121,2020-07-08_23h34.14.127,fisher_task,2020.1.3,Win32,60,0.160185185,-0.419444444,1,0,0,1.79957,scale,0,10,10,10,1,0.21373507,0.173205081,0.326485712,0.264575131,stimuli/training/10_left.png,stimuli/training/10_right.png,,,,,,,,,,,,,
,,,,,,$9559203121,2020-07-08_23h34.14.127,fisher_task,2020.1.3,Win32,60,-0.071296296,-0.275925926,1,0,0,4.46631,scale,,,,,,0.21373507,0.173205081,0.326485712,0.264575131,stimuli/lakes/3080109_left.png,stimuli/lakes/3080109_right.png,space,16.844615,,0,0,0,109,1,,,,,
,,,,,,$9559203121,2020-07-08_23h34.14.127,fisher_task,2020.1.3,Win32,60,-0.138888889,-0.32962963,1,0,0,2.399485,scale,,,,,,0.275930788,0.223606798,0.275930788,0.223606798,stimuli/lakes/506084_left.png,stimuli/lakes/506084_right.png,,,,0,1,1,84,1,,,,,
,,,,,,$9559203121,2020-07-08_23h34.14.127,fisher_task,2020.1.3,Win32,60,0.110185185,-0.307407407,1,0,0,4.2996,scale,,,,,,0.326485712,0.264575131,0.21373507,0.173205081,stimuli/lakes/703038_left.png,stimuli/lakes/703038_right.png,,,,0,2,2,38,1,,,,,
,,,,,,$9559203121,2020-07-08_23h34.14.127,fisher_task,2020.1.3,Win32,60,-0.12962963,-0.312037037,1,0,0,1.999475,scale,,,,,,0.302267034,0.244948974,0.2468,0.2,stimuli/lakes/6080114_left.png,stimuli/lakes/6080114_right.png,,,,0,3,3,114,1,,,,,
,,,,,,$9559203121,2020-07-08_23h34.14.127,fisher_task,2020.1.3,Win32,60,0.162962963,-0.40462963,1,0,0,1.84947,scale,,,,,,0.2468,0.2,0.302267034,0.244948974,stimuli/lakes/404044_left.png,stimuli/lakes/404044_right.png,,,,0,4,4,44,1,,,,,
,,,,,,$9559203121,2020-07-08_23h34.14.127,fisher_task,2020.1.3,Win32,60,-0.102777778,-0.277777778,1,0,0,2.99957,scale,,,,,,0.2468,0.2,0.302267034,0.244948974,stimuli/lakes/406083_left.png,stimuli/lakes/406083_right.png,,,,0,5,5,83,1,,,,,
,,,,,,$9559203121,2020-07-08_23h34.14.127,fisher_task,2020.1.3,Win32,60,-0.163888889,-0.42962963,1,0,0,2.166155,scale,,,,,,0.3702,0.3,0.1234,0.1,stimuli/lakes/9070106_left.png,stimuli/lakes/9070106_right.png,,,,0,6,6,106,1,,,,,
,,,,,,$9559203121,2020-07-08_23h34.14.127,fisher_task,2020.1.3,Win32,60,0.163888889,-0.416666667,1,0,0,3.265605,scale,,,,,,0.1234,0.1,0.3702,0.3,stimuli/lakes/105059_left.png,stimuli/lakes/105059_right.png,,,,0,7,7,59,1,,,,,
,,,,,,$9559203121,2020-07-08_23h34.14.127,fisher_task,2020.1.3,Win32,60,-0.010185185,-0.252777778,1,0,0,4.39952,scale,,,,,,0.3702,0.3,0.1234,0.1,stimuli/lakes/902022_left.png,stimuli/lakes/902022_right.png,,,,0,8,8,22,1,,,,,
,,,,,,$9559203121,2020-07-08_23h34.14.127,fisher_task,2020.1.3,Win32,60,-0.137037037,-0.318518519,1,0,0,2.415495,scale,,,,,,0.349027907,0.282842712,0.174513954,0.141421356,stimuli/lakes/804048_left.png,stimuli/lakes/804048_right.png,,,,0,9,9,48,1,,,,,
,,,,,,$9559203121,2020-07-08_23h34.14.127,fisher_task,2020.1.3,Win32,60,0.173148148,-0.422222222,1,0,0,1.79969,scale,,,,,,0.21373507,0.173205081,0.326485712,0.264575131,stimuli/lakes/302013_left.png,stimuli/lakes/302013_right.png,,,,0,10,10,13,1,,,,,
,,,,,,$9559203121,2020-07-08_23h34.14.127,fisher_task,2020.1.3,Win32,60,-0.078703704,-0.256481481,1,0,0,4.24962,scale,,,,,,0.1234,0.1,0.3702,0.3,stimuli/lakes/107098_left.png,stimuli/lakes/107098_right.png,,,,0,11,11,98,1,,,,,
,,,,,,$9559203121,2020-07-08_23h34.14.127,fisher_task,2020.1.3,Win32,60,0.075925926,-0.283333333,1,0,0,5.466395,scale,,,,,,0.326485712,0.264575131,0.21373507,0.173205081,stimuli/lakes/70107_left.png,stimuli/lakes/70107_right.png,,,,0,12,12,7,1,,,,,
,,,,,,$9559203121,2020-07-08_23h34.14.127,fisher_task,2020.1.3,Win32,60,0.132407407,-0.343518519,1,0,0,3.91629,scale,,,,,,0.21373507,0.173205081,0.326485712,0.264575131,stimuli/lakes/304043_left.png,stimuli/lakes/304043_right.png,,,,0,13,13,43,1,,,,,
,,,,,,$9559203121,2020-07-08_23h34.14.127,fisher_task,2020.1.3,Win32,60,-0.152777778,-0.418518519,1,0,0,1.43286,scale,,,,,,0.326485712,0.264575131,0.21373507,0.173205081,stimuli/lakes/7090128_left.png,stimuli/lakes/7090128_right.png,,,,0,14,14,128,1,,,,,
,,,,,,$9559203121,2020-07-08_23h34.14.127,fisher_task,2020.1.3,Win32,60,-0.160185185,-0.416666667,1,0,0,2.23243,scale,,,,,,0.326485712,0.264575131,0.21373507,0.173205081,stimuli/lakes/7080117_left.png,stimuli/lakes/7080117_right.png,,,,0,15,15,117,1,,,,,
,,,,,,$9559203121,2020-07-08_23h34.14.127,fisher_task,2020.1.3,Win32,60,0.155555556,-0.421296296,1,0,0,1.766245,scale,,,,,,0.1234,0.1,0.3702,0.3,stimuli/lakes/103032_left.png,stimuli/lakes/103032_right.png,,,,0,16,16,32,1,,,,,
,,,,,,$9559203121,2020-07-08_23h34.14.127,fisher_task,2020.1.3,Win32,60,0.07962963,-0.27037037,1,0,0,4.61634,scale,,,,,,0.326485712,0.264575131,0.21373507,0.173205081,stimuli/lakes/70108_left.png,stimuli/lakes/70108_right.png,,,,0,17,17,8,1,,,,,
,,,,,,$9559203121,2020-07-08_23h34.14.127,fisher_task,2020.1.3,Win32,60,-0.159259259,-0.414814815,1,0,0,2.56629,scale,,,,,,0.302267034,0.244948974,0.2468,0.2,stimuli/lakes/6080115_left.png,stimuli/lakes/6080115_right.png,,,,0,18,18,115,1,,,,,
,,,,,,$9559203121,2020-07-08_23h34.14.127,fisher_task,2020.1.3,Win32,60,0.002777778,-0.260185185,1,0,0,7.583165,scale,,,,,,0.302267034,0.244948974,0.2468,0.2,stimuli/lakes/603037_left.png,stimuli/lakes/603037_right.png,,,,0,19,19,37,1,,,,,
,,,,,,$9559203121,2020-07-08_23h34.14.127,fisher_task,2020.1.3,Win32,60,-0.173148148,-0.42037037,1,0,0,1.34899,scale,,,,,,0.3702,0.3,0.1234,0.1,stimuli/lakes/907097_left.png,stimuli/lakes/907097_right.png,,,,0,20,20,97,1,,,,,
,,,,,,$9559203121,2020-07-08_23h34.14.127,fisher_task,2020.1.3,Win32,60,0.14537037,-0.365740741,1,0,0,6.78345,scale,,,,,,0.21373507,0.173205081,0.326485712,0.264575131,stimuli/lakes/303025_left.png,stimuli/lakes/303025_right.png,,,,0,21,21,25,1,,,,,
,,,,,,$9559203121,2020-07-08_23h34.14.127,fisher_task,2020.1.3,Win32,60,0.118518519,-0.321296296,1,0,0,6.48316,scale,,,,,,0.21373507,0.173205081,0.326485712,0.264575131,stimuli/lakes/306073_left.png,stimuli/lakes/306073_right.png,,,space,0,22,22,73,1,11.796665,,,,
,,,,,,$9559203121,2020-07-08_23h34.14.127,fisher_task,2020.1.3,Win32,60,-0.043518519,-0.25,1,0,0,3.216595,scale,,,,,,0.3702,0.3,0.1234,0.1,stimuli/lakes/903031_left.png,stimuli/lakes/903031_right.png,,,,0,23,23,31,1,,,,,
,,,,,,$9559203121,2020-07-08_23h34.14.127,fisher_task,2020.1.3,Win32,60,0.156481481,-0.418518519,1,0,0,1.316185,scale,,,,,,0.1234,0.1,0.3702,0.3,stimuli/lakes/103023_left.png,stimuli/lakes/103023_right.png,,,,0,24,24,23,1,,,,,
,,,,,,$9559203121,2020-07-08_23h34.14.127,fisher_task,2020.1.3,Win32,60,-0.072222222,-0.25,1,0,0,8.03308,scale,,,,,,0.302267034,0.244948974,0.2468,0.2,stimuli/lakes/604046_left.png,stimuli/lakes/604046_right.png,,,,0,25,25,46,1,,,,,
,,,,,,$9559203121,2020-07-08_23h34.14.127,fisher_task,2020.1.3,Win32,60,-0.152777778,-0.367592593,1,0,0,5.66631,scale,,,,,,0.302267034,0.244948974,0.2468,0.2,stimuli/lakes/607094_left.png,stimuli/lakes/607094_right.png,,,,0,26,26,94,1,,,,,
,,,,,,$9559203121,2020-07-08_23h34.14.127,fisher_task,2020.1.3,Win32,60,-0.168518519,-0.42962963,1,0,0,1.948815,scale,,,,,,0.326485712,0.264575131,0.21373507,0.173205081,stimuli/lakes/7090129_left.png,stimuli/lakes/7090129_right.png,,,,0,27,27,129,1,,,,,
,,,,,,$9559203121,2020-07-08_23h34.14.127,fisher_task,2020.1.3,Win32,60,0.15462963,-0.357407407,1,0,0,3.516275,scale,,,,,,0.21373507,0.173205081,0.326485712,0.264575131,stimuli/lakes/303034_left.png,stimuli/lakes/303034_right.png,,,,0,28,28,34,1,,,,,
,,,,,,$9559203121,2020-07-08_23h34.14.127,fisher_task,2020.1.3,Win32,60,0.05,-0.242592593,1,0,0,5.53303,scale,,,,,,0.2468,0.2,0.302267034,0.244948974,stimuli/lakes/406074_left.png,stimuli/lakes/406074_right.png,,,,0,29,29,74,1,,,,,
,,,,,,$9559203121,2020-07-08_23h34.14.127,fisher_task,2020.1.3,Win32,60,0.062962963,-0.262962963,1,0,0,7.69984,scale,,,,,,0.326485712,0.264575131,0.21373507,0.173205081,stimuli/lakes/703029_left.png,stimuli/lakes/703029_right.png,,,,0,30,30,29,1,,,,,
,,,,,,$9559203121,2020-07-08_23h34.14.127,fisher_task,2020.1.3,Win32,60,0.067592593,-0.269444444,1,0,0,7.18282,scale,,,,,,0.21373507,0.173205081,0.326485712,0.264575131,stimuli/lakes/306082_left.png,stimuli/lakes/306082_right.png,,,,0,31,31,82,1,,,,,
,,,,,,$9559203121,2020-07-08_23h34.14.127,fisher_task,2020.1.3,Win32,60,-0.151851852,-0.353703704,1,0,0,5.81631,scale,,,,,,0.2468,0.2,0.302267034,0.244948974,stimuli/lakes/4090123_left.png,stimuli/lakes/4090123_right.png,,,,0,32,32,123,1,,,,,
,,,,,,$9559203121,2020-07-08_23h34.14.127,fisher_task,2020.1.3,Win32,60,0.151851852,-0.424074074,1,0,0,4.40043,scale,,,,,,0.2468,0.2,0.302267034,0.244948974,stimuli/lakes/402015_left.png,stimuli/lakes/402015_right.png,,,,0,33,33,15,1,,,,,
,,,,,,$9559203121,2020-07-08_23h34.14.127,fisher_task,2020.1.3,Win32,60,0.162037037,-0.423148148,1,0,0,3.35016,scale,,,,,,0.2468,0.2,0.302267034,0.244948974,stimuli/lakes/40102_left.png,stimuli/lakes/40102_right.png,,,,0,34,34,2,1,,,,,
,,,,,,$9559203121,2020-07-08_23h34.14.127,fisher_task,2020.1.3,Win32,60,0.055555556,-0.261111111,1,0,0,9.016215,scale,,,,,,0.1234,0.1,0.3702,0.3,stimuli/lakes/1080107_left.png,stimuli/lakes/1080107_right.png,,,,0,35,35,107,1,,,,,
,,,,,,$9559203121,2020-07-08_23h34.14.127,fisher_task,2020.1.3,Win32,60,0.156481481,-0.425925926,1,0,0,3.53248,scale,,,,,,0.1234,0.1,0.3702,0.3,stimuli/lakes/104041_left.png,stimuli/lakes/104041_right.png,,,,0,36,36,41,1,,,,,
,,,,,,$9559203121,2020-07-08_23h34.14.127,fisher_task,2020.1.3,Win32,60,-0.091666667,-0.273148148,1,0,0,4.49964,scale,,,,,,0.302267034,0.244948974,0.2468,0.2,stimuli/lakes/605066_left.png,stimuli/lakes/605066_right.png,,,,0,37,37,66,1,,,,,
,,,,,,$9559203121,2020-07-08_23h34.14.127,fisher_task,2020.1.3,Win32,60,0.152777778,-0.37962963,1,0,0,6.283035,scale,,,,,,0.2468,0.2,0.302267034,0.244948974,stimuli/lakes/402014_left.png,stimuli/lakes/402014_right.png,,,,0,38,38,14,1,,,,,
,,,,,,$9559203121,2020-07-08_23h34.14.127,fisher_task,2020.1.3,Win32,60,0.106481481,-0.29537037,1,0,0,5.198585,scale,,,,,,0.1234,0.1,0.3702,0.3,stimuli/lakes/107089_left.png,stimuli/lakes/107089_right.png,,,,0,39,39,89,1,,,,,
,,,,,,$9559203121,2020-07-08_23h34.14.127,fisher_task,2020.1.3,Win32,60,-0.124074074,-0.316666667,1,0,0,4.782975,scale,,,,,,0.275930788,0.223606798,0.275930788,0.223606798,stimuli/lakes/506075_left.png,stimuli/lakes/506075_right.png,,,,0,40,40,75,1,,,,,
,,,,,,$9559203121,2020-07-08_23h34.14.127,fisher_task,2020.1.3,Win32,60,-0.10462963,-0.3,1,0,0,8.199785,scale,,,,,,0.21373507,0.173205081,0.326485712,0.264575131,stimuli/lakes/307091_left.png,stimuli/lakes/307091_right.png,,,,0,41,41,91,1,,,,,
,,,,,,$9559203121,2020-07-08_23h34.14.127,fisher_task,2020.1.3,Win32,60,-0.164814815,-0.412962963,1,0,0,2.100495,scale,,,,,,0.302267034,0.244948974,0.2468,0.2,stimuli/lakes/6070103_left.png,stimuli/lakes/6070103_right.png,,,,0,42,42,103,1,,,,,
,,,,,,$9559203121,2020-07-08_23h34.14.127,fisher_task,2020.1.3,Win32,60,-0.160185185,-0.419444444,1,0,0,5.549535,scale,,,,,,0.275930788,0.223606798,0.275930788,0.223606798,stimuli/lakes/5080113_left.png,stimuli/lakes/5080113_right.png,,,,0,43,43,113,1,,,,,
,,,,,,$9559203121,2020-07-08_23h34.14.127,fisher_task,2020.1.3,Win32,60,-0.157407407,-0.413888889,1,0,0,5.36648,scale,,,,,,0.302267034,0.244948974,0.2468,0.2,stimuli/lakes/6090127_left.png,stimuli/lakes/6090127_right.png,,,space,0,44,44,127,1,80.87736,,,,
,,,,,,$9559203121,2020-07-08_23h34.14.127,fisher_task,2020.1.3,Win32,60,0.153703704,-0.425925926,1,0,0,2.14918,scale,,,,,,0.2468,0.2,0.302267034,0.244948974,stimuli/lakes/40103_left.png,stimuli/lakes/40103_right.png,,,,0,45,45,3,1,,,,,
,,,,,,$9559203121,2020-07-08_23h34.14.127,fisher_task,2020.1.3,Win32,60,-0.140740741,-0.321296296,1,0,0,5.16637,scale,,,,,,0.21373507,0.173205081,0.326485712,0.264575131,stimuli/lakes/3080110_left.png,stimuli/lakes/3080110_right.png,,,,0,46,46,110,1,,,,,
,,,,,,$9559203121,2020-07-08_23h34.14.127,fisher_task,2020.1.3,Win32,60,0.140740741,-0.350925926,1,0,0,3.39945,scale,,,,,,0.302267034,0.244948974,0.2468,0.2,stimuli/lakes/60105_left.png,stimuli/lakes/60105_right.png,,,,0,47,47,5,1,,,,,
,,,,,,$9559203121,2020-07-08_23h34.14.127,fisher_task,2020.1.3,Win32,60,-0.17037037,-0.398148148,1,0,0,2.54961,scale,,,,,,0.349027907,0.282842712,0.174513954,0.141421356,stimuli/lakes/8070105_left.png,stimuli/lakes/8070105_right.png,,,,0,48,48,105,1,,,,,
,,,,,,$9559203121,2020-07-08_23h34.14.127,fisher_task,2020.1.3,Win32,60,-0.162962963,-0.39537037,1,0,0,1.9496,scale,,,,,,0.349027907,0.282842712,0.174513954,0.141421356,stimuli/lakes/807096_left.png,stimuli/lakes/807096_right.png,,,,0,49,49,96,1,,,,,
,,,,,,$9559203121,2020-07-08_23h34.14.127,fisher_task,2020.1.3,Win32,60,0.158333333,-0.424074074,1,0,0,1.999635,scale,,,,,,0.21373507,0.173205081,0.326485712,0.264575131,stimuli/lakes/30101_left.png,stimuli/lakes/30101_right.png,,,,0,50,50,1,1,,,,,
,,,,,,$9559203121,2020-07-08_23h34.14.127,fisher_task,2020.1.3,Win32,60,-0.133333333,-0.306481481,1,0,0,9.41637,scale,,,,,,0.3702,0.3,0.1234,0.1,stimuli/lakes/903040_left.png,stimuli/lakes/903040_right.png,,,,0,51,51,40,1,,,,,
,,,,,,$9559203121,2020-07-08_23h34.14.127,fisher_task,2020.1.3,Win32,60,-0.167592593,-0.391666667,1,0,0,4.96624,scale,,,,,,0.21373507,0.173205081,0.326485712,0.264575131,stimuli/lakes/3090121_left.png,stimuli/lakes/3090121_right.png,,,,0,52,52,121,1,,,,,
,,,,,,$9559203121,2020-07-08_23h34.14.127,fisher_task,2020.1.3,Win32,60,0.159259259,-0.42962963,1,0,0,2.34939,scale,,,,,,0.1234,0.1,0.3702,0.3,stimuli/lakes/104050_left.png,stimuli/lakes/104050_right.png,,,,0,53,53,50,1,,,,,
,,,,,,$9559203121,2020-07-08_23h34.14.127,fisher_task,2020.1.3,Win32,60,0.137962963,-0.357407407,1,0,0,6.13244,scale,,,,,,0.2468,0.2,0.302267034,0.244948974,stimuli/lakes/403035_left.png,stimuli/lakes/403035_right.png,,,,0,54,54,35,1,,,,,
,,,,,,$9559203121,2020-07-08_23h34.14.127,fisher_task,2020.1.3,Win32,60,0.100925926,-0.280555556,1,0,0,6.083075,scale,,,,,,0.174513954,0.141421356,0.349027907,0.282842712,stimuli/lakes/207099_left.png,stimuli/lakes/207099_right.png,,,,0,55,55,99,1,,,,,
,,,,,,$9559203121,2020-07-08_23h34.14.127,fisher_task,2020.1.3,Win32,60,-0.164814815,-0.357407407,1,0,0,4.48297,scale,,,,,,0.349027907,0.282842712,0.174513954,0.141421356,stimuli/lakes/806078_left.png,stimuli/lakes/806078_right.png,,,,0,56,56,78,1,,,,,
,,,,,,$9559203121,2020-07-08_23h34.14.127,fisher_task,2020.1.3,Win32,60,-0.155555556,-0.375925926,1,0,0,3.8989,scale,,,,,,0.3702,0.3,0.1234,0.1,stimuli/lakes/904049_left.png,stimuli/lakes/904049_right.png,,,,0,57,57,49,1,,,,,
,,,,,,$9559203121,2020-07-08_23h34.14.127,fisher_task,2020.1.3,Win32,60,-0.168518519,-0.425925926,1,0,0,3.583255,scale,,,,,,0.3702,0.3,0.1234,0.1,stimuli/lakes/906088_left.png,stimuli/lakes/906088_right.png,,,,0,58,58,88,1,,,,,
,,,,,,$9559203121,2020-07-08_23h34.14.127,fisher_task,2020.1.3,Win32,60,0.011111111,-0.247222222,1,0,0,8.416295,scale,,,,,,0.349027907,0.282842712,0.174513954,0.141421356,stimuli/lakes/805069_left.png,stimuli/lakes/805069_right.png,,,,0,59,59,69,1,,,,,
,,,,,,$9559203121,2020-07-08_23h34.14.127,fisher_task,2020.1.3,Win32,60,-0.166666667,-0.42962963,1,0,0,2.53281,scale,,,,,,0.302267034,0.244948974,0.2468,0.2,stimuli/lakes/6090126_left.png,stimuli/lakes/6090126_right.png,,,,0,60,60,126,1,,,,,
,,,,,,$9559203121,2020-07-08_23h34.14.127,fisher_task,2020.1.3,Win32,60,0.15,-0.362962963,1,0,0,3.76627,scale,,,,,,0.1234,0.1,0.3702,0.3,stimuli/lakes/106071_left.png,stimuli/lakes/106071_right.png,,,,0,61,61,71,1,,,,,
,,,,,,$9559203121,2020-07-08_23h34.14.127,fisher_task,2020.1.3,Win32,60,-0.073148148,-0.261111111,1,0,0,7.116365,scale,,,,,,0.1234,0.1,0.3702,0.3,stimuli/lakes/1090119_left.png,stimuli/lakes/1090119_right.png,,,,0,62,62,119,1,,,,,
,,,,,,$9559203121,2020-07-08_23h34.14.127,fisher_task,2020.1.3,Win32,60,-0.122222222,-0.30462963,1,0,0,5.166245,scale,,,,,,0.326485712,0.264575131,0.21373507,0.173205081,stimuli/lakes/705068_left.png,stimuli/lakes/705068_right.png,,,,0,63,63,68,1,,,,,
,,,,,,$9559203121,2020-07-08_23h34.14.127,fisher_task,2020.1.3,Win32,60,0.034259259,-0.236111111,1,0,0,4.5657,scale,,,,,,0.326485712,0.264575131,0.21373507,0.173205081,stimuli/lakes/702019_left.png,stimuli/lakes/702019_right.png,,,,0,64,64,19,1,,,,,
,,,,,,$9559203121,2020-07-08_23h34.14.127,fisher_task,2020.1.3,Win32,60,-0.124074074,-0.306481481,1,0,0,2.694425,scale,,,,,,0.275930788,0.223606798,0.275930788,0.223606798,stimuli/lakes/507093_left.png,stimuli/lakes/507093_right.png,,,,0,65,65,93,1,,,,,
,,,,,,$9559203121,2020-07-08_23h34.14.127,fisher_task,2020.1.3,Win32,60,-0.122222222,-0.281481481,1,0,0,5.283115,scale,,,,,,0.302267034,0.244948974,0.2468,0.2,stimuli/lakes/606085_left.png,stimuli/lakes/606085_right.png,,,space,0,66,66,85,1,147.107455,,,,
,,,,,,$9559203121,2020-07-08_23h34.14.127,fisher_task,2020.1.3,Win32,60,-0.137037037,-0.312037037,1,0,0,2.99955,scale,,,,,,0.349027907,0.282842712,0.174513954,0.141421356,stimuli/lakes/803030_left.png,stimuli/lakes/803030_right.png,,,,0,67,67,30,1,,,,,
,,,,,,$9559203121,2020-07-08_23h34.14.127,fisher_task,2020.1.3,Win32,60,-0.148148148,-0.37037037,1,0,0,2.06622,scale,,,,,,0.326485712,0.264575131,0.21373507,0.173205081,stimuli/lakes/706086_left.png,stimuli/lakes/706086_right.png,,,,0,68,68,86,1,,,,,
,,,,,,$9559203121,2020-07-08_23h34.14.127,fisher_task,2020.1.3,Win32,60,-0.167592593,-0.384259259,1,0,0,3.84963,scale,,,,,,0.2468,0.2,0.302267034,0.244948974,stimuli/lakes/407092_left.png,stimuli/lakes/407092_right.png,,,,0,69,69,92,1,,,,,
,,,,,,$9559203121,2020-07-08_23h34.14.127,fisher_task,2020.1.3,Win32,60,0.149074074,-0.42962963,1,0,0,2.349545,scale,,,,,,0.174513954,0.141421356,0.349027907,0.282842712,stimuli/lakes/203024_left.png,stimuli/lakes/203024_right.png,,,,0,70,70,24,1,,,,,
,,,,,,$9559203121,2020-07-08_23h34.14.127,fisher_task,2020.1.3,Win32,60,0.148148148,-0.42962963,1,0,0,1.2993,scale,,,,,,0.174513954,0.141421356,0.349027907,0.282842712,stimuli/lakes/202011_left.png,stimuli/lakes/202011_right.png,,,,0,71,71,11,1,,,,,
,,,,,,$9559203121,2020-07-08_23h34.14.127,fisher_task,2020.1.3,Win32,60,-0.132407407,-0.289814815,1,0,0,2.91645,scale,,,,,,0.302267034,0.244948974,0.2468,0.2,stimuli/lakes/604055_left.png,stimuli/lakes/604055_right.png,,,,0,72,72,55,1,,,,,
,,,,,,$9559203121,2020-07-08_23h34.14.127,fisher_task,2020.1.3,Win32,60,-0.144444444,-0.348148148,1,0,0,2.41619,scale,,,,,,0.275930788,0.223606798,0.275930788,0.223606798,stimuli/lakes/5070102_left.png,stimuli/lakes/5070102_right.png,,,,0,73,73,102,1,,,,,
,,,,,,$9559203121,2020-07-08_23h34.14.127,fisher_task,2020.1.3,Win32,60,0.000925926,-0.257407407,1,0,0,6.25011,scale,,,,,,0.1234,0.1,0.3702,0.3,stimuli/lakes/106080_left.png,stimuli/lakes/106080_right.png,,,,0,74,74,80,1,,,,,
,,,,,,$9559203121,2020-07-08_23h34.14.127,fisher_task,2020.1.3,Win32,60,0.15,-0.377777778,1,0,0,3.049645,scale,,,,,,0.21373507,0.173205081,0.326485712,0.264575131,stimuli/lakes/30100_left.png,stimuli/lakes/30100_right.png,,,,0,75,75,0,1,,,,,
,,,,,,$9559203121,2020-07-08_23h34.14.127,fisher_task,2020.1.3,Win32,60,-0.15,-0.336111111,1,0,0,6.0991,scale,,,,,,0.326485712,0.264575131,0.21373507,0.173205081,stimuli/lakes/705067_left.png,stimuli/lakes/705067_right.png,,,,0,76,76,67,1,,,,,
,,,,,,$9559203121,2020-07-08_23h34.14.127,fisher_task,2020.1.3,Win32,60,-0.078703704,-0.258333333,1,0,0,5.866485,scale,,,,,,0.349027907,0.282842712,0.174513954,0.141421356,stimuli/lakes/806087_left.png,stimuli/lakes/806087_right.png,,,,0,77,77,87,1,,,,,
,,,,,,$9559203121,2020-07-08_23h34.14.127,fisher_task,2020.1.3,Win32,60,-0.151851852,-0.376851852,1,0,0,1.91635,scale,,,,,,0.326485712,0.264575131,0.21373507,0.173205081,stimuli/lakes/7080116_left.png,stimuli/lakes/7080116_right.png,,,,0,78,78,116,1,,,,,
,,,,,,$9559203121,2020-07-08_23h34.14.127,fisher_task,2020.1.3,Win32,60,0.050925926,-0.259259259,1,0,0,4.39971,scale,,,,,,0.275930788,0.223606798,0.275930788,0.223606798,stimuli/lakes/504054_left.png,stimuli/lakes/504054_right.png,,,,0,79,79,54,1,,,,,
,,,,,,$9559203121,2020-07-08_23h34.14.127,fisher_task,2020.1.3,Win32,60,-0.075925926,-0.260185185,1,0,0,6.933145,scale,,,,,,0.174513954,0.141421356,0.349027907,0.282842712,stimuli/lakes/2090120_left.png,stimuli/lakes/2090120_right.png,,,,0,80,80,120,1,,,,,
,,,,,,$9559203121,2020-07-08_23h34.14.127,fisher_task,2020.1.3,Win32,60,0.122222222,-0.330555556,1,0,0,3.650025,scale,,,,,,0.2468,0.2,0.302267034,0.244948974,stimuli/lakes/404053_left.png,stimuli/lakes/404053_right.png,,,,0,81,81,53,1,,,,,
,,,,,,$9559203121,2020-07-08_23h34.14.127,fisher_task,2020.1.3,Win32,60,-0.159259259,-0.381481481,1,0,0,5.83315,scale,,,,,,0.2468,0.2,0.302267034,0.244948974,stimuli/lakes/4090124_left.png,stimuli/lakes/4090124_right.png,,,,0,82,82,124,1,,,,,
,,,,,,$9559203121,2020-07-08_23h34.14.127,fisher_task,2020.1.3,Win32,60,0.127777778,-0.322222222,1,0,0,2.316305,scale,,,,,,0.2468,0.2,0.302267034,0.244948974,stimuli/lakes/403026_left.png,stimuli/lakes/403026_right.png,,,,0,83,83,26,1,,,,,
,,,,,,$9559203121,2020-07-08_23h34.14.127,fisher_task,2020.1.3,Win32,60,0.139814815,-0.351851852,1,0,0,3.06616,scale,,,,,,0.275930788,0.223606798,0.275930788,0.223606798,stimuli/lakes/502016_left.png,stimuli/lakes/502016_right.png,,,,0,84,84,16,1,,,,,
,,,,,,$9559203121,2020-07-08_23h34.14.127,fisher_task,2020.1.3,Win32,60,-0.069444444,-0.25,1,0,0,4.49929,scale,,,,,,0.349027907,0.282842712,0.174513954,0.141421356,stimuli/lakes/802021_left.png,stimuli/lakes/802021_right.png,,,,0,85,85,21,1,,,,,
,,,,,,$9559203121,2020-07-08_23h34.14.127,fisher_task,2020.1.3,Win32,60,-0.151851852,-0.360185185,1,0,0,4.54964,scale,,,,,,0.21373507,0.173205081,0.326485712,0.264575131,stimuli/lakes/3090122_left.png,stimuli/lakes/3090122_right.png,,,,0,86,86,122,1,,,,,
,,,,,,$9559203121,2020-07-08_23h34.14.127,fisher_task,2020.1.3,Win32,60,0.094444444,-0.266666667,1,0,0,4.28307,scale,,,,,,0.174513954,0.141421356,0.349027907,0.282842712,stimuli/lakes/207090_left.png,stimuli/lakes/207090_right.png,,,,0,87,87,90,1,,,,,
,,,,,,$9559203121,2020-07-08_23h34.14.127,fisher_task,2020.1.3,Win32,60,0.12037037,-0.328703704,1,0,0,3.76758,scale,,,,,,0.302267034,0.244948974,0.2468,0.2,stimuli/lakes/602017_left.png,stimuli/lakes/602017_right.png,,,space,0,88,88,17,1,109.57677,,,,
,,,,,,$9559203121,2020-07-08_23h34.14.127,fisher_task,2020.1.3,Win32,60,-0.146296296,-0.355555556,1,0,0,4.28238,scale,,,,,,0.326485712,0.264575131,0.21373507,0.173205081,stimuli/lakes/704056_left.png,stimuli/lakes/704056_right.png,,,,0,89,89,56,1,,,,,
,,,,,,$9559203121,2020-07-08_23h34.14.127,fisher_task,2020.1.3,Win32,60,-0.087037037,-0.265740741,1,0,0,3.79962,scale,,,,,,0.349027907,0.282842712,0.174513954,0.141421356,stimuli/lakes/804057_left.png,stimuli/lakes/804057_right.png,,,,0,90,90,57,1,,,,,
,,,,,,$9559203121,2020-07-08_23h34.14.127,fisher_task,2020.1.3,Win32,60,0.15462963,-0.427777778,1,0,0,4.46645,scale,,,,,,0.275930788,0.223606798,0.275930788,0.223606798,stimuli/lakes/50104_left.png,stimuli/lakes/50104_right.png,,,,0,91,91,4,1,,,,,
,,,,,,$9559203121,2020-07-08_23h34.14.127,fisher_task,2020.1.3,Win32,60,0.12037037,-0.308333333,1,0,0,5.299255,scale,,,,,,0.174513954,0.141421356,0.349027907,0.282842712,stimuli/lakes/205060_left.png,stimuli/lakes/205060_right.png,,,,0,92,92,60,1,,,,,
,,,,,,$9559203121,2020-07-08_23h34.14.127,fisher_task,2020.1.3,Win32,60,-0.150925926,-0.369444444,1,0,0,2.433245,scale,,,,,,0.302267034,0.244948974,0.2468,0.2,stimuli/lakes/606076_left.png,stimuli/lakes/606076_right.png,,,,0,93,93,76,1,,,,,
,,,,,,$9559203121,2020-07-08_23h34.14.127,fisher_task,2020.1.3,Win32,60,-0.144444444,-0.365740741,1,0,0,3.250085,scale,,,,,,0.3702,0.3,0.1234,0.1,stimuli/lakes/906079_left.png,stimuli/lakes/906079_right.png,,,,0,94,94,79,1,,,,,
,,,,,,$9559203121,2020-07-08_23h34.14.127,fisher_task,2020.1.3,Win32,60,-0.15462963,-0.394444444,1,0,0,4.799675,scale,,,,,,0.326485712,0.264575131,0.21373507,0.173205081,stimuli/lakes/707095_left.png,stimuli/lakes/707095_right.png,,,,0,95,95,95,1,,,,,
,,,,,,$9559203121,2020-07-08_23h34.14.127,fisher_task,2020.1.3,Win32,60,0.152777778,-0.39537037,1,0,0,3.216975,scale,,,,,,0.302267034,0.244948974,0.2468,0.2,stimuli/lakes/60106_left.png,stimuli/lakes/60106_right.png,,,,0,96,96,6,1,,,,,
,,,,,,$9559203121,2020-07-08_23h34.14.127,fisher_task,2020.1.3,Win32,60,-0.14537037,-0.326851852,1,0,0,5.1164,scale,,,,,,0.3702,0.3,0.1234,0.1,stimuli/lakes/905070_left.png,stimuli/lakes/905070_right.png,,,,0,97,97,70,1,,,,,
,,,,,,$9559203121,2020-07-08_23h34.14.127,fisher_task,2020.1.3,Win32,60,0.100925926,-0.277777778,1,0,0,3.6163,scale,,,,,,0.174513954,0.141421356,0.349027907,0.282842712,stimuli/lakes/206081_left.png,stimuli/lakes/206081_right.png,,,,0,98,98,81,1,,,,,
,,,,,,$9559203121,2020-07-08_23h34.14.127,fisher_task,2020.1.3,Win32,60,-0.152777778,-0.366666667,1,0,0,2.36628,scale,,,,,,0.326485712,0.264575131,0.21373507,0.173205081,stimuli/lakes/7070104_left.png,stimuli/lakes/7070104_right.png,,,,0,99,99,104,1,,,,,
,,,,,,$9559203121,2020-07-08_23h34.14.127,fisher_task,2020.1.3,Win32,60,-0.07037037,-0.259259259,1,0,0,7.482655,scale,,,,,,0.174513954,0.141421356,0.349027907,0.282842712,stimuli/lakes/2080108_left.png,stimuli/lakes/2080108_right.png,,,,0,100,100,108,1,,,,,
,,,,,,$9559203121,2020-07-08_23h34.14.127,fisher_task,2020.1.3,Win32,60,0.118518519,-0.313888889,1,0,0,8.266555,scale,,,,,,0.349027907,0.282842712,0.174513954,0.141421356,stimuli/lakes/80109_left.png,stimuli/lakes/80109_right.png,,,,0,101,101,9,1,,,,,
,,,,,,$9559203121,2020-07-08_23h34.14.127,fisher_task,2020.1.3,Win32,60,-0.087037037,-0.280555556,1,0,0,8.249215,scale,,,,,,0.302267034,0.244948974,0.2468,0.2,stimuli/lakes/603028_left.png,stimuli/lakes/603028_right.png,,,,0,102,102,28,1,,,,,
,,,,,,$9559203121,2020-07-08_23h34.14.127,fisher_task,2020.1.3,Win32,60,0.106481481,-0.297222222,1,0,0,3.83307,scale,,,,,,0.21373507,0.173205081,0.326485712,0.264575131,stimuli/lakes/305061_left.png,stimuli/lakes/305061_right.png,,,,0,103,103,61,1,,,,,
,,,,,,$9559203121,2020-07-08_23h34.14.127,fisher_task,2020.1.3,Win32,60,-0.156481481,-0.390740741,1,0,0,3.649665,scale,,,,,,0.2468,0.2,0.302267034,0.244948974,stimuli/lakes/4080111_left.png,stimuli/lakes/4080111_right.png,,,,0,104,104,111,1,,,,,
,,,,,,$9559203121,2020-07-08_23h34.14.127,fisher_task,2020.1.3,Win32,60,-0.165740741,-0.425,1,0,0,1.465675,scale,,,,,,0.349027907,0.282842712,0.174513954,0.141421356,stimuli/lakes/8080118_left.png,stimuli/lakes/8080118_right.png,,,,0,105,105,118,1,,,,,
,,,,,,$9559203121,2020-07-08_23h34.14.127,fisher_task,2020.1.3,Win32,60,0.164814815,-0.427777778,1,0,0,2.09969,scale,,,,,,0.174513954,0.141421356,0.349027907,0.282842712,stimuli/lakes/204051_left.png,stimuli/lakes/204051_right.png,,,,0,106,106,51,1,,,,,
,,,,,,$9559203121,2020-07-08_23h34.14.127,fisher_task,2020.1.3,Win32,60,-0.100925926,-0.27037037,1,0,0,3.49974,scale,,,,,,0.326485712,0.264575131,0.21373507,0.173205081,stimuli/lakes/704047_left.png,stimuli/lakes/704047_right.png,,,,0,107,107,47,1,,,,,
,,,,,,$9559203121,2020-07-08_23h34.14.127,fisher_task,2020.1.3,Win32,60,0.160185185,-0.365740741,1,0,0,2.34962,scale,,,,,,0.174513954,0.141421356,0.349027907,0.282842712,stimuli/lakes/204042_left.png,stimuli/lakes/204042_right.png,,,,0,108,108,42,1,,,,,
,,,,,,$9559203121,2020-07-08_23h34.14.127,fisher_task,2020.1.3,Win32,60,0.143518519,-0.374074074,1,0,0,8.499385,scale,,,,,,0.3702,0.3,0.1234,0.1,stimuli/lakes/901010_left.png,stimuli/lakes/901010_right.png,,,,0,109,109,10,1,,,,,
,,,,,,$9559203121,2020-07-08_23h34.14.127,fisher_task,2020.1.3,Win32,60,0.112962963,-0.324074074,1,0,0,2.215975,scale,,,,,,0.302267034,0.244948974,0.2468,0.2,stimuli/lakes/602018_left.png,stimuli/lakes/602018_right.png,,,space,0,110,110,18,1,77.044335,,,,
,,,,,,$9559203121,2020-07-08_23h34.14.127,fisher_task,2020.1.3,Win32,60,0.09537037,-0.269444444,1,0,0,4.049805,scale,,,,,,0.174513954,0.141421356,0.349027907,0.282842712,stimuli/lakes/206072_left.png,stimuli/lakes/206072_right.png,,,,0,111,111,72,1,,,,,
,,,,,,$9559203121,2020-07-08_23h34.14.127,fisher_task,2020.1.3,Win32,60,0.148148148,-0.397222222,1,0,0,3.216415,scale,,,,,,0.326485712,0.264575131,0.21373507,0.173205081,stimuli/lakes/702020_left.png,stimuli/lakes/702020_right.png,,,,0,112,112,20,1,,,,,
,,,,,,$9559203121,2020-07-08_23h34.14.127,fisher_task,2020.1.3,Win32,60,0.141666667,-0.337962963,1,0,0,1.74912,scale,,,,,,0.21373507,0.173205081,0.326485712,0.264575131,stimuli/lakes/302012_left.png,stimuli/lakes/302012_right.png,,,,0,113,113,12,1,,,,,
,,,,,,$9559203121,2020-07-08_23h34.14.127,fisher_task,2020.1.3,Win32,60,-0.090740741,-0.271296296,1,0,0,4.165655,scale,,,,,,0.302267034,0.244948974,0.2468,0.2,stimuli/lakes/605065_left.png,stimuli/lakes/605065_right.png,,,,0,114,114,65,1,,,,,
,,,,,,$9559203121,2020-07-08_23h34.14.127,fisher_task,2020.1.3,Win32,60,0.094444444,-0.27962963,1,0,0,2.849645,scale,,,,,,0.2468,0.2,0.302267034,0.244948974,stimuli/lakes/405064_left.png,stimuli/lakes/405064_right.png,,,,0,115,115,64,1,,,,,
,,,,,,$9559203121,2020-07-08_23h34.14.127,fisher_task,2020.1.3,Win32,60,0.138888889,-0.368518519,1,0,0,2.082995,scale,,,,,,0.275930788,0.223606798,0.275930788,0.223606798,stimuli/lakes/503036_left.png,stimuli/lakes/503036_right.png,,,,0,116,116,36,1,,,,,
,,,,,,$9559203121,2020-07-08_23h34.14.127,fisher_task,2020.1.3,Win32,60,-0.143518519,-0.363888889,1,0,0,3.81615,scale,,,,,,0.2468,0.2,0.302267034,0.244948974,stimuli/lakes/4080112_left.png,stimuli/lakes/4080112_right.png,,,,0,117,117,112,1,,,,,
,,,,,,$9559203121,2020-07-08_23h34.14.127,fisher_task,2020.1.3,Win32,60,-0.166666667,-0.417592593,1,0,0,1.582535,scale,,,,,,0.275930788,0.223606798,0.275930788,0.223606798,stimuli/lakes/5090125_left.png,stimuli/lakes/5090125_right.png,,,,0,118,118,125,1,,,,,
,,,,,,$9559203121,2020-07-08_23h34.14.127,fisher_task,2020.1.3,Win32,60,-0.152777778,-0.397222222,1,0,0,4.8998,scale,,,,,,0.21373507,0.173205081,0.326485712,0.264575131,stimuli/lakes/3070100_left.png,stimuli/lakes/3070100_right.png,,,,0,119,119,100,1,,,,,
,,,,,,$9559203121,2020-07-08_23h34.14.127,fisher_task,2020.1.3,Win32,60,-0.142592593,-0.364814815,1,0,0,7.283195,scale,,,,,,0.3702,0.3,0.1234,0.1,stimuli/lakes/904058_left.png,stimuli/lakes/904058_right.png,,,,0,120,120,58,1,,,,,
,,,,,,$9559203121,2020-07-08_23h34.14.127,fisher_task,2020.1.3,Win32,60,-0.157407407,-0.312962963,1,0,0,2.499595,scale,,,,,,0.326485712,0.264575131,0.21373507,0.173205081,stimuli/lakes/706077_left.png,stimuli/lakes/706077_right.png,,,,0,121,121,77,1,,,,,
,,,,,,$9559203121,2020-07-08_23h34.14.127,fisher_task,2020.1.3,Win32,60,0.144444444,-0.338888889,1,0,0,3.21638,scale,,,,,,0.275930788,0.223606798,0.275930788,0.223606798,stimuli/lakes/503027_left.png,stimuli/lakes/503027_right.png,,,,0,122,122,27,1,,,,,
,,,,,,$9559203121,2020-07-08_23h34.14.127,fisher_task,2020.1.3,Win32,60,0.143518519,-0.353703704,1,0,0,8.316635,scale,,,,,,0.21373507,0.173205081,0.326485712,0.264575131,stimuli/lakes/304052_left.png,stimuli/lakes/304052_right.png,,,,0,123,123,52,1,,,,,
,,,,,,$9559203121,2020-07-08_23h34.14.127,fisher_task,2020.1.3,Win32,60,-0.137037037,-0.366666667,1,0,0,2.36621,scale,,,,,,0.2468,0.2,0.302267034,0.244948974,stimuli/lakes/4070101_left.png,stimuli/lakes/4070101_right.png,,,,0,124,124,101,1,,,,,
,,,,,,$9559203121,2020-07-08_23h34.14.127,fisher_task,2020.1.3,Win32,60,0.081481481,-0.259259259,1,0,0,5.68309,scale,,,,,,0.2468,0.2,0.302267034,0.244948974,stimuli/lakes/405063_left.png,stimuli/lakes/405063_right.png,,,,0,125,125,63,1,,,,,
,,,,,,$9559203121,2020-07-08_23h34.14.127,fisher_task,2020.1.3,Win32,60,-0.065740741,-0.263888889,1,0,0,7.04984,scale,,,,,,0.349027907,0.282842712,0.174513954,0.141421356,stimuli/lakes/803039_left.png,stimuli/lakes/803039_right.png,,,,0,126,126,39,1,,,,,
,,,,,,$9559203121,2020-07-08_23h34.14.127,fisher_task,2020.1.3,Win32,60,0.144444444,-0.37962963,1,0,0,1.74948,scale,,,,,,0.174513954,0.141421356,0.349027907,0.282842712,stimuli/lakes/203033_left.png,stimuli/lakes/203033_right.png,,,,0,127,127,33,1,,,,,
,,,,,,$9559203121,2020-07-08_23h34.14.127,fisher_task,2020.1.3,Win32,60,0.111111111,-0.286111111,1,0,0,2.249555,scale,,,,,,0.275930788,0.223606798,0.275930788,0.223606798,stimuli/lakes/504045_left.png,stimuli/lakes/504045_right.png,,,,0,128,128,45,1,,,,,
,,,,,,$9559203121,2020-07-08_23h34.14.127,fisher_task,2020.1.3,Win32,60,0.089814815,-0.263888889,1,0,0,2.25611,scale,,,,,,0.21373507,0.173205081,0.326485712,0.264575131,stimuli/lakes/305062_left.png,stimuli/lakes/305062_right.png,,,,0,129,129,62,1,,,,,
,,,,,,$9559203121,2020-07-08_23h34.14.127,fisher_task,2020.1.3,Win32,60,,,,,,,,,,,,,,,,,,,,,,,,,,,,space,13.06423,space,75.506235
