keySpace.keys,instructions.thisRepN,instructions.thisTrialN,instructions.thisN,instructions.thisIndex,instructions.ran,participant,date,expName,psychopyVersion,OS,frameRate,mouse.x,mouse.y,mouse.leftButton,mouse.midButton,mouse.rightButton,mouse.time,mouse.clicked_name,training.thisRepN,training.thisTrialN,training.thisN,training.thisIndex,training.ran,widthBasketLeft,heightBasketLeft,widthBasketRight,heightBasketRight,leftLake,rightLake,space2.keys,space2.rt,space1.keys,trials.thisRepN,trials.thisTrialN,trials.thisN,trials.thisIndex,trials.ran,space1.rt,finalSpace1.keys,finalSpace1.rt,finalSpace2.keys,finalSpace2.rt
,0,0,0,0,1,$1801413206,2020-07-11_13h52.33.448,fisher_task,2020.1.3,Win32,60,,,,,,,,,,,,,,,,,,,,,,,,,,,,,,,
,,,,,,$1801413206,2020-07-11_13h52.33.448,fisher_task,2020.1.3,Win32,60,0.154444444,-0.377777778,1,0,0,6.446,scale,0,0,0,0,1,0.275930788,0.223606798,0.275930788,0.223606798,stimuli/training/20_left.png,stimuli/training/20_right.png,,,,,,,,,,,,,
,,,,,,$1801413206,2020-07-11_13h52.33.448,fisher_task,2020.1.3,Win32,60,-0.147777778,-0.416666667,1,0,0,2.082,scale,0,1,1,1,1,0.275930788,0.223606798,0.275930788,0.223606798,stimuli/training/80_left.png,stimuli/training/80_right.png,,,,,,,,,,,,,
,,,,,,$1801413206,2020-07-11_13h52.33.448,fisher_task,2020.1.3,Win32,60,0.157777778,-0.402222222,1,0,0,2.996,scale,0,2,2,2,1,0.174513954,0.141421356,0.349027907,0.282842712,stimuli/training/50_left.png,stimuli/training/50_right.png,,,,,,,,,,,,,
,,,,,,$1801413206,2020-07-11_13h52.33.448,fisher_task,2020.1.3,Win32,60,-0.108888889,-0.296666667,1,0,0,2.365,scale,0,3,3,3,1,0.349027907,0.282842712,0.174513954,0.141421356,stimuli/training/50_left.png,stimuli/training/50_right.png,,,,,,,,,,,,,
,,,,,,$1801413206,2020-07-11_13h52.33.448,fisher_task,2020.1.3,Win32,60,0.018888889,-0.273333333,1,0,0,2.546,scale,0,4,4,4,1,0.275930788,0.223606798,0.275930788,0.223606798,stimuli/training/50_left.png,stimuli/training/50_right.png,,,,,,,,,,,,,
,,,,,,$1801413206,2020-07-11_13h52.33.448,fisher_task,2020.1.3,Win32,60,0.165555556,-0.403333333,1,0,0,1.549,scale,0,5,5,5,1,0.174513954,0.141421356,0.349027907,0.282842712,stimuli/training/20_left.png,stimuli/training/20_right.png,,,,,,,,,,,,,
,,,,,,$1801413206,2020-07-11_13h52.33.448,fisher_task,2020.1.3,Win32,60,-0.165555556,-0.416666667,1,0,0,1.816,scale,0,6,6,6,1,0.349027907,0.282842712,0.174513954,0.141421356,stimuli/training/80_left.png,stimuli/training/80_right.png,,,,,,,,,,,,,
,,,,,,$1801413206,2020-07-11_13h52.33.448,fisher_task,2020.1.3,Win32,60,0.16,-0.418888889,1,0,0,1.382,scale,0,7,7,7,1,0.1234,0.1,0.3702,0.3,stimuli/training/30_left.png,stimuli/training/30_right.png,,,,,,,,,,,,,
,,,,,,$1801413206,2020-07-11_13h52.33.448,fisher_task,2020.1.3,Win32,60,-0.157777778,-0.413333333,1,0,0,1.364,scale,0,8,8,8,1,0.3702,0.3,0.1234,0.1,stimuli/training/70_left.png,stimuli/training/70_right.png,,,,,,,,,,,,,
,,,,,,$1801413206,2020-07-11_13h52.33.448,fisher_task,2020.1.3,Win32,60,-0.158888889,-0.408888889,1,0,0,1.381,scale,0,9,9,9,1,0.326485712,0.264575131,0.21373507,0.173205081,stimuli/training/90_left.png,stimuli/training/90_right.png,,,,,,,,,,,,,
,,,,,,$1801413206,2020-07-11_13h52.33.448,fisher_task,2020.1.3,Win32,60,0.166666667,-0.381111111,1,0,0,1.563,scale,0,10,10,10,1,0.21373507,0.173205081,0.326485712,0.264575131,stimuli/training/10_left.png,stimuli/training/10_right.png,,,,,,,,,,,,,
,,,,,,$1801413206,2020-07-11_13h52.33.448,fisher_task,2020.1.3,Win32,60,0.056666667,-0.267777778,1,0,0,2.346,scale,,,,,,0.174513954,0.141421356,0.349027907,0.282842712,stimuli/lakes/2080108_left.png,stimuli/lakes/2080108_right.png,space,10.171,,0,0,0,108,1,,,,,
,,,,,,$1801413206,2020-07-11_13h52.33.448,fisher_task,2020.1.3,Win32,60,0.031111111,-0.261111111,1,0,0,3.198,scale,,,,,,0.326485712,0.264575131,0.21373507,0.173205081,stimuli/lakes/703038_left.png,stimuli/lakes/703038_right.png,,,,0,1,1,38,1,,,,,
,,,,,,$1801413206,2020-07-11_13h52.33.448,fisher_task,2020.1.3,Win32,60,-0.164444444,-0.402222222,1,0,0,1.782,scale,,,,,,0.275930788,0.223606798,0.275930788,0.223606798,stimuli/lakes/5070102_left.png,stimuli/lakes/5070102_right.png,,,,0,2,2,102,1,,,,,
,,,,,,$1801413206,2020-07-11_13h52.33.448,fisher_task,2020.1.3,Win32,60,-0.132222222,-0.323333333,1,0,0,2.249,scale,,,,,,0.302267034,0.244948974,0.2468,0.2,stimuli/lakes/606076_left.png,stimuli/lakes/606076_right.png,,,,0,3,3,76,1,,,,,
,,,,,,$1801413206,2020-07-11_13h52.33.448,fisher_task,2020.1.3,Win32,60,0.13,-0.342222222,1,0,0,2.864,scale,,,,,,0.174513954,0.141421356,0.349027907,0.282842712,stimuli/lakes/204051_left.png,stimuli/lakes/204051_right.png,,,,0,4,4,51,1,,,,,
,,,,,,$1801413206,2020-07-11_13h52.33.448,fisher_task,2020.1.3,Win32,60,0.033333333,-0.273333333,1,0,0,2.163,scale,,,,,,0.174513954,0.141421356,0.349027907,0.282842712,stimuli/lakes/206072_left.png,stimuli/lakes/206072_right.png,,,,0,5,5,72,1,,,,,
,,,,,,$1801413206,2020-07-11_13h52.33.448,fisher_task,2020.1.3,Win32,60,0.002222222,-0.258888889,1,0,0,3.032,scale,,,,,,0.21373507,0.173205081,0.326485712,0.264575131,stimuli/lakes/3090122_left.png,stimuli/lakes/3090122_right.png,,,,0,6,6,122,1,,,,,
,,,,,,$1801413206,2020-07-11_13h52.33.448,fisher_task,2020.1.3,Win32,60,0.081111111,-0.284444444,1,0,0,3.614,scale,,,,,,0.3702,0.3,0.1234,0.1,stimuli/lakes/903040_left.png,stimuli/lakes/903040_right.png,,,,0,7,7,40,1,,,,,
,,,,,,$1801413206,2020-07-11_13h52.33.448,fisher_task,2020.1.3,Win32,60,-0.147777778,-0.365555556,1,0,0,2.149,scale,,,,,,0.326485712,0.264575131,0.21373507,0.173205081,stimuli/lakes/7090129_left.png,stimuli/lakes/7090129_right.png,,,,0,8,8,129,1,,,,,
,,,,,,$1801413206,2020-07-11_13h52.33.448,fisher_task,2020.1.3,Win32,60,0.038888889,-0.274444444,1,0,0,7.48,scale,,,,,,0.174513954,0.141421356,0.349027907,0.282842712,stimuli/lakes/2090120_left.png,stimuli/lakes/2090120_right.png,,,,0,9,9,120,1,,,,,
,,,,,,$1801413206,2020-07-11_13h52.33.448,fisher_task,2020.1.3,Win32,60,-0.163333333,-0.402222222,1,0,0,3.464,scale,,,,,,0.326485712,0.264575131,0.21373507,0.173205081,stimuli/lakes/7070104_left.png,stimuli/lakes/7070104_right.png,,,,0,10,10,104,1,,,,,
,,,,,,$1801413206,2020-07-11_13h52.33.448,fisher_task,2020.1.3,Win32,60,-0.16,-0.401111111,1,0,0,1.749,scale,,,,,,0.326485712,0.264575131,0.21373507,0.173205081,stimuli/lakes/7080117_left.png,stimuli/lakes/7080117_right.png,,,,0,11,11,117,1,,,,,
,,,,,,$1801413206,2020-07-11_13h52.33.448,fisher_task,2020.1.3,Win32,60,-0.146666667,-0.347777778,1,0,0,1.865,scale,,,,,,0.326485712,0.264575131,0.21373507,0.173205081,stimuli/lakes/706086_left.png,stimuli/lakes/706086_right.png,,,,0,12,12,86,1,,,,,
,,,,,,$1801413206,2020-07-11_13h52.33.448,fisher_task,2020.1.3,Win32,60,-0.035555556,-0.248888889,1,0,0,4.464,scale,,,,,,0.3702,0.3,0.1234,0.1,stimuli/lakes/903031_left.png,stimuli/lakes/903031_right.png,,,,0,13,13,31,1,,,,,
,,,,,,$1801413206,2020-07-11_13h52.33.448,fisher_task,2020.1.3,Win32,60,-0.155555556,-0.346666667,1,0,0,2.216,scale,,,,,,0.302267034,0.244948974,0.2468,0.2,stimuli/lakes/6070103_left.png,stimuli/lakes/6070103_right.png,,,,0,14,14,103,1,,,,,
,,,,,,$1801413206,2020-07-11_13h52.33.448,fisher_task,2020.1.3,Win32,60,0.104444444,-0.293333333,1,0,0,4.647,scale,,,,,,0.2468,0.2,0.302267034,0.244948974,stimuli/lakes/406074_left.png,stimuli/lakes/406074_right.png,,,,0,15,15,74,1,,,,,
,,,,,,$1801413206,2020-07-11_13h52.33.448,fisher_task,2020.1.3,Win32,60,0.037777778,-0.274444444,1,0,0,2.916,scale,,,,,,0.21373507,0.173205081,0.326485712,0.264575131,stimuli/lakes/306073_left.png,stimuli/lakes/306073_right.png,,,,0,16,16,73,1,,,,,
,,,,,,$1801413206,2020-07-11_13h52.33.448,fisher_task,2020.1.3,Win32,60,0.012222222,-0.267777778,1,0,0,2.63,scale,,,,,,0.302267034,0.244948974,0.2468,0.2,stimuli/lakes/604046_left.png,stimuli/lakes/604046_right.png,,,,0,17,17,46,1,,,,,
,,,,,,$1801413206,2020-07-11_13h52.33.448,fisher_task,2020.1.3,Win32,60,0.136666667,-0.324444444,1,0,0,6.113,scale,,,,,,0.21373507,0.173205081,0.326485712,0.264575131,stimuli/lakes/30101_left.png,stimuli/lakes/30101_right.png,,,,0,18,18,1,1,,,,,
,,,,,,$1801413206,2020-07-11_13h52.33.448,fisher_task,2020.1.3,Win32,60,0.074444444,-0.284444444,1,0,0,2.33,scale,,,,,,0.2468,0.2,0.302267034,0.244948974,stimuli/lakes/4080112_left.png,stimuli/lakes/4080112_right.png,,,,0,19,19,112,1,,,,,
,,,,,,$1801413206,2020-07-11_13h52.33.448,fisher_task,2020.1.3,Win32,60,0.138888889,-0.364444444,1,0,0,5.047,scale,,,,,,0.1234,0.1,0.3702,0.3,stimuli/lakes/104041_left.png,stimuli/lakes/104041_right.png,,,,0,20,20,41,1,,,,,
,,,,,,$1801413206,2020-07-11_13h52.33.448,fisher_task,2020.1.3,Win32,60,-0.157777778,-0.373333333,1,0,0,1.695,scale,,,,,,0.302267034,0.244948974,0.2468,0.2,stimuli/lakes/607094_left.png,stimuli/lakes/607094_right.png,,,,0,21,21,94,1,,,,,
,,,,,,$1801413206,2020-07-11_13h52.33.448,fisher_task,2020.1.3,Win32,60,-0.145555556,-0.418888889,1,0,0,2.265,scale,,,,,,0.3702,0.3,0.1234,0.1,stimuli/lakes/906079_left.png,stimuli/lakes/906079_right.png,,,space,0,22,22,79,1,9.551,,,,
,,,,,,$1801413206,2020-07-11_13h52.33.448,fisher_task,2020.1.3,Win32,60,-0.161111111,-0.405555556,1,0,0,1.583,scale,,,,,,0.326485712,0.264575131,0.21373507,0.173205081,stimuli/lakes/705068_left.png,stimuli/lakes/705068_right.png,,,,0,23,23,68,1,,,,,
,,,,,,$1801413206,2020-07-11_13h52.33.448,fisher_task,2020.1.3,Win32,60,0.137777778,-0.362222222,1,0,0,2.18,scale,,,,,,0.2468,0.2,0.302267034,0.244948974,stimuli/lakes/407092_left.png,stimuli/lakes/407092_right.png,,,,0,24,24,92,1,,,,,
,,,,,,$1801413206,2020-07-11_13h52.33.448,fisher_task,2020.1.3,Win32,60,0.163333333,-0.433333333,1,0,0,4.948,scale,,,,,,0.275930788,0.223606798,0.275930788,0.223606798,stimuli/lakes/502016_left.png,stimuli/lakes/502016_right.png,,,,0,25,25,16,1,,,,,
,,,,,,$1801413206,2020-07-11_13h52.33.448,fisher_task,2020.1.3,Win32,60,0.126666667,-0.328888889,1,0,0,2.731,scale,,,,,,0.1234,0.1,0.3702,0.3,stimuli/lakes/1090119_left.png,stimuli/lakes/1090119_right.png,,,,0,26,26,119,1,,,,,
,,,,,,$1801413206,2020-07-11_13h52.33.448,fisher_task,2020.1.3,Win32,60,0.15,-0.39,1,0,0,3.014,scale,,,,,,0.21373507,0.173205081,0.326485712,0.264575131,stimuli/lakes/304043_left.png,stimuli/lakes/304043_right.png,,,,0,27,27,43,1,,,,,
,,,,,,$1801413206,2020-07-11_13h52.33.448,fisher_task,2020.1.3,Win32,60,0.111111111,-0.295555556,1,0,0,6.464,scale,,,,,,0.2468,0.2,0.302267034,0.244948974,stimuli/lakes/404044_left.png,stimuli/lakes/404044_right.png,,,,0,28,28,44,1,,,,,
,,,,,,$1801413206,2020-07-11_13h52.33.448,fisher_task,2020.1.3,Win32,60,0.152222222,-0.416666667,1,0,0,4.045,scale,,,,,,0.275930788,0.223606798,0.275930788,0.223606798,stimuli/lakes/504054_left.png,stimuli/lakes/504054_right.png,,,,0,29,29,54,1,,,,,
,,,,,,$1801413206,2020-07-11_13h52.33.448,fisher_task,2020.1.3,Win32,60,-0.157777778,-0.413333333,1,0,0,2.38,scale,,,,,,0.302267034,0.244948974,0.2468,0.2,stimuli/lakes/6080115_left.png,stimuli/lakes/6080115_right.png,,,,0,30,30,115,1,,,,,
,,,,,,$1801413206,2020-07-11_13h52.33.448,fisher_task,2020.1.3,Win32,60,0.157777778,-0.422222222,1,0,0,2.114,scale,,,,,,0.1234,0.1,0.3702,0.3,stimuli/lakes/105059_left.png,stimuli/lakes/105059_right.png,,,,0,31,31,59,1,,,,,
,,,,,,$1801413206,2020-07-11_13h52.33.448,fisher_task,2020.1.3,Win32,60,0.155555556,-0.421111111,1,0,0,1.964,scale,,,,,,0.275930788,0.223606798,0.275930788,0.223606798,stimuli/lakes/50104_left.png,stimuli/lakes/50104_right.png,,,,0,32,32,4,1,,,,,
,,,,,,$1801413206,2020-07-11_13h52.33.448,fisher_task,2020.1.3,Win32,60,0.146666667,-0.371111111,1,0,0,3.582,scale,,,,,,0.2468,0.2,0.302267034,0.244948974,stimuli/lakes/404053_left.png,stimuli/lakes/404053_right.png,,,,0,33,33,53,1,,,,,
,,,,,,$1801413206,2020-07-11_13h52.33.448,fisher_task,2020.1.3,Win32,60,-0.116666667,-0.312222222,1,0,0,3.597,scale,,,,,,0.326485712,0.264575131,0.21373507,0.173205081,stimuli/lakes/70107_left.png,stimuli/lakes/70107_right.png,,,,0,34,34,7,1,,,,,
,,,,,,$1801413206,2020-07-11_13h52.33.448,fisher_task,2020.1.3,Win32,60,0.116666667,-0.307777778,1,0,0,4.78,scale,,,,,,0.2468,0.2,0.302267034,0.244948974,stimuli/lakes/405064_left.png,stimuli/lakes/405064_right.png,,,,0,35,35,64,1,,,,,
,,,,,,$1801413206,2020-07-11_13h52.33.448,fisher_task,2020.1.3,Win32,60,0.153333333,-0.391111111,1,0,0,2.165,scale,,,,,,0.2468,0.2,0.302267034,0.244948974,stimuli/lakes/403035_left.png,stimuli/lakes/403035_right.png,,,,0,36,36,35,1,,,,,
,,,,,,$1801413206,2020-07-11_13h52.33.448,fisher_task,2020.1.3,Win32,60,0.073333333,-0.294444444,1,0,0,3.881,scale,,,,,,0.21373507,0.173205081,0.326485712,0.264575131,stimuli/lakes/3080110_left.png,stimuli/lakes/3080110_right.png,,,,0,37,37,110,1,,,,,
,,,,,,$1801413206,2020-07-11_13h52.33.448,fisher_task,2020.1.3,Win32,60,0.155555556,-0.39,1,0,0,4.63,scale,,,,,,0.174513954,0.141421356,0.349027907,0.282842712,stimuli/lakes/202011_left.png,stimuli/lakes/202011_right.png,,,,0,38,38,11,1,,,,,
,,,,,,$1801413206,2020-07-11_13h52.33.448,fisher_task,2020.1.3,Win32,60,0.155555556,-0.39,1,0,0,0.899,scale,,,,,,0.2468,0.2,0.302267034,0.244948974,stimuli/lakes/402015_left.png,stimuli/lakes/402015_right.png,,,,0,39,39,15,1,,,,,
,,,,,,$1801413206,2020-07-11_13h52.33.448,fisher_task,2020.1.3,Win32,60,-0.143333333,-0.323333333,1,0,0,2.381,scale,,,,,,0.302267034,0.244948974,0.2468,0.2,stimuli/lakes/604055_left.png,stimuli/lakes/604055_right.png,,,,0,40,40,55,1,,,,,
,,,,,,$1801413206,2020-07-11_13h52.33.448,fisher_task,2020.1.3,Win32,60,-0.126666667,-0.305555556,1,0,0,2.998,scale,,,,,,0.2468,0.2,0.302267034,0.244948974,stimuli/lakes/4070101_left.png,stimuli/lakes/4070101_right.png,,,,0,41,41,101,1,,,,,
,,,,,,$1801413206,2020-07-11_13h52.33.448,fisher_task,2020.1.3,Win32,60,0.145555556,-0.338888889,1,0,0,4.996,scale,,,,,,0.2468,0.2,0.302267034,0.244948974,stimuli/lakes/405063_left.png,stimuli/lakes/405063_right.png,,,,0,42,42,63,1,,,,,
,,,,,,$1801413206,2020-07-11_13h52.33.448,fisher_task,2020.1.3,Win32,60,-0.113333333,-0.286666667,1,0,0,2.233,scale,,,,,,0.302267034,0.244948974,0.2468,0.2,stimuli/lakes/603028_left.png,stimuli/lakes/603028_right.png,,,,0,43,43,28,1,,,,,
,,,,,,$1801413206,2020-07-11_13h52.33.448,fisher_task,2020.1.3,Win32,60,0.157777778,-0.418888889,1,0,0,1.88,scale,,,,,,0.21373507,0.173205081,0.326485712,0.264575131,stimuli/lakes/303034_left.png,stimuli/lakes/303034_right.png,,,space,0,44,44,34,1,3.021,,,,
,,,,,,$1801413206,2020-07-11_13h52.33.448,fisher_task,2020.1.3,Win32,60,0.156666667,-0.421111111,1,0,0,1.398,scale,,,,,,0.2468,0.2,0.302267034,0.244948974,stimuli/lakes/402014_left.png,stimuli/lakes/402014_right.png,,,,0,45,45,14,1,,,,,
,,,,,,$1801413206,2020-07-11_13h52.33.448,fisher_task,2020.1.3,Win32,60,-0.154444444,-0.406666667,1,0,0,1.431,scale,,,,,,0.302267034,0.244948974,0.2468,0.2,stimuli/lakes/6090126_left.png,stimuli/lakes/6090126_right.png,,,,0,46,46,126,1,,,,,
,,,,,,$1801413206,2020-07-11_13h52.33.448,fisher_task,2020.1.3,Win32,60,-0.104444444,-0.267777778,1,0,0,7.047,scale,,,,,,0.3702,0.3,0.1234,0.1,stimuli/lakes/902022_left.png,stimuli/lakes/902022_right.png,,,,0,47,47,22,1,,,,,
,,,,,,$1801413206,2020-07-11_13h52.33.448,fisher_task,2020.1.3,Win32,60,0.091111111,-0.262222222,1,0,0,3.365,scale,,,,,,0.2468,0.2,0.302267034,0.244948974,stimuli/lakes/406083_left.png,stimuli/lakes/406083_right.png,,,,0,48,48,83,1,,,,,
,,,,,,$1801413206,2020-07-11_13h52.33.448,fisher_task,2020.1.3,Win32,60,0.157777778,-0.42,1,0,0,1.783,scale,,,,,,0.21373507,0.173205081,0.326485712,0.264575131,stimuli/lakes/30100_left.png,stimuli/lakes/30100_right.png,,,,0,49,49,0,1,,,,,
,,,,,,$1801413206,2020-07-11_13h52.33.448,fisher_task,2020.1.3,Win32,60,-0.142222222,-0.338888889,1,0,0,2.266,scale,,,,,,0.3702,0.3,0.1234,0.1,stimuli/lakes/904049_left.png,stimuli/lakes/904049_right.png,,,,0,50,50,49,1,,,,,
,,,,,,$1801413206,2020-07-11_13h52.33.448,fisher_task,2020.1.3,Win32,60,0.114444444,-0.29,1,0,0,2.464,scale,,,,,,0.21373507,0.173205081,0.326485712,0.264575131,stimuli/lakes/3080109_left.png,stimuli/lakes/3080109_right.png,,,,0,51,51,109,1,,,,,
,,,,,,$1801413206,2020-07-11_13h52.33.448,fisher_task,2020.1.3,Win32,60,-0.001111111,-0.255555556,1,0,0,5.446,scale,,,,,,0.349027907,0.282842712,0.174513954,0.141421356,stimuli/lakes/80109_left.png,stimuli/lakes/80109_right.png,,,,0,52,52,9,1,,,,,
,,,,,,$1801413206,2020-07-11_13h52.33.448,fisher_task,2020.1.3,Win32,60,0.066666667,-0.27,1,0,0,3.081,scale,,,,,,0.275930788,0.223606798,0.275930788,0.223606798,stimuli/lakes/504045_left.png,stimuli/lakes/504045_right.png,,,,0,53,53,45,1,,,,,
,,,,,,$1801413206,2020-07-11_13h52.33.448,fisher_task,2020.1.3,Win32,60,-0.002222222,-0.26,1,0,0,2.498,scale,,,,,,0.2468,0.2,0.302267034,0.244948974,stimuli/lakes/4090123_left.png,stimuli/lakes/4090123_right.png,,,,0,54,54,123,1,,,,,
,,,,,,$1801413206,2020-07-11_13h52.33.448,fisher_task,2020.1.3,Win32,60,-0.114444444,-0.305555556,1,0,0,2.447,scale,,,,,,0.349027907,0.282842712,0.174513954,0.141421356,stimuli/lakes/805069_left.png,stimuli/lakes/805069_right.png,,,,0,55,55,69,1,,,,,
,,,,,,$1801413206,2020-07-11_13h52.33.448,fisher_task,2020.1.3,Win32,60,-0.022222222,-0.242222222,1,0,0,4.082,scale,,,,,,0.302267034,0.244948974,0.2468,0.2,stimuli/lakes/60106_left.png,stimuli/lakes/60106_right.png,,,,0,56,56,6,1,,,,,
,,,,,,$1801413206,2020-07-11_13h52.33.448,fisher_task,2020.1.3,Win32,60,-0.032222222,-0.242222222,1,0,0,2.847,scale,,,,,,0.349027907,0.282842712,0.174513954,0.141421356,stimuli/lakes/802021_left.png,stimuli/lakes/802021_right.png,,,,0,57,57,21,1,,,,,
,,,,,,$1801413206,2020-07-11_13h52.33.448,fisher_task,2020.1.3,Win32,60,-0.165555556,-0.425555556,1,0,0,2.179,scale,,,,,,0.302267034,0.244948974,0.2468,0.2,stimuli/lakes/6080114_left.png,stimuli/lakes/6080114_right.png,,,,0,58,58,114,1,,,,,
,,,,,,$1801413206,2020-07-11_13h52.33.448,fisher_task,2020.1.3,Win32,60,-0.16,-0.42,1,0,0,1.599,scale,,,,,,0.349027907,0.282842712,0.174513954,0.141421356,stimuli/lakes/8070105_left.png,stimuli/lakes/8070105_right.png,,,,0,59,59,105,1,,,,,
,,,,,,$1801413206,2020-07-11_13h52.33.448,fisher_task,2020.1.3,Win32,60,-0.154444444,-0.41,1,0,0,1.398,scale,,,,,,0.3702,0.3,0.1234,0.1,stimuli/lakes/9070106_left.png,stimuli/lakes/9070106_right.png,,,,0,60,60,106,1,,,,,
,,,,,,$1801413206,2020-07-11_13h52.33.448,fisher_task,2020.1.3,Win32,60,0.127777778,-0.321111111,1,0,0,3.313,scale,,,,,,0.21373507,0.173205081,0.326485712,0.264575131,stimuli/lakes/3070100_left.png,stimuli/lakes/3070100_right.png,,,,0,61,61,100,1,,,,,
,,,,,,$1801413206,2020-07-11_13h52.33.448,fisher_task,2020.1.3,Win32,60,-0.09,-0.294444444,1,0,0,3.731,scale,,,,,,0.349027907,0.282842712,0.174513954,0.141421356,stimuli/lakes/803030_left.png,stimuli/lakes/803030_right.png,,,,0,62,62,30,1,,,,,
,,,,,,$1801413206,2020-07-11_13h52.33.448,fisher_task,2020.1.3,Win32,60,0.162222222,-0.411111111,1,0,0,1.531,scale,,,,,,0.21373507,0.173205081,0.326485712,0.264575131,stimuli/lakes/302012_left.png,stimuli/lakes/302012_right.png,,,,0,63,63,12,1,,,,,
,,,,,,$1801413206,2020-07-11_13h52.33.448,fisher_task,2020.1.3,Win32,60,-0.145555556,-0.364444444,1,0,0,2.43,scale,,,,,,0.302267034,0.244948974,0.2468,0.2,stimuli/lakes/605066_left.png,stimuli/lakes/605066_right.png,,,,0,64,64,66,1,,,,,
,,,,,,$1801413206,2020-07-11_13h52.33.448,fisher_task,2020.1.3,Win32,60,0.154444444,-0.426666667,1,0,0,2.765,scale,,,,,,0.2468,0.2,0.302267034,0.244948974,stimuli/lakes/40102_left.png,stimuli/lakes/40102_right.png,,,,0,65,65,2,1,,,,,
,,,,,,$1801413206,2020-07-11_13h52.33.448,fisher_task,2020.1.3,Win32,60,-0.157777778,-0.43,1,0,0,1.581,scale,,,,,,0.326485712,0.264575131,0.21373507,0.173205081,stimuli/lakes/7090128_left.png,stimuli/lakes/7090128_right.png,,,space,0,66,66,128,1,6.475,,,,
,,,,,,$1801413206,2020-07-11_13h52.33.448,fisher_task,2020.1.3,Win32,60,0.164444444,-0.396666667,1,0,0,1.563,scale,,,,,,0.174513954,0.141421356,0.349027907,0.282842712,stimuli/lakes/205060_left.png,stimuli/lakes/205060_right.png,,,,0,67,67,60,1,,,,,
,,,,,,$1801413206,2020-07-11_13h52.33.448,fisher_task,2020.1.3,Win32,60,-0.13,-0.331111111,1,0,0,2.548,scale,,,,,,0.302267034,0.244948974,0.2468,0.2,stimuli/lakes/603037_left.png,stimuli/lakes/603037_right.png,,,,0,68,68,37,1,,,,,
,,,,,,$1801413206,2020-07-11_13h52.33.448,fisher_task,2020.1.3,Win32,60,-0.157777778,-0.424444444,1,0,0,3.681,scale,,,,,,0.275930788,0.223606798,0.275930788,0.223606798,stimuli/lakes/5090125_left.png,stimuli/lakes/5090125_right.png,,,,0,69,69,125,1,,,,,
,,,,,,$1801413206,2020-07-11_13h52.33.448,fisher_task,2020.1.3,Win32,60,0.12,-0.306666667,1,0,0,3.048,scale,,,,,,0.174513954,0.141421356,0.349027907,0.282842712,stimuli/lakes/206081_left.png,stimuli/lakes/206081_right.png,,,,0,70,70,81,1,,,,,
,,,,,,$1801413206,2020-07-11_13h52.33.448,fisher_task,2020.1.3,Win32,60,-0.162222222,-0.43,1,0,0,1.531,scale,,,,,,0.326485712,0.264575131,0.21373507,0.173205081,stimuli/lakes/7080116_left.png,stimuli/lakes/7080116_right.png,,,,0,71,71,116,1,,,,,
,,,,,,$1801413206,2020-07-11_13h52.33.448,fisher_task,2020.1.3,Win32,60,-0.155555556,-0.385555556,1,0,0,2.482,scale,,,,,,0.3702,0.3,0.1234,0.1,stimuli/lakes/905070_left.png,stimuli/lakes/905070_right.png,,,,0,72,72,70,1,,,,,
,,,,,,$1801413206,2020-07-11_13h52.33.448,fisher_task,2020.1.3,Win32,60,-0.142222222,-0.348888889,1,0,0,5.747,scale,,,,,,0.326485712,0.264575131,0.21373507,0.173205081,stimuli/lakes/704056_left.png,stimuli/lakes/704056_right.png,,,,0,73,73,56,1,,,,,
,,,,,,$1801413206,2020-07-11_13h52.33.448,fisher_task,2020.1.3,Win32,60,0.154444444,-0.403333333,1,0,0,2.748,scale,,,,,,0.2468,0.2,0.302267034,0.244948974,stimuli/lakes/40103_left.png,stimuli/lakes/40103_right.png,,,,0,74,74,3,1,,,,,
,,,,,,$1801413206,2020-07-11_13h52.33.448,fisher_task,2020.1.3,Win32,60,0.161111111,-0.426666667,1,0,0,2.448,scale,,,,,,0.1234,0.1,0.3702,0.3,stimuli/lakes/104050_left.png,stimuli/lakes/104050_right.png,,,,0,75,75,50,1,,,,,
,,,,,,$1801413206,2020-07-11_13h52.33.448,fisher_task,2020.1.3,Win32,60,0.147777778,-0.368888889,1,0,0,2.165,scale,,,,,,0.174513954,0.141421356,0.349027907,0.282842712,stimuli/lakes/207099_left.png,stimuli/lakes/207099_right.png,,,,0,76,76,99,1,,,,,
,,,,,,$1801413206,2020-07-11_13h52.33.448,fisher_task,2020.1.3,Win32,60,0.132222222,-0.337777778,1,0,0,2.849,scale,,,,,,0.21373507,0.173205081,0.326485712,0.264575131,stimuli/lakes/306082_left.png,stimuli/lakes/306082_right.png,,,,0,77,77,82,1,,,,,
,,,,,,$1801413206,2020-07-11_13h52.33.448,fisher_task,2020.1.3,Win32,60,-0.075555556,-0.265555556,1,0,0,2.549,scale,,,,,,0.326485712,0.264575131,0.21373507,0.173205081,stimuli/lakes/70108_left.png,stimuli/lakes/70108_right.png,,,,0,78,78,8,1,,,,,
,,,,,,$1801413206,2020-07-11_13h52.33.448,fisher_task,2020.1.3,Win32,60,-0.107777778,-0.294444444,1,0,0,2.866,scale,,,,,,0.326485712,0.264575131,0.21373507,0.173205081,stimuli/lakes/703029_left.png,stimuli/lakes/703029_right.png,,,,0,79,79,29,1,,,,,
,,,,,,$1801413206,2020-07-11_13h52.33.448,fisher_task,2020.1.3,Win32,60,0.163333333,-0.415555556,1,0,0,1.663,scale,,,,,,0.1234,0.1,0.3702,0.3,stimuli/lakes/103032_left.png,stimuli/lakes/103032_right.png,,,,0,80,80,32,1,,,,,
,,,,,,$1801413206,2020-07-11_13h52.33.448,fisher_task,2020.1.3,Win32,60,0.162222222,-0.421111111,1,0,0,1.362,scale,,,,,,0.174513954,0.141421356,0.349027907,0.282842712,stimuli/lakes/204042_left.png,stimuli/lakes/204042_right.png,,,,0,81,81,42,1,,,,,
,,,,,,$1801413206,2020-07-11_13h52.33.448,fisher_task,2020.1.3,Win32,60,-0.137777778,-0.343333333,1,0,0,2.282,scale,,,,,,0.349027907,0.282842712,0.174513954,0.141421356,stimuli/lakes/804057_left.png,stimuli/lakes/804057_right.png,,,,0,82,82,57,1,,,,,
,,,,,,$1801413206,2020-07-11_13h52.33.448,fisher_task,2020.1.3,Win32,60,-0.108888889,-0.306666667,1,0,0,3.797,scale,,,,,,0.326485712,0.264575131,0.21373507,0.173205081,stimuli/lakes/702020_left.png,stimuli/lakes/702020_right.png,,,,0,83,83,20,1,,,,,
,,,,,,$1801413206,2020-07-11_13h52.33.448,fisher_task,2020.1.3,Win32,60,0.162222222,-0.42,1,0,0,1.432,scale,,,,,,0.21373507,0.173205081,0.326485712,0.264575131,stimuli/lakes/302013_left.png,stimuli/lakes/302013_right.png,,,,0,84,84,13,1,,,,,
,,,,,,$1801413206,2020-07-11_13h52.33.448,fisher_task,2020.1.3,Win32,60,0.162222222,-0.42,1,0,0,1.899,scale,,,,,,0.21373507,0.173205081,0.326485712,0.264575131,stimuli/lakes/304052_left.png,stimuli/lakes/304052_right.png,,,,0,85,85,52,1,,,,,
,,,,,,$1801413206,2020-07-11_13h52.33.448,fisher_task,2020.1.3,Win32,60,0.007777778,-0.26,1,0,0,6.781,scale,,,,,,0.302267034,0.244948974,0.2468,0.2,stimuli/lakes/6090127_left.png,stimuli/lakes/6090127_right.png,,,,0,86,86,127,1,,,,,
,,,,,,$1801413206,2020-07-11_13h52.33.448,fisher_task,2020.1.3,Win32,60,-0.124444444,-0.338888889,1,0,0,2.886,scale,,,,,,0.275930788,0.223606798,0.275930788,0.223606798,stimuli/lakes/507093_left.png,stimuli/lakes/507093_right.png,,,,0,87,87,93,1,,,,,
,,,,,,$1801413206,2020-07-11_13h52.33.448,fisher_task,2020.1.3,Win32,60,0.062222222,-0.261111111,1,0,0,10.412,scale,,,,,,0.302267034,0.244948974,0.2468,0.2,stimuli/lakes/60105_left.png,stimuli/lakes/60105_right.png,,,space,0,88,88,5,1,58.42,,,,
,,,,,,$1801413206,2020-07-11_13h52.33.448,fisher_task,2020.1.3,Win32,60,0.135555556,-0.343333333,1,0,0,3.198,scale,,,,,,0.174513954,0.141421356,0.349027907,0.282842712,stimuli/lakes/203024_left.png,stimuli/lakes/203024_right.png,,,,0,89,89,24,1,,,,,
,,,,,,$1801413206,2020-07-11_13h52.33.448,fisher_task,2020.1.3,Win32,60,-0.102222222,-0.287777778,1,0,0,2.364,scale,,,,,,0.302267034,0.244948974,0.2468,0.2,stimuli/lakes/606085_left.png,stimuli/lakes/606085_right.png,,,,0,90,90,85,1,,,,,
,,,,,,$1801413206,2020-07-11_13h52.33.448,fisher_task,2020.1.3,Win32,60,-0.156666667,-0.422222222,1,0,0,1.465,scale,,,,,,0.3702,0.3,0.1234,0.1,stimuli/lakes/907097_left.png,stimuli/lakes/907097_right.png,,,,0,91,91,97,1,,,,,
,,,,,,$1801413206,2020-07-11_13h52.33.448,fisher_task,2020.1.3,Win32,60,0.166666667,-0.407777778,1,0,0,1.865,scale,,,,,,0.1234,0.1,0.3702,0.3,stimuli/lakes/106080_left.png,stimuli/lakes/106080_right.png,,,,0,92,92,80,1,,,,,
,,,,,,$1801413206,2020-07-11_13h52.33.448,fisher_task,2020.1.3,Win32,60,-0.155555556,-0.386666667,1,0,0,2.464,scale,,,,,,0.349027907,0.282842712,0.174513954,0.141421356,stimuli/lakes/806087_left.png,stimuli/lakes/806087_right.png,,,,0,93,93,87,1,,,,,
,,,,,,$1801413206,2020-07-11_13h52.33.448,fisher_task,2020.1.3,Win32,60,0.103333333,-0.296666667,1,0,0,2.847,scale,,,,,,0.302267034,0.244948974,0.2468,0.2,stimuli/lakes/602017_left.png,stimuli/lakes/602017_right.png,,,,0,94,94,17,1,,,,,
,,,,,,$1801413206,2020-07-11_13h52.33.448,fisher_task,2020.1.3,Win32,60,0.16,-0.427777778,1,0,0,2.379,scale,,,,,,0.275930788,0.223606798,0.275930788,0.223606798,stimuli/lakes/503027_left.png,stimuli/lakes/503027_right.png,,,,0,95,95,27,1,,,,,
,,,,,,$1801413206,2020-07-11_13h52.33.448,fisher_task,2020.1.3,Win32,60,-0.153333333,-0.364444444,1,0,0,4.626,scale,,,,,,0.3702,0.3,0.1234,0.1,stimuli/lakes/904058_left.png,stimuli/lakes/904058_right.png,,,,0,96,96,58,1,,,,,
,,,,,,$1801413206,2020-07-11_13h52.33.448,fisher_task,2020.1.3,Win32,60,-0.155555556,-0.408888889,1,0,0,1.633,scale,,,,,,0.3702,0.3,0.1234,0.1,stimuli/lakes/906088_left.png,stimuli/lakes/906088_right.png,,,,0,97,97,88,1,,,,,
,,,,,,$1801413206,2020-07-11_13h52.33.448,fisher_task,2020.1.3,Win32,60,-0.155555556,-0.408888889,1,0,0,1.107,scale,,,,,,0.349027907,0.282842712,0.174513954,0.141421356,stimuli/lakes/807096_left.png,stimuli/lakes/807096_right.png,,,,0,98,98,96,1,,,,,
,,,,,,$1801413206,2020-07-11_13h52.33.448,fisher_task,2020.1.3,Win32,60,0.156666667,-0.407777778,1,0,0,1.831,scale,,,,,,0.174513954,0.141421356,0.349027907,0.282842712,stimuli/lakes/203033_left.png,stimuli/lakes/203033_right.png,,,,0,99,99,33,1,,,,,
,,,,,,$1801413206,2020-07-11_13h52.33.448,fisher_task,2020.1.3,Win32,60,0.15,-0.391111111,1,0,0,1.498,scale,,,,,,0.21373507,0.173205081,0.326485712,0.264575131,stimuli/lakes/303025_left.png,stimuli/lakes/303025_right.png,,,,0,100,100,25,1,,,,,
,,,,,,$1801413206,2020-07-11_13h52.33.448,fisher_task,2020.1.3,Win32,60,0.082222222,-0.282222222,1,0,0,3.4,scale,,,,,,0.302267034,0.244948974,0.2468,0.2,stimuli/lakes/602018_left.png,stimuli/lakes/602018_right.png,,,,0,101,101,18,1,,,,,
,,,,,,$1801413206,2020-07-11_13h52.33.448,fisher_task,2020.1.3,Win32,60,0.067777778,-0.271111111,1,0,0,4.365,scale,,,,,,0.326485712,0.264575131,0.21373507,0.173205081,stimuli/lakes/702019_left.png,stimuli/lakes/702019_right.png,,,,0,102,102,19,1,,,,,
,,,,,,$1801413206,2020-07-11_13h52.33.448,fisher_task,2020.1.3,Win32,60,-0.155555556,-0.416666667,1,0,0,2.882,scale,,,,,,0.349027907,0.282842712,0.174513954,0.141421356,stimuli/lakes/8080118_left.png,stimuli/lakes/8080118_right.png,,,,0,103,103,118,1,,,,,
,,,,,,$1801413206,2020-07-11_13h52.33.448,fisher_task,2020.1.3,Win32,60,-0.091111111,-0.276666667,1,0,0,3.715,scale,,,,,,0.21373507,0.173205081,0.326485712,0.264575131,stimuli/lakes/3090121_left.png,stimuli/lakes/3090121_right.png,,,,0,104,104,121,1,,,,,
,,,,,,$1801413206,2020-07-11_13h52.33.448,fisher_task,2020.1.3,Win32,60,0.081111111,-0.278888889,1,0,0,2.482,scale,,,,,,0.1234,0.1,0.3702,0.3,stimuli/lakes/107089_left.png,stimuli/lakes/107089_right.png,,,,0,105,105,89,1,,,,,
,,,,,,$1801413206,2020-07-11_13h52.33.448,fisher_task,2020.1.3,Win32,60,-0.154444444,-0.39,1,0,0,2.75,scale,,,,,,0.275930788,0.223606798,0.275930788,0.223606798,stimuli/lakes/506084_left.png,stimuli/lakes/506084_right.png,,,,0,106,106,84,1,,,,,
,,,,,,$1801413206,2020-07-11_13h52.33.448,fisher_task,2020.1.3,Win32,60,-0.13,-0.328888889,1,0,0,4.465,scale,,,,,,0.326485712,0.264575131,0.21373507,0.173205081,stimuli/lakes/705067_left.png,stimuli/lakes/705067_right.png,,,,0,107,107,67,1,,,,,
,,,,,,$1801413206,2020-07-11_13h52.33.448,fisher_task,2020.1.3,Win32,60,0.083333333,-0.278888889,1,0,0,3.381,scale,,,,,,0.3702,0.3,0.1234,0.1,stimuli/lakes/901010_left.png,stimuli/lakes/901010_right.png,,,,0,108,108,10,1,,,,,
,,,,,,$1801413206,2020-07-11_13h52.33.448,fisher_task,2020.1.3,Win32,60,-0.094444444,-0.276666667,1,0,0,2.631,scale,,,,,,0.21373507,0.173205081,0.326485712,0.264575131,stimuli/lakes/307091_left.png,stimuli/lakes/307091_right.png,,,,0,109,109,91,1,,,,,
,,,,,,$1801413206,2020-07-11_13h52.33.448,fisher_task,2020.1.3,Win32,60,0.104444444,-0.288888889,1,0,0,2.398,scale,,,,,,0.174513954,0.141421356,0.349027907,0.282842712,stimuli/lakes/207090_left.png,stimuli/lakes/207090_right.png,,,space,0,110,110,90,1,3.254,,,,
,,,,,,$1801413206,2020-07-11_13h52.33.448,fisher_task,2020.1.3,Win32,60,0.141111111,-0.348888889,1,0,0,1.9,scale,,,,,,0.275930788,0.223606798,0.275930788,0.223606798,stimuli/lakes/503036_left.png,stimuli/lakes/503036_right.png,,,,0,111,111,36,1,,,,,
,,,,,,$1801413206,2020-07-11_13h52.33.448,fisher_task,2020.1.3,Win32,60,-0.112222222,-0.302222222,1,0,0,3.098,scale,,,,,,0.2468,0.2,0.302267034,0.244948974,stimuli/lakes/4080111_left.png,stimuli/lakes/4080111_right.png,,,,0,112,112,111,1,,,,,
,,,,,,$1801413206,2020-07-11_13h52.33.448,fisher_task,2020.1.3,Win32,60,-0.143333333,-0.35,1,0,0,2.982,scale,,,,,,0.2468,0.2,0.302267034,0.244948974,stimuli/lakes/4090124_left.png,stimuli/lakes/4090124_right.png,,,,0,113,113,124,1,,,,,
,,,,,,$1801413206,2020-07-11_13h52.33.448,fisher_task,2020.1.3,Win32,60,-0.13,-0.316666667,1,0,0,3.864,scale,,,,,,0.326485712,0.264575131,0.21373507,0.173205081,stimuli/lakes/704047_left.png,stimuli/lakes/704047_right.png,,,,0,114,114,47,1,,,,,
,,,,,,$1801413206,2020-07-11_13h52.33.448,fisher_task,2020.1.3,Win32,60,-0.147777778,-0.365555556,1,0,0,1.531,scale,,,,,,0.349027907,0.282842712,0.174513954,0.141421356,stimuli/lakes/806078_left.png,stimuli/lakes/806078_right.png,,,,0,115,115,78,1,,,,,
,,,,,,$1801413206,2020-07-11_13h52.33.448,fisher_task,2020.1.3,Win32,60,0.133333333,-0.341111111,1,0,0,5.514,scale,,,,,,0.21373507,0.173205081,0.326485712,0.264575131,stimuli/lakes/305061_left.png,stimuli/lakes/305061_right.png,,,,0,116,116,61,1,,,,,
,,,,,,$1801413206,2020-07-11_13h52.33.448,fisher_task,2020.1.3,Win32,60,0.135555556,-0.337777778,1,0,0,2.065,scale,,,,,,0.2468,0.2,0.302267034,0.244948974,stimuli/lakes/403026_left.png,stimuli/lakes/403026_right.png,,,,0,117,117,26,1,,,,,
,,,,,,$1801413206,2020-07-11_13h52.33.448,fisher_task,2020.1.3,Win32,60,0.15,-0.393333333,1,0,0,1.966,scale,,,,,,0.1234,0.1,0.3702,0.3,stimuli/lakes/106071_left.png,stimuli/lakes/106071_right.png,,,,0,118,118,71,1,,,,,
,,,,,,$1801413206,2020-07-11_13h52.33.448,fisher_task,2020.1.3,Win32,60,-0.165555556,-0.392222222,1,0,0,2.03,scale,,,,,,0.326485712,0.264575131,0.21373507,0.173205081,stimuli/lakes/706077_left.png,stimuli/lakes/706077_right.png,,,,0,119,119,77,1,,,,,
,,,,,,$1801413206,2020-07-11_13h52.33.448,fisher_task,2020.1.3,Win32,60,-0.152222222,-0.384444444,1,0,0,3.264,scale,,,,,,0.302267034,0.244948974,0.2468,0.2,stimuli/lakes/605065_left.png,stimuli/lakes/605065_right.png,,,,0,120,120,65,1,,,,,
,,,,,,$1801413206,2020-07-11_13h52.33.448,fisher_task,2020.1.3,Win32,60,-0.128888889,-0.321111111,1,0,0,1.948,scale,,,,,,0.349027907,0.282842712,0.174513954,0.141421356,stimuli/lakes/804048_left.png,stimuli/lakes/804048_right.png,,,,0,121,121,48,1,,,,,
,,,,,,$1801413206,2020-07-11_13h52.33.448,fisher_task,2020.1.3,Win32,60,0.141111111,-0.348888889,1,0,0,2.048,scale,,,,,,0.21373507,0.173205081,0.326485712,0.264575131,stimuli/lakes/305062_left.png,stimuli/lakes/305062_right.png,,,,0,122,122,62,1,,,,,
,,,,,,$1801413206,2020-07-11_13h52.33.448,fisher_task,2020.1.3,Win32,60,-0.147777778,-0.378888889,1,0,0,4.398,scale,,,,,,0.275930788,0.223606798,0.275930788,0.223606798,stimuli/lakes/5080113_left.png,stimuli/lakes/5080113_right.png,,,,0,123,123,113,1,,,,,
,,,,,,$1801413206,2020-07-11_13h52.33.448,fisher_task,2020.1.3,Win32,60,-0.146666667,-0.366666667,1,0,0,5.097,scale,,,,,,0.326485712,0.264575131,0.21373507,0.173205081,stimuli/lakes/707095_left.png,stimuli/lakes/707095_right.png,,,,0,124,124,95,1,,,,,
,,,,,,$1801413206,2020-07-11_13h52.33.448,fisher_task,2020.1.3,Win32,60,-0.156666667,-0.404444444,1,0,0,2.346,scale,,,,,,0.275930788,0.223606798,0.275930788,0.223606798,stimuli/lakes/506075_left.png,stimuli/lakes/506075_right.png,,,,0,125,125,75,1,,,,,
,,,,,,$1801413206,2020-07-11_13h52.33.448,fisher_task,2020.1.3,Win32,60,0.117777778,-0.314444444,1,0,0,2.65,scale,,,,,,0.1234,0.1,0.3702,0.3,stimuli/lakes/107098_left.png,stimuli/lakes/107098_right.png,,,,0,126,126,98,1,,,,,
,,,,,,$1801413206,2020-07-11_13h52.33.448,fisher_task,2020.1.3,Win32,60,0.072222222,-0.27,1,0,0,10.68,scale,,,,,,0.1234,0.1,0.3702,0.3,stimuli/lakes/1080107_left.png,stimuli/lakes/1080107_right.png,,,,0,127,127,107,1,,,,,
,,,,,,$1801413206,2020-07-11_13h52.33.448,fisher_task,2020.1.3,Win32,60,-0.075555556,-0.267777778,1,0,0,3.44,scale,,,,,,0.349027907,0.282842712,0.174513954,0.141421356,stimuli/lakes/803039_left.png,stimuli/lakes/803039_right.png,,,,0,128,128,39,1,,,,,
,,,,,,$1801413206,2020-07-11_13h52.33.448,fisher_task,2020.1.3,Win32,60,0.162222222,-0.423333333,1,0,0,2.083,scale,,,,,,0.1234,0.1,0.3702,0.3,stimuli/lakes/103023_left.png,stimuli/lakes/103023_right.png,,,,0,129,129,23,1,,,,,
,,,,,,$1801413206,2020-07-11_13h52.33.448,fisher_task,2020.1.3,Win32,60,,,,,,,,,,,,,,,,,,,,,,,,,,,,space,17.756,space,76.519
