keySpace.keys,instructions.thisRepN,instructions.thisTrialN,instructions.thisN,instructions.thisIndex,instructions.ran,participant,date,expName,psychopyVersion,OS,frameRate,mouse.x,mouse.y,mouse.leftButton,mouse.midButton,mouse.rightButton,mouse.time,mouse.clicked_name,training.thisRepN,training.thisTrialN,training.thisN,training.thisIndex,training.ran,widthBasketLeft,heightBasketLeft,widthBasketRight,heightBasketRight,leftLake,rightLake,space2.keys,space2.rt,space1.keys,trials.thisRepN,trials.thisTrialN,trials.thisN,trials.thisIndex,trials.ran,space1.rt,finalSpace1.keys,finalSpace1.rt,finalSpace2.keys,finalSpace2.rt
,0,0,0,0,1,$7814241083,2020-07-11_14h19.29.690,fisher_task,2020.1.3,Win32,60,,,,,,,,,,,,,,,,,,,,,,,,,,,,,,,
,,,,,,$7814241083,2020-07-11_14h19.29.690,fisher_task,2020.1.3,Win32,60,0.131481497,-0.417592606,1,0,0,4.411875,scale,0,0,0,0,1,0.275930788,0.223606798,0.275930788,0.223606798,stimuli/training/20_left.png,stimuli/training/20_right.png,,,,,,,,,,,,,
,,,,,,$7814241083,2020-07-11_14h19.29.690,fisher_task,2020.1.3,Win32,60,-0.152777767,-0.39629631,1,0,0,3.329295,scale,0,1,1,1,1,0.275930788,0.223606798,0.275930788,0.223606798,stimuli/training/80_left.png,stimuli/training/80_right.png,,,,,,,,,,,,,
,,,,,,$7814241083,2020-07-11_14h19.29.690,fisher_task,2020.1.3,Win32,60,0.133333349,-0.330555624,1,0,0,6.00998,scale,0,2,2,2,1,0.174513954,0.141421356,0.349027907,0.282842712,stimuli/training/50_left.png,stimuli/training/50_right.png,,,,,,,,,,,,,
,,,,,,$7814241083,2020-07-11_14h19.29.690,fisher_task,2020.1.3,Win32,60,-0.124999989,-0.329629642,1,0,0,4.378585,scale,0,3,3,3,1,0.349027907,0.282842712,0.174513954,0.141421356,stimuli/training/50_left.png,stimuli/training/50_right.png,,,,,,,,,,,,,
,,,,,,$7814241083,2020-07-11_14h19.29.690,fisher_task,2020.1.3,Win32,60,-0.105555544,-0.284259327,1,0,0,7.791555,scale,0,4,4,4,1,0.275930788,0.223606798,0.275930788,0.223606798,stimuli/training/50_left.png,stimuli/training/50_right.png,,,,,,,,,,,,,
,,,,,,$7814241083,2020-07-11_14h19.29.690,fisher_task,2020.1.3,Win32,60,0.175925942,-0.425000014,1,0,0,2.3472,scale,0,5,5,5,1,0.174513954,0.141421356,0.349027907,0.282842712,stimuli/training/20_left.png,stimuli/training/20_right.png,,,,,,,,,,,,,
,,,,,,$7814241083,2020-07-11_14h19.29.690,fisher_task,2020.1.3,Win32,60,-0.173148137,-0.427777848,1,0,0,1.74799,scale,0,6,6,6,1,0.349027907,0.282842712,0.174513954,0.141421356,stimuli/training/80_left.png,stimuli/training/80_right.png,,,,,,,,,,,,,
,,,,,,$7814241083,2020-07-11_14h19.29.690,fisher_task,2020.1.3,Win32,60,0.160185201,-0.425000014,1,0,0,3.080085,scale,0,7,7,7,1,0.1234,0.1,0.3702,0.3,stimuli/training/30_left.png,stimuli/training/30_right.png,,,,,,,,,,,,,
,,,,,,$7814241083,2020-07-11_14h19.29.690,fisher_task,2020.1.3,Win32,60,-0.169444377,-0.405555569,1,0,0,3.279725,scale,0,8,8,8,1,0.3702,0.3,0.1234,0.1,stimuli/training/70_left.png,stimuli/training/70_right.png,,,,,,,,,,,,,
,,,,,,$7814241083,2020-07-11_14h19.29.690,fisher_task,2020.1.3,Win32,60,-0.169444377,-0.436111125,1,0,0,1.964365,scale,0,9,9,9,1,0.326485712,0.264575131,0.21373507,0.173205081,stimuli/training/90_left.png,stimuli/training/90_right.png,,,,,,,,,,,,,
,,,,,,$7814241083,2020-07-11_14h19.29.690,fisher_task,2020.1.3,Win32,60,0.154629645,-0.399074087,1,0,0,2.99729,scale,0,10,10,10,1,0.21373507,0.173205081,0.326485712,0.264575131,stimuli/training/10_left.png,stimuli/training/10_right.png,,,,,,,,,,,,,
,,,,,,$7814241083,2020-07-11_14h19.29.690,fisher_task,2020.1.3,Win32,60,-0.155555488,-0.39166668,1,0,0,2.463815,scale,,,,,,0.349027907,0.282842712,0.174513954,0.141421356,stimuli/lakes/8080118_left.png,stimuli/lakes/8080118_right.png,space,6.907885,,0,0,0,118,1,,,,,
,,,,,,$7814241083,2020-07-11_14h19.29.690,fisher_task,2020.1.3,Win32,60,0.156481497,-0.356481494,1,0,0,4.42862,scale,,,,,,0.174513954,0.141421356,0.349027907,0.282842712,stimuli/lakes/205060_left.png,stimuli/lakes/205060_right.png,,,,0,1,1,60,1,,,,,
,,,,,,$7814241083,2020-07-11_14h19.29.690,fisher_task,2020.1.3,Win32,60,0.117592608,-0.308333345,1,0,0,4.62841,scale,,,,,,0.21373507,0.173205081,0.326485712,0.264575131,stimuli/lakes/305061_left.png,stimuli/lakes/305061_right.png,,,,0,2,2,61,1,,,,,
,,,,,,$7814241083,2020-07-11_14h19.29.690,fisher_task,2020.1.3,Win32,60,-0.130555544,-0.321296365,1,0,0,3.579335,scale,,,,,,0.349027907,0.282842712,0.174513954,0.141421356,stimuli/lakes/804048_left.png,stimuli/lakes/804048_right.png,,,,0,3,3,48,1,,,,,
,,,,,,$7814241083,2020-07-11_14h19.29.690,fisher_task,2020.1.3,Win32,60,-0.104629561,-0.291666678,1,0,0,6.276325,scale,,,,,,0.326485712,0.264575131,0.21373507,0.173205081,stimuli/lakes/702020_left.png,stimuli/lakes/702020_right.png,,,,0,4,4,20,1,,,,,
,,,,,,$7814241083,2020-07-11_14h19.29.690,fisher_task,2020.1.3,Win32,60,-0.138888878,-0.325000012,1,0,0,3.263095,scale,,,,,,0.302267034,0.244948974,0.2468,0.2,stimuli/lakes/606076_left.png,stimuli/lakes/606076_right.png,,,,0,5,5,76,1,,,,,
,,,,,,$7814241083,2020-07-11_14h19.29.690,fisher_task,2020.1.3,Win32,60,0.100925941,-0.262962974,1,0,0,3.662395,scale,,,,,,0.21373507,0.173205081,0.326485712,0.264575131,stimuli/lakes/3080109_left.png,stimuli/lakes/3080109_right.png,,,,0,6,6,109,1,,,,,
,,,,,,$7814241083,2020-07-11_14h19.29.690,fisher_task,2020.1.3,Win32,60,-0.155555488,-0.362963032,1,0,0,5.22751,scale,,,,,,0.275930788,0.223606798,0.275930788,0.223606798,stimuli/lakes/5070102_left.png,stimuli/lakes/5070102_right.png,,,,0,7,7,102,1,,,,,
,,,,,,$7814241083,2020-07-11_14h19.29.690,fisher_task,2020.1.3,Win32,60,-0.107407396,-0.287962975,1,0,0,4.82868,scale,,,,,,0.349027907,0.282842712,0.174513954,0.141421356,stimuli/lakes/80109_left.png,stimuli/lakes/80109_right.png,,,,0,8,8,9,1,,,,,
,,,,,,$7814241083,2020-07-11_14h19.29.690,fisher_task,2020.1.3,Win32,60,-0.162037026,-0.424074088,1,0,0,2.679775,scale,,,,,,0.3702,0.3,0.1234,0.1,stimuli/lakes/907097_left.png,stimuli/lakes/907097_right.png,,,,0,9,9,97,1,,,,,
,,,,,,$7814241083,2020-07-11_14h19.29.690,fisher_task,2020.1.3,Win32,60,-0.162037026,-0.424074088,1,0,0,1.745175,scale,,,,,,0.3702,0.3,0.1234,0.1,stimuli/lakes/9070106_left.png,stimuli/lakes/9070106_right.png,,,,0,10,10,106,1,,,,,
,,,,,,$7814241083,2020-07-11_14h19.29.690,fisher_task,2020.1.3,Win32,60,0.005555569,-0.2388889,1,0,0,8.37339,scale,,,,,,0.2468,0.2,0.302267034,0.244948974,stimuli/lakes/4080111_left.png,stimuli/lakes/4080111_right.png,,,,0,11,11,111,1,,,,,
,,,,,,$7814241083,2020-07-11_14h19.29.690,fisher_task,2020.1.3,Win32,60,0.167592608,-0.419444458,1,0,0,3.545865,scale,,,,,,0.21373507,0.173205081,0.326485712,0.264575131,stimuli/lakes/302013_left.png,stimuli/lakes/302013_right.png,,,,0,12,12,13,1,,,,,
,,,,,,$7814241083,2020-07-11_14h19.29.690,fisher_task,2020.1.3,Win32,60,0.117592608,-0.299074086,1,0,0,9.70646,scale,,,,,,0.326485712,0.264575131,0.21373507,0.173205081,stimuli/lakes/704056_left.png,stimuli/lakes/704056_right.png,,,,0,13,13,56,1,,,,,
,,,,,,$7814241083,2020-07-11_14h19.29.690,fisher_task,2020.1.3,Win32,60,-0.16574073,-0.422222236,1,0,0,2.830185,scale,,,,,,0.2468,0.2,0.302267034,0.244948974,stimuli/lakes/407092_left.png,stimuli/lakes/407092_right.png,,,,0,14,14,92,1,,,,,
,,,,,,$7814241083,2020-07-11_14h19.29.690,fisher_task,2020.1.3,Win32,60,-0.16574073,-0.422222236,1,0,0,2.864405,scale,,,,,,0.302267034,0.244948974,0.2468,0.2,stimuli/lakes/6090127_left.png,stimuli/lakes/6090127_right.png,,,,0,15,15,127,1,,,,,
,,,,,,$7814241083,2020-07-11_14h19.29.690,fisher_task,2020.1.3,Win32,60,0.153703719,-0.372222292,1,0,0,8.77387,scale,,,,,,0.1234,0.1,0.3702,0.3,stimuli/lakes/1090119_left.png,stimuli/lakes/1090119_right.png,,,,0,16,16,119,1,,,,,
,,,,,,$7814241083,2020-07-11_14h19.29.690,fisher_task,2020.1.3,Win32,60,0.156481497,-0.427777848,1,0,0,2.163995,scale,,,,,,0.2468,0.2,0.302267034,0.244948974,stimuli/lakes/40102_left.png,stimuli/lakes/40102_right.png,,,,0,17,17,2,1,,,,,
,,,,,,$7814241083,2020-07-11_14h19.29.690,fisher_task,2020.1.3,Win32,60,0.173148164,-0.425000014,1,0,0,3.27901,scale,,,,,,0.2468,0.2,0.302267034,0.244948974,stimuli/lakes/403026_left.png,stimuli/lakes/403026_right.png,,,,0,18,18,26,1,,,,,
,,,,,,$7814241083,2020-07-11_14h19.29.690,fisher_task,2020.1.3,Win32,60,-0.09722221,-0.307407476,1,0,0,7.142125,scale,,,,,,0.3702,0.3,0.1234,0.1,stimuli/lakes/905070_left.png,stimuli/lakes/905070_right.png,,,,0,19,19,70,1,,,,,
,,,,,,$7814241083,2020-07-11_14h19.29.690,fisher_task,2020.1.3,Win32,60,0.0851852,-0.269444456,1,0,0,8.356355,scale,,,,,,0.2468,0.2,0.302267034,0.244948974,stimuli/lakes/4070101_left.png,stimuli/lakes/4070101_right.png,,,,0,20,20,101,1,,,,,
,,,,,,$7814241083,2020-07-11_14h19.29.690,fisher_task,2020.1.3,Win32,60,-0.128703692,-0.325000012,1,0,0,7.64188,scale,,,,,,0.275930788,0.223606798,0.275930788,0.223606798,stimuli/lakes/507093_left.png,stimuli/lakes/507093_right.png,,,,0,21,21,93,1,,,,,
,,,,,,$7814241083,2020-07-11_14h19.29.690,fisher_task,2020.1.3,Win32,60,-0.105555544,-0.302777846,1,0,0,5.94308,scale,,,,,,0.326485712,0.264575131,0.21373507,0.173205081,stimuli/lakes/703038_left.png,stimuli/lakes/703038_right.png,,,space,0,22,22,38,1,17.63191,,,,
,,,,,,$7814241083,2020-07-11_14h19.29.690,fisher_task,2020.1.3,Win32,60,-0.141666599,-0.335185254,1,0,0,3.045915,scale,,,,,,0.326485712,0.264575131,0.21373507,0.173205081,stimuli/lakes/705068_left.png,stimuli/lakes/705068_right.png,,,,0,23,23,68,1,,,,,
,,,,,,$7814241083,2020-07-11_14h19.29.690,fisher_task,2020.1.3,Win32,60,0.150925941,-0.350925939,1,0,0,7.95801,scale,,,,,,0.275930788,0.223606798,0.275930788,0.223606798,stimuli/lakes/504045_left.png,stimuli/lakes/504045_right.png,,,,0,24,24,45,1,,,,,
,,,,,,$7814241083,2020-07-11_14h19.29.690,fisher_task,2020.1.3,Win32,60,0.118518534,-0.295370382,1,0,0,10.837915,scale,,,,,,0.302267034,0.244948974,0.2468,0.2,stimuli/lakes/604055_left.png,stimuli/lakes/604055_right.png,,,,0,25,25,55,1,,,,,
,,,,,,$7814241083,2020-07-11_14h19.29.690,fisher_task,2020.1.3,Win32,60,-0.152777767,-0.365740754,1,0,0,3.878335,scale,,,,,,0.275930788,0.223606798,0.275930788,0.223606798,stimuli/lakes/506075_left.png,stimuli/lakes/506075_right.png,,,,0,26,26,75,1,,,,,
,,,,,,$7814241083,2020-07-11_14h19.29.690,fisher_task,2020.1.3,Win32,60,-0.09722221,-0.274074086,1,0,0,9.555415,scale,,,,,,0.326485712,0.264575131,0.21373507,0.173205081,stimuli/lakes/703029_left.png,stimuli/lakes/703029_right.png,,,,0,27,27,29,1,,,,,
,,,,,,$7814241083,2020-07-11_14h19.29.690,fisher_task,2020.1.3,Win32,60,0.129629645,-0.281481493,1,0,0,9.090255,scale,,,,,,0.302267034,0.244948974,0.2468,0.2,stimuli/lakes/602017_left.png,stimuli/lakes/602017_right.png,,,,0,28,28,17,1,,,,,
,,,,,,$7814241083,2020-07-11_14h19.29.690,fisher_task,2020.1.3,Win32,60,0.062962977,-0.265740809,1,0,0,7.94156,scale,,,,,,0.21373507,0.173205081,0.326485712,0.264575131,stimuli/lakes/305062_left.png,stimuli/lakes/305062_right.png,,,,0,29,29,62,1,,,,,
,,,,,,$7814241083,2020-07-11_14h19.29.690,fisher_task,2020.1.3,Win32,60,0.124074089,-0.287037049,1,0,0,5.927145,scale,,,,,,0.302267034,0.244948974,0.2468,0.2,stimuli/lakes/604046_left.png,stimuli/lakes/604046_right.png,,,,0,30,30,46,1,,,,,
,,,,,,$7814241083,2020-07-11_14h19.29.690,fisher_task,2020.1.3,Win32,60,0.165740756,-0.427777848,1,0,0,2.298465,scale,,,,,,0.1234,0.1,0.3702,0.3,stimuli/lakes/104041_left.png,stimuli/lakes/104041_right.png,,,,0,31,31,41,1,,,,,
,,,,,,$7814241083,2020-07-11_14h19.29.690,fisher_task,2020.1.3,Win32,60,-0.105555544,-0.297222234,1,0,0,4.711385,scale,,,,,,0.3702,0.3,0.1234,0.1,stimuli/lakes/903031_left.png,stimuli/lakes/903031_right.png,,,,0,32,32,31,1,,,,,
,,,,,,$7814241083,2020-07-11_14h19.29.690,fisher_task,2020.1.3,Win32,60,0.159259275,-0.425000014,1,0,0,2.18054,scale,,,,,,0.21373507,0.173205081,0.326485712,0.264575131,stimuli/lakes/302012_left.png,stimuli/lakes/302012_right.png,,,,0,33,33,12,1,,,,,
,,,,,,$7814241083,2020-07-11_14h19.29.690,fisher_task,2020.1.3,Win32,60,0.140740756,-0.329629642,1,0,0,3.095675,scale,,,,,,0.174513954,0.141421356,0.349027907,0.282842712,stimuli/lakes/207099_left.png,stimuli/lakes/207099_right.png,,,,0,34,34,99,1,,,,,
,,,,,,$7814241083,2020-07-11_14h19.29.690,fisher_task,2020.1.3,Win32,60,0.170370386,-0.427777848,1,0,0,1.94709,scale,,,,,,0.174513954,0.141421356,0.349027907,0.282842712,stimuli/lakes/203024_left.png,stimuli/lakes/203024_right.png,,,,0,35,35,24,1,,,,,
,,,,,,$7814241083,2020-07-11_14h19.29.690,fisher_task,2020.1.3,Win32,60,-0.102777766,-0.328703716,1,0,0,2.230775,scale,,,,,,0.349027907,0.282842712,0.174513954,0.141421356,stimuli/lakes/803030_left.png,stimuli/lakes/803030_right.png,,,,0,36,36,30,1,,,,,
,,,,,,$7814241083,2020-07-11_14h19.29.690,fisher_task,2020.1.3,Win32,60,-0.075925914,-0.278703715,1,0,0,1.63174,scale,,,,,,0.326485712,0.264575131,0.21373507,0.173205081,stimuli/lakes/70108_left.png,stimuli/lakes/70108_right.png,,,,0,37,37,8,1,,,,,
,,,,,,$7814241083,2020-07-11_14h19.29.690,fisher_task,2020.1.3,Win32,60,0.117592608,-0.298148217,1,0,0,6.276575,scale,,,,,,0.1234,0.1,0.3702,0.3,stimuli/lakes/106071_left.png,stimuli/lakes/106071_right.png,,,,0,38,38,71,1,,,,,
,,,,,,$7814241083,2020-07-11_14h19.29.690,fisher_task,2020.1.3,Win32,60,0.123148163,-0.278703715,1,0,0,4.861715,scale,,,,,,0.2468,0.2,0.302267034,0.244948974,stimuli/lakes/406074_left.png,stimuli/lakes/406074_right.png,,,,0,39,39,74,1,,,,,
,,,,,,$7814241083,2020-07-11_14h19.29.690,fisher_task,2020.1.3,Win32,60,-0.095370302,-0.286111123,1,0,0,2.962805,scale,,,,,,0.302267034,0.244948974,0.2468,0.2,stimuli/lakes/603028_left.png,stimuli/lakes/603028_right.png,,,,0,40,40,28,1,,,,,
,,,,,,$7814241083,2020-07-11_14h19.29.690,fisher_task,2020.1.3,Win32,60,0.171296312,-0.417592606,1,0,0,1.84577,scale,,,,,,0.174513954,0.141421356,0.349027907,0.282842712,stimuli/lakes/203033_left.png,stimuli/lakes/203033_right.png,,,,0,41,41,33,1,,,,,
,,,,,,$7814241083,2020-07-11_14h19.29.690,fisher_task,2020.1.3,Win32,60,0.137037052,-0.287037049,1,0,0,2.29728,scale,,,,,,0.1234,0.1,0.3702,0.3,stimuli/lakes/107098_left.png,stimuli/lakes/107098_right.png,,,,0,42,42,98,1,,,,,
,,,,,,$7814241083,2020-07-11_14h19.29.690,fisher_task,2020.1.3,Win32,60,0.11481483,-0.266666678,1,0,0,6.809515,scale,,,,,,0.21373507,0.173205081,0.326485712,0.264575131,stimuli/lakes/306082_left.png,stimuli/lakes/306082_right.png,,,,0,43,43,82,1,,,,,
,,,,,,$7814241083,2020-07-11_14h19.29.690,fisher_task,2020.1.3,Win32,60,0.173148164,-0.385185198,1,0,0,2.364625,scale,,,,,,0.21373507,0.173205081,0.326485712,0.264575131,stimuli/lakes/304052_left.png,stimuli/lakes/304052_right.png,,,space,0,44,44,52,1,9.20669,,,,
,,,,,,$7814241083,2020-07-11_14h19.29.690,fisher_task,2020.1.3,Win32,60,-0.09722221,-0.287962975,1,0,0,4.527605,scale,,,,,,0.302267034,0.244948974,0.2468,0.2,stimuli/lakes/603037_left.png,stimuli/lakes/603037_right.png,,,,0,45,45,37,1,,,,,
,,,,,,$7814241083,2020-07-11_14h19.29.690,fisher_task,2020.1.3,Win32,60,0.161111127,-0.422222236,1,0,0,6.409685,scale,,,,,,0.2468,0.2,0.302267034,0.244948974,stimuli/lakes/404044_left.png,stimuli/lakes/404044_right.png,,,,0,46,46,44,1,,,,,
,,,,,,$7814241083,2020-07-11_14h19.29.690,fisher_task,2020.1.3,Win32,60,0.167592608,-0.41666668,1,0,0,2.26442,scale,,,,,,0.21373507,0.173205081,0.326485712,0.264575131,stimuli/lakes/304043_left.png,stimuli/lakes/304043_right.png,,,,0,47,47,43,1,,,,,
,,,,,,$7814241083,2020-07-11_14h19.29.690,fisher_task,2020.1.3,Win32,60,0.167592608,-0.41666668,1,0,0,1.148885,scale,,,,,,0.275930788,0.223606798,0.275930788,0.223606798,stimuli/lakes/502016_left.png,stimuli/lakes/502016_right.png,,,,0,48,48,16,1,,,,,
,,,,,,$7814241083,2020-07-11_14h19.29.690,fisher_task,2020.1.3,Win32,60,-0.166666656,-0.41666668,1,0,0,2.43083,scale,,,,,,0.3702,0.3,0.1234,0.1,stimuli/lakes/906088_left.png,stimuli/lakes/906088_right.png,,,,0,49,49,88,1,,,,,
,,,,,,$7814241083,2020-07-11_14h19.29.690,fisher_task,2020.1.3,Win32,60,0.185185201,-0.425000014,1,0,0,2.211095,scale,,,,,,0.21373507,0.173205081,0.326485712,0.264575131,stimuli/lakes/30100_left.png,stimuli/lakes/30100_right.png,,,,0,50,50,0,1,,,,,
,,,,,,$7814241083,2020-07-11_14h19.29.690,fisher_task,2020.1.3,Win32,60,0.124074089,-0.274074086,1,0,0,4.26208,scale,,,,,,0.21373507,0.173205081,0.326485712,0.264575131,stimuli/lakes/3080110_left.png,stimuli/lakes/3080110_right.png,,,,0,51,51,110,1,,,,,
,,,,,,$7814241083,2020-07-11_14h19.29.690,fisher_task,2020.1.3,Win32,60,-0.149074063,-0.424074088,1,0,0,3.14672,scale,,,,,,0.326485712,0.264575131,0.21373507,0.173205081,stimuli/lakes/707095_left.png,stimuli/lakes/707095_right.png,,,,0,52,52,95,1,,,,,
,,,,,,$7814241083,2020-07-11_14h19.29.690,fisher_task,2020.1.3,Win32,60,0.17870372,-0.425000014,1,0,0,2.147545,scale,,,,,,0.21373507,0.173205081,0.326485712,0.264575131,stimuli/lakes/303034_left.png,stimuli/lakes/303034_right.png,,,,0,53,53,34,1,,,,,
,,,,,,$7814241083,2020-07-11_14h19.29.690,fisher_task,2020.1.3,Win32,60,0.167592608,-0.426851866,1,0,0,2.21328,scale,,,,,,0.21373507,0.173205081,0.326485712,0.264575131,stimuli/lakes/30101_left.png,stimuli/lakes/30101_right.png,,,,0,54,54,1,1,,,,,
,,,,,,$7814241083,2020-07-11_14h19.29.690,fisher_task,2020.1.3,Win32,60,0.127777793,-0.289814827,1,0,0,3.22859,scale,,,,,,0.21373507,0.173205081,0.326485712,0.264575131,stimuli/lakes/3090121_left.png,stimuli/lakes/3090121_right.png,,,,0,55,55,121,1,,,,,
,,,,,,$7814241083,2020-07-11_14h19.29.690,fisher_task,2020.1.3,Win32,60,-0.086111043,-0.279629698,1,0,0,3.21322,scale,,,,,,0.349027907,0.282842712,0.174513954,0.141421356,stimuli/lakes/802021_left.png,stimuli/lakes/802021_right.png,,,,0,56,56,21,1,,,,,
,,,,,,$7814241083,2020-07-11_14h19.29.690,fisher_task,2020.1.3,Win32,60,0.11481483,-0.27314816,1,0,0,5.243665,scale,,,,,,0.21373507,0.173205081,0.326485712,0.264575131,stimuli/lakes/3070100_left.png,stimuli/lakes/3070100_right.png,,,,0,57,57,100,1,,,,,
,,,,,,$7814241083,2020-07-11_14h19.29.690,fisher_task,2020.1.3,Win32,60,0.171296312,-0.426851866,1,0,0,2.66371,scale,,,,,,0.1234,0.1,0.3702,0.3,stimuli/lakes/103032_left.png,stimuli/lakes/103032_right.png,,,,0,58,58,32,1,,,,,
,,,,,,$7814241083,2020-07-11_14h19.29.690,fisher_task,2020.1.3,Win32,60,-0.169444377,-0.412962977,1,0,0,3.06334,scale,,,,,,0.275930788,0.223606798,0.275930788,0.223606798,stimuli/lakes/5090125_left.png,stimuli/lakes/5090125_right.png,,,,0,59,59,125,1,,,,,
,,,,,,$7814241083,2020-07-11_14h19.29.690,fisher_task,2020.1.3,Win32,60,-0.099999932,-0.278703715,1,0,0,11.28785,scale,,,,,,0.302267034,0.244948974,0.2468,0.2,stimuli/lakes/60105_left.png,stimuli/lakes/60105_right.png,,,,0,60,60,5,1,,,,,
,,,,,,$7814241083,2020-07-11_14h19.29.690,fisher_task,2020.1.3,Win32,60,-0.12777771,-0.321296365,1,0,0,2.830595,scale,,,,,,0.3702,0.3,0.1234,0.1,stimuli/lakes/906079_left.png,stimuli/lakes/906079_right.png,,,,0,61,61,79,1,,,,,
,,,,,,$7814241083,2020-07-11_14h19.29.690,fisher_task,2020.1.3,Win32,60,0.125925941,-0.274074086,1,0,0,2.996635,scale,,,,,,0.174513954,0.141421356,0.349027907,0.282842712,stimuli/lakes/206081_left.png,stimuli/lakes/206081_right.png,,,,0,62,62,81,1,,,,,
,,,,,,$7814241083,2020-07-11_14h19.29.690,fisher_task,2020.1.3,Win32,60,0.162037053,-0.333333346,1,0,0,3.013285,scale,,,,,,0.275930788,0.223606798,0.275930788,0.223606798,stimuli/lakes/503027_left.png,stimuli/lakes/503027_right.png,,,,0,63,63,27,1,,,,,
,,,,,,$7814241083,2020-07-11_14h19.29.690,fisher_task,2020.1.3,Win32,60,-0.129629618,-0.302777846,1,0,0,4.029045,scale,,,,,,0.349027907,0.282842712,0.174513954,0.141421356,stimuli/lakes/806087_left.png,stimuli/lakes/806087_right.png,,,,0,64,64,87,1,,,,,
,,,,,,$7814241083,2020-07-11_14h19.29.690,fisher_task,2020.1.3,Win32,60,-0.154629619,-0.350000013,1,0,0,2.663745,scale,,,,,,0.349027907,0.282842712,0.174513954,0.141421356,stimuli/lakes/806078_left.png,stimuli/lakes/806078_right.png,,,,0,65,65,78,1,,,,,
,,,,,,$7814241083,2020-07-11_14h19.29.690,fisher_task,2020.1.3,Win32,60,-0.148148137,-0.348148161,1,0,0,1.98115,scale,,,,,,0.349027907,0.282842712,0.174513954,0.141421356,stimuli/lakes/807096_left.png,stimuli/lakes/807096_right.png,,,space,0,66,66,96,1,11.17715,,,,
,,,,,,$7814241083,2020-07-11_14h19.29.690,fisher_task,2020.1.3,Win32,60,0.156481497,-0.36666668,1,0,0,2.112925,scale,,,,,,0.1234,0.1,0.3702,0.3,stimuli/lakes/103023_left.png,stimuli/lakes/103023_right.png,,,,0,67,67,23,1,,,,,
,,,,,,$7814241083,2020-07-11_14h19.29.690,fisher_task,2020.1.3,Win32,60,0.162962979,-0.40000007,1,0,0,1.68101,scale,,,,,,0.275930788,0.223606798,0.275930788,0.223606798,stimuli/lakes/50104_left.png,stimuli/lakes/50104_right.png,,,,0,68,68,4,1,,,,,
,,,,,,$7814241083,2020-07-11_14h19.29.690,fisher_task,2020.1.3,Win32,60,0.162962979,-0.40000007,1,0,0,1.181065,scale,,,,,,0.174513954,0.141421356,0.349027907,0.282842712,stimuli/lakes/202011_left.png,stimuli/lakes/202011_right.png,,,,0,69,69,11,1,,,,,
,,,,,,$7814241083,2020-07-11_14h19.29.690,fisher_task,2020.1.3,Win32,60,0.156481497,-0.367592662,1,0,0,2.696535,scale,,,,,,0.174513954,0.141421356,0.349027907,0.282842712,stimuli/lakes/204051_left.png,stimuli/lakes/204051_right.png,,,,0,70,70,51,1,,,,,
,,,,,,$7814241083,2020-07-11_14h19.29.690,fisher_task,2020.1.3,Win32,60,0.071296311,-0.254629641,1,0,0,5.16106,scale,,,,,,0.174513954,0.141421356,0.349027907,0.282842712,stimuli/lakes/2090120_left.png,stimuli/lakes/2090120_right.png,,,,0,71,71,120,1,,,,,
,,,,,,$7814241083,2020-07-11_14h19.29.690,fisher_task,2020.1.3,Win32,60,-0.144444433,-0.319444457,1,0,0,3.580345,scale,,,,,,0.275930788,0.223606798,0.275930788,0.223606798,stimuli/lakes/506084_left.png,stimuli/lakes/506084_right.png,,,,0,72,72,84,1,,,,,
,,,,,,$7814241083,2020-07-11_14h19.29.690,fisher_task,2020.1.3,Win32,60,-0.166666656,-0.362963032,1,0,0,1.76426,scale,,,,,,0.302267034,0.244948974,0.2468,0.2,stimuli/lakes/6090126_left.png,stimuli/lakes/6090126_right.png,,,,0,73,73,126,1,,,,,
,,,,,,$7814241083,2020-07-11_14h19.29.690,fisher_task,2020.1.3,Win32,60,-0.099074062,-0.282407419,1,0,0,5.12689,scale,,,,,,0.326485712,0.264575131,0.21373507,0.173205081,stimuli/lakes/705067_left.png,stimuli/lakes/705067_right.png,,,,0,74,74,67,1,,,,,
,,,,,,$7814241083,2020-07-11_14h19.29.690,fisher_task,2020.1.3,Win32,60,-0.162037026,-0.36203705,1,0,0,1.748045,scale,,,,,,0.326485712,0.264575131,0.21373507,0.173205081,stimuli/lakes/7090129_left.png,stimuli/lakes/7090129_right.png,,,,0,75,75,129,1,,,,,
,,,,,,$7814241083,2020-07-11_14h19.29.690,fisher_task,2020.1.3,Win32,60,0.099074089,-0.299074086,1,0,0,3.129825,scale,,,,,,0.174513954,0.141421356,0.349027907,0.282842712,stimuli/lakes/204042_left.png,stimuli/lakes/204042_right.png,,,,0,76,76,42,1,,,,,
,,,,,,$7814241083,2020-07-11_14h19.29.690,fisher_task,2020.1.3,Win32,60,0.07592594,-0.280555567,1,0,0,2.43079,scale,,,,,,0.174513954,0.141421356,0.349027907,0.282842712,stimuli/lakes/206072_left.png,stimuli/lakes/206072_right.png,,,,0,77,77,72,1,,,,,
,,,,,,$7814241083,2020-07-11_14h19.29.690,fisher_task,2020.1.3,Win32,60,-0.173148137,-0.4046297,1,0,0,2.11482,scale,,,,,,0.326485712,0.264575131,0.21373507,0.173205081,stimuli/lakes/7090128_left.png,stimuli/lakes/7090128_right.png,,,,0,78,78,128,1,,,,,
,,,,,,$7814241083,2020-07-11_14h19.29.690,fisher_task,2020.1.3,Win32,60,-0.168518508,-0.393518532,1,0,0,2.31324,scale,,,,,,0.326485712,0.264575131,0.21373507,0.173205081,stimuli/lakes/7070104_left.png,stimuli/lakes/7070104_right.png,,,,0,79,79,104,1,,,,,
,,,,,,$7814241083,2020-07-11_14h19.29.690,fisher_task,2020.1.3,Win32,60,-0.12314808,-0.364814828,1,0,0,2.447545,scale,,,,,,0.275930788,0.223606798,0.275930788,0.223606798,stimuli/lakes/5080113_left.png,stimuli/lakes/5080113_right.png,,,,0,80,80,113,1,,,,,
,,,,,,$7814241083,2020-07-11_14h19.29.690,fisher_task,2020.1.3,Win32,60,0.060185199,-0.236111122,1,0,0,5.27738,scale,,,,,,0.2468,0.2,0.302267034,0.244948974,stimuli/lakes/4080112_left.png,stimuli/lakes/4080112_right.png,,,,0,81,81,112,1,,,,,
,,,,,,$7814241083,2020-07-11_14h19.29.690,fisher_task,2020.1.3,Win32,60,0.116666682,-0.291666678,1,0,0,4.577215,scale,,,,,,0.275930788,0.223606798,0.275930788,0.223606798,stimuli/lakes/504054_left.png,stimuli/lakes/504054_right.png,,,,0,82,82,54,1,,,,,
,,,,,,$7814241083,2020-07-11_14h19.29.690,fisher_task,2020.1.3,Win32,60,0.138888904,-0.325000012,1,0,0,4.395225,scale,,,,,,0.2468,0.2,0.302267034,0.244948974,stimuli/lakes/404053_left.png,stimuli/lakes/404053_right.png,,,,0,83,83,53,1,,,,,
,,,,,,$7814241083,2020-07-11_14h19.29.690,fisher_task,2020.1.3,Win32,60,-0.086111043,-0.286111123,1,0,0,4.14561,scale,,,,,,0.302267034,0.244948974,0.2468,0.2,stimuli/lakes/606085_left.png,stimuli/lakes/606085_right.png,,,,0,84,84,85,1,,,,,
,,,,,,$7814241083,2020-07-11_14h19.29.690,fisher_task,2020.1.3,Win32,60,-0.10185184,-0.280555567,1,0,0,5.32795,scale,,,,,,0.326485712,0.264575131,0.21373507,0.173205081,stimuli/lakes/70107_left.png,stimuli/lakes/70107_right.png,,,,0,85,85,7,1,,,,,
,,,,,,$7814241083,2020-07-11_14h19.29.690,fisher_task,2020.1.3,Win32,60,-0.13148147,-0.329629642,1,0,0,2.777865,scale,,,,,,0.302267034,0.244948974,0.2468,0.2,stimuli/lakes/605065_left.png,stimuli/lakes/605065_right.png,,,,0,86,86,65,1,,,,,
,,,,,,$7814241083,2020-07-11_14h19.29.690,fisher_task,2020.1.3,Win32,60,0.129629645,-0.294444456,1,0,0,3.446065,scale,,,,,,0.21373507,0.173205081,0.326485712,0.264575131,stimuli/lakes/306073_left.png,stimuli/lakes/306073_right.png,,,,0,87,87,73,1,,,,,
,,,,,,$7814241083,2020-07-11_14h19.29.690,fisher_task,2020.1.3,Win32,60,0.156481497,-0.340740753,1,0,0,3.3473,scale,,,,,,0.2468,0.2,0.302267034,0.244948974,stimuli/lakes/406083_left.png,stimuli/lakes/406083_right.png,,,space,0,88,88,83,1,6.40159,,,,
,,,,,,$7814241083,2020-07-11_14h19.29.690,fisher_task,2020.1.3,Win32,60,0.155555571,-0.389814828,1,0,0,3.912015,scale,,,,,,0.275930788,0.223606798,0.275930788,0.223606798,stimuli/lakes/503036_left.png,stimuli/lakes/503036_right.png,,,,0,89,89,36,1,,,,,
,,,,,,$7814241083,2020-07-11_14h19.29.690,fisher_task,2020.1.3,Win32,60,-0.102777766,-0.298148217,1,0,0,2.097325,scale,,,,,,0.302267034,0.244948974,0.2468,0.2,stimuli/lakes/6070103_left.png,stimuli/lakes/6070103_right.png,,,,0,90,90,103,1,,,,,
,,,,,,$7814241083,2020-07-11_14h19.29.690,fisher_task,2020.1.3,Win32,60,0.162962979,-0.381481551,1,0,0,1.78059,scale,,,,,,0.2468,0.2,0.302267034,0.244948974,stimuli/lakes/402014_left.png,stimuli/lakes/402014_right.png,,,,0,91,91,14,1,,,,,
,,,,,,$7814241083,2020-07-11_14h19.29.690,fisher_task,2020.1.3,Win32,60,-0.092592581,-0.285185197,1,0,0,2.546185,scale,,,,,,0.326485712,0.264575131,0.21373507,0.173205081,stimuli/lakes/704047_left.png,stimuli/lakes/704047_right.png,,,,0,92,92,47,1,,,,,
,,,,,,$7814241083,2020-07-11_14h19.29.690,fisher_task,2020.1.3,Win32,60,0.165740756,-0.384259272,1,0,0,1.76475,scale,,,,,,0.2468,0.2,0.302267034,0.244948974,stimuli/lakes/403035_left.png,stimuli/lakes/403035_right.png,,,,0,93,93,35,1,,,,,
,,,,,,$7814241083,2020-07-11_14h19.29.690,fisher_task,2020.1.3,Win32,60,-0.162037026,-0.385185198,1,0,0,2.098215,scale,,,,,,0.3702,0.3,0.1234,0.1,stimuli/lakes/901010_left.png,stimuli/lakes/901010_right.png,,,,0,94,94,10,1,,,,,
,,,,,,$7814241083,2020-07-11_14h19.29.690,fisher_task,2020.1.3,Win32,60,-0.099999932,-0.278703715,1,0,0,5.82636,scale,,,,,,0.174513954,0.141421356,0.349027907,0.282842712,stimuli/lakes/2080108_left.png,stimuli/lakes/2080108_right.png,,,,0,95,95,108,1,,,,,
,,,,,,$7814241083,2020-07-11_14h19.29.690,fisher_task,2020.1.3,Win32,60,-0.159259248,-0.384259272,1,0,0,3.545225,scale,,,,,,0.349027907,0.282842712,0.174513954,0.141421356,stimuli/lakes/805069_left.png,stimuli/lakes/805069_right.png,,,,0,96,96,69,1,,,,,
,,,,,,$7814241083,2020-07-11_14h19.29.690,fisher_task,2020.1.3,Win32,60,-0.12314808,-0.320370383,1,0,0,4.07867,scale,,,,,,0.3702,0.3,0.1234,0.1,stimuli/lakes/902022_left.png,stimuli/lakes/902022_right.png,,,,0,97,97,22,1,,,,,
,,,,,,$7814241083,2020-07-11_14h19.29.690,fisher_task,2020.1.3,Win32,60,0.150000015,-0.313888901,1,0,0,4.27926,scale,,,,,,0.1234,0.1,0.3702,0.3,stimuli/lakes/1080107_left.png,stimuli/lakes/1080107_right.png,,,,0,98,98,107,1,,,,,
,,,,,,$7814241083,2020-07-11_14h19.29.690,fisher_task,2020.1.3,Win32,60,0.126851867,-0.287962975,1,0,0,7.09196,scale,,,,,,0.2468,0.2,0.302267034,0.244948974,stimuli/lakes/405064_left.png,stimuli/lakes/405064_right.png,,,,0,99,99,64,1,,,,,
,,,,,,$7814241083,2020-07-11_14h19.29.690,fisher_task,2020.1.3,Win32,60,-0.133333322,-0.318518531,1,0,0,5.493355,scale,,,,,,0.349027907,0.282842712,0.174513954,0.141421356,stimuli/lakes/804057_left.png,stimuli/lakes/804057_right.png,,,,0,100,100,57,1,,,,,
,,,,,,$7814241083,2020-07-11_14h19.29.690,fisher_task,2020.1.3,Win32,60,0.122222237,-0.291666678,1,0,0,3.39621,scale,,,,,,0.1234,0.1,0.3702,0.3,stimuli/lakes/107089_left.png,stimuli/lakes/107089_right.png,,,,0,101,101,89,1,,,,,
,,,,,,$7814241083,2020-07-11_14h19.29.690,fisher_task,2020.1.3,Win32,60,0.162037053,-0.326851864,1,0,0,4.477975,scale,,,,,,0.21373507,0.173205081,0.326485712,0.264575131,stimuli/lakes/307091_left.png,stimuli/lakes/307091_right.png,,,,0,102,102,91,1,,,,,
,,,,,,$7814241083,2020-07-11_14h19.29.690,fisher_task,2020.1.3,Win32,60,0.118518534,-0.298148217,1,0,0,5.527185,scale,,,,,,0.1234,0.1,0.3702,0.3,stimuli/lakes/106080_left.png,stimuli/lakes/106080_right.png,,,,0,103,103,80,1,,,,,
,,,,,,$7814241083,2020-07-11_14h19.29.690,fisher_task,2020.1.3,Win32,60,-0.159259248,-0.417592606,1,0,0,2.24725,scale,,,,,,0.349027907,0.282842712,0.174513954,0.141421356,stimuli/lakes/8070105_left.png,stimuli/lakes/8070105_right.png,,,,0,104,104,105,1,,,,,
,,,,,,$7814241083,2020-07-11_14h19.29.690,fisher_task,2020.1.3,Win32,60,-0.158333322,-0.375000013,1,0,0,2.49653,scale,,,,,,0.326485712,0.264575131,0.21373507,0.173205081,stimuli/lakes/706086_left.png,stimuli/lakes/706086_right.png,,,,0,105,105,86,1,,,,,
,,,,,,$7814241083,2020-07-11_14h19.29.690,fisher_task,2020.1.3,Win32,60,0.179629646,-0.425000014,1,0,0,2.480875,scale,,,,,,0.1234,0.1,0.3702,0.3,stimuli/lakes/104050_left.png,stimuli/lakes/104050_right.png,,,,0,106,106,50,1,,,,,
,,,,,,$7814241083,2020-07-11_14h19.29.690,fisher_task,2020.1.3,Win32,60,0.150000015,-0.33703705,1,0,0,3.112515,scale,,,,,,0.174513954,0.141421356,0.349027907,0.282842712,stimuli/lakes/207090_left.png,stimuli/lakes/207090_right.png,,,,0,107,107,90,1,,,,,
,,,,,,$7814241083,2020-07-11_14h19.29.690,fisher_task,2020.1.3,Win32,60,0.163888905,-0.422222236,1,0,0,2.59684,scale,,,,,,0.2468,0.2,0.302267034,0.244948974,stimuli/lakes/402015_left.png,stimuli/lakes/402015_right.png,,,,0,108,108,15,1,,,,,
,,,,,,$7814241083,2020-07-11_14h19.29.690,fisher_task,2020.1.3,Win32,60,-0.064814803,-0.274074086,1,0,0,3.629315,scale,,,,,,0.326485712,0.264575131,0.21373507,0.173205081,stimuli/lakes/702019_left.png,stimuli/lakes/702019_right.png,,,,0,109,109,19,1,,,,,
,,,,,,$7814241083,2020-07-11_14h19.29.690,fisher_task,2020.1.3,Win32,60,-0.169444377,-0.423148218,1,0,0,2.03117,scale,,,,,,0.326485712,0.264575131,0.21373507,0.173205081,stimuli/lakes/7080117_left.png,stimuli/lakes/7080117_right.png,,,space,0,110,110,117,1,13.985335,,,,
,,,,,,$7814241083,2020-07-11_14h19.29.690,fisher_task,2020.1.3,Win32,60,-0.09722221,-0.284259327,1,0,0,5.394875,scale,,,,,,0.302267034,0.244948974,0.2468,0.2,stimuli/lakes/602018_left.png,stimuli/lakes/602018_right.png,,,,0,111,111,18,1,,,,,
,,,,,,$7814241083,2020-07-11_14h19.29.690,fisher_task,2020.1.3,Win32,60,0.146296312,-0.303703716,1,0,0,4.744575,scale,,,,,,0.1234,0.1,0.3702,0.3,stimuli/lakes/105059_left.png,stimuli/lakes/105059_right.png,,,,0,112,112,59,1,,,,,
,,,,,,$7814241083,2020-07-11_14h19.29.690,fisher_task,2020.1.3,Win32,60,-0.139814804,-0.322222234,1,0,0,2.97996,scale,,,,,,0.302267034,0.244948974,0.2468,0.2,stimuli/lakes/605066_left.png,stimuli/lakes/605066_right.png,,,,0,113,113,66,1,,,,,
,,,,,,$7814241083,2020-07-11_14h19.29.690,fisher_task,2020.1.3,Win32,60,-0.166666656,-0.409259329,1,0,0,4.89371,scale,,,,,,0.302267034,0.244948974,0.2468,0.2,stimuli/lakes/607094_left.png,stimuli/lakes/607094_right.png,,,,0,114,114,94,1,,,,,
,,,,,,$7814241083,2020-07-11_14h19.29.690,fisher_task,2020.1.3,Win32,60,0.063888903,-0.244444456,1,0,0,8.09115,scale,,,,,,0.2468,0.2,0.302267034,0.244948974,stimuli/lakes/4090123_left.png,stimuli/lakes/4090123_right.png,,,,0,115,115,123,1,,,,,
,,,,,,$7814241083,2020-07-11_14h19.29.690,fisher_task,2020.1.3,Win32,60,-0.130555544,-0.319444457,1,0,0,2.94646,scale,,,,,,0.3702,0.3,0.1234,0.1,stimuli/lakes/904049_left.png,stimuli/lakes/904049_right.png,,,,0,116,116,49,1,,,,,
,,,,,,$7814241083,2020-07-11_14h19.29.690,fisher_task,2020.1.3,Win32,60,0.180555571,-0.428703718,1,0,0,2.113135,scale,,,,,,0.2468,0.2,0.302267034,0.244948974,stimuli/lakes/40103_left.png,stimuli/lakes/40103_right.png,,,,0,117,117,3,1,,,,,
,,,,,,$7814241083,2020-07-11_14h19.29.690,fisher_task,2020.1.3,Win32,60,-0.094444433,-0.297222234,1,0,0,3.39624,scale,,,,,,0.3702,0.3,0.1234,0.1,stimuli/lakes/904058_left.png,stimuli/lakes/904058_right.png,,,,0,118,118,58,1,,,,,
,,,,,,$7814241083,2020-07-11_14h19.29.690,fisher_task,2020.1.3,Win32,60,-0.139814804,-0.325000012,1,0,0,4.628985,scale,,,,,,0.302267034,0.244948974,0.2468,0.2,stimuli/lakes/6080115_left.png,stimuli/lakes/6080115_right.png,,,,0,119,119,115,1,,,,,
,,,,,,$7814241083,2020-07-11_14h19.29.690,fisher_task,2020.1.3,Win32,60,-0.12685184,-0.338888901,1,0,0,1.93004,scale,,,,,,0.302267034,0.244948974,0.2468,0.2,stimuli/lakes/6080114_left.png,stimuli/lakes/6080114_right.png,,,,0,120,120,114,1,,,,,
,,,,,,$7814241083,2020-07-11_14h19.29.690,fisher_task,2020.1.3,Win32,60,0.138888904,-0.295370382,1,0,0,4.26211,scale,,,,,,0.2468,0.2,0.302267034,0.244948974,stimuli/lakes/405063_left.png,stimuli/lakes/405063_right.png,,,,0,121,121,63,1,,,,,
,,,,,,$7814241083,2020-07-11_14h19.29.690,fisher_task,2020.1.3,Win32,60,-0.135185174,-0.350000013,1,0,0,1.68231,scale,,,,,,0.326485712,0.264575131,0.21373507,0.173205081,stimuli/lakes/7080116_left.png,stimuli/lakes/7080116_right.png,,,,0,122,122,116,1,,,,,
,,,,,,$7814241083,2020-07-11_14h19.29.690,fisher_task,2020.1.3,Win32,60,-0.083333321,-0.286111123,1,0,0,2.297725,scale,,,,,,0.3702,0.3,0.1234,0.1,stimuli/lakes/903040_left.png,stimuli/lakes/903040_right.png,,,,0,123,123,40,1,,,,,
,,,,,,$7814241083,2020-07-11_14h19.29.690,fisher_task,2020.1.3,Win32,60,0.171296312,-0.41666668,1,0,0,1.94715,scale,,,,,,0.21373507,0.173205081,0.326485712,0.264575131,stimuli/lakes/303025_left.png,stimuli/lakes/303025_right.png,,,,0,124,124,25,1,,,,,
,,,,,,$7814241083,2020-07-11_14h19.29.690,fisher_task,2020.1.3,Win32,60,-0.076851783,-0.267592604,1,0,0,2.147455,scale,,,,,,0.302267034,0.244948974,0.2468,0.2,stimuli/lakes/60106_left.png,stimuli/lakes/60106_right.png,,,,0,125,125,6,1,,,,,
,,,,,,$7814241083,2020-07-11_14h19.29.690,fisher_task,2020.1.3,Win32,60,0.065740755,-0.252777789,1,0,0,8.1745,scale,,,,,,0.2468,0.2,0.302267034,0.244948974,stimuli/lakes/4090124_left.png,stimuli/lakes/4090124_right.png,,,,0,126,126,124,1,,,,,
,,,,,,$7814241083,2020-07-11_14h19.29.690,fisher_task,2020.1.3,Win32,60,-0.12685184,-0.324074086,1,0,0,3.912275,scale,,,,,,0.326485712,0.264575131,0.21373507,0.173205081,stimuli/lakes/706077_left.png,stimuli/lakes/706077_right.png,,,,0,127,127,77,1,,,,,
,,,,,,$7814241083,2020-07-11_14h19.29.690,fisher_task,2020.1.3,Win32,60,0.07592594,-0.262962974,1,0,0,3.379445,scale,,,,,,0.21373507,0.173205081,0.326485712,0.264575131,stimuli/lakes/3090122_left.png,stimuli/lakes/3090122_right.png,,,,0,128,128,122,1,,,,,
,,,,,,$7814241083,2020-07-11_14h19.29.690,fisher_task,2020.1.3,Win32,60,-0.090740672,-0.277777789,1,0,0,5.510535,scale,,,,,,0.349027907,0.282842712,0.174513954,0.141421356,stimuli/lakes/803039_left.png,stimuli/lakes/803039_right.png,,,,0,129,129,39,1,,,,,
,,,,,,$7814241083,2020-07-11_14h19.29.690,fisher_task,2020.1.3,Win32,60,,,,,,,,,,,,,,,,,,,,,,,,,,,,space,11.815775,space,28.827535
