keySpace.keys,instructions.thisRepN,instructions.thisTrialN,instructions.thisN,instructions.thisIndex,instructions.ran,participant,date,expName,psychopyVersion,OS,frameRate,mouse.x,mouse.y,mouse.leftButton,mouse.midButton,mouse.rightButton,mouse.time,mouse.clicked_name,training.thisRepN,training.thisTrialN,training.thisN,training.thisIndex,training.ran,widthBasketLeft,heightBasketLeft,widthBasketRight,heightBasketRight,leftLake,rightLake,space2.keys,space2.rt,space1.keys,trials.thisRepN,trials.thisTrialN,trials.thisN,trials.thisIndex,trials.ran,space1.rt,finalSpace1.keys,finalSpace1.rt,finalSpace2.keys,finalSpace2.rt
,0,0,0,0,1,$5030337691,2020-07-12_14h04.10.870,fisher_task,2020.1.3,Win32,60,,,,,,,,,,,,,,,,,,,,,,,,,,,,,,,
,,,,,,$5030337691,2020-07-12_14h04.10.870,fisher_task,2020.1.3,Win32,60,0.139322917,-0.33203125,1,0,0,5.03152,scale,0,0,0,0,1,0.275930788,0.223606798,0.275930788,0.223606798,stimuli/training/20_left.png,stimuli/training/20_right.png,,,,,,,,,,,,,
,,,,,,$5030337691,2020-07-12_14h04.10.870,fisher_task,2020.1.3,Win32,60,-0.1328125,-0.33203125,1,0,0,3.598695,scale,0,1,1,1,1,0.275930788,0.223606798,0.275930788,0.223606798,stimuli/training/80_left.png,stimuli/training/80_right.png,,,,,,,,,,,,,
,,,,,,$5030337691,2020-07-12_14h04.10.870,fisher_task,2020.1.3,Win32,60,0.130208333,-0.31640625,1,0,0,4.398455,scale,0,2,2,2,1,0.174513954,0.141421356,0.349027907,0.282842712,stimuli/training/50_left.png,stimuli/training/50_right.png,,,,,,,,,,,,,
,,,,,,$5030337691,2020-07-12_14h04.10.870,fisher_task,2020.1.3,Win32,60,-0.002604167,-0.236979167,1,0,0,8.213855,scale,0,3,3,3,1,0.349027907,0.282842712,0.174513954,0.141421356,stimuli/training/50_left.png,stimuli/training/50_right.png,,,,,,,,,,,,,
,,,,,,$5030337691,2020-07-12_14h04.10.870,fisher_task,2020.1.3,Win32,60,0.123697917,-0.294270833,1,0,0,4.9816,scale,0,4,4,4,1,0.275930788,0.223606798,0.275930788,0.223606798,stimuli/training/50_left.png,stimuli/training/50_right.png,,,,,,,,,,,,,
,,,,,,$5030337691,2020-07-12_14h04.10.870,fisher_task,2020.1.3,Win32,60,0.16015625,-0.43359375,1,0,0,3.06568,scale,0,5,5,5,1,0.174513954,0.141421356,0.349027907,0.282842712,stimuli/training/20_left.png,stimuli/training/20_right.png,,,,,,,,,,,,,
,,,,,,$5030337691,2020-07-12_14h04.10.870,fisher_task,2020.1.3,Win32,60,-0.16015625,-0.4296875,1,0,0,2.365945,scale,0,6,6,6,1,0.349027907,0.282842712,0.174513954,0.141421356,stimuli/training/80_left.png,stimuli/training/80_right.png,,,,,,,,,,,,,
,,,,,,$5030337691,2020-07-12_14h04.10.870,fisher_task,2020.1.3,Win32,60,0.158854167,-0.434895833,1,0,0,2.63226,scale,0,7,7,7,1,0.1234,0.1,0.3702,0.3,stimuli/training/30_left.png,stimuli/training/30_right.png,,,,,,,,,,,,,
,,,,,,$5030337691,2020-07-12_14h04.10.870,fisher_task,2020.1.3,Win32,60,-0.180989583,-0.421875,1,0,0,2.83225,scale,0,8,8,8,1,0.3702,0.3,0.1234,0.1,stimuli/training/70_left.png,stimuli/training/70_right.png,,,,,,,,,,,,,
,,,,,,$5030337691,2020-07-12_14h04.10.870,fisher_task,2020.1.3,Win32,60,-0.184895833,-0.423177083,1,0,0,1.73184,scale,0,9,9,9,1,0.326485712,0.264575131,0.21373507,0.173205081,stimuli/training/90_left.png,stimuli/training/90_right.png,,,,,,,,,,,,,
,,,,,,$5030337691,2020-07-12_14h04.10.870,fisher_task,2020.1.3,Win32,60,0.162760417,-0.430989583,1,0,0,2.598645,scale,0,10,10,10,1,0.21373507,0.173205081,0.326485712,0.264575131,stimuli/training/10_left.png,stimuli/training/10_right.png,,,,,,,,,,,,,
,,,,,,$5030337691,2020-07-12_14h04.10.870,fisher_task,2020.1.3,Win32,60,0.134114583,-0.315104167,1,0,0,4.448535,scale,,,,,,0.275930788,0.223606798,0.275930788,0.223606798,stimuli/lakes/504054_left.png,stimuli/lakes/504054_right.png,space,14.95561,,0,0,0,54,1,,,,,
,,,,,,$5030337691,2020-07-12_14h04.10.870,fisher_task,2020.1.3,Win32,60,-0.125,-0.325520833,1,0,0,4.731645,scale,,,,,,0.3702,0.3,0.1234,0.1,stimuli/lakes/904058_left.png,stimuli/lakes/904058_right.png,,,,0,1,1,58,1,,,,,
,,,,,,$5030337691,2020-07-12_14h04.10.870,fisher_task,2020.1.3,Win32,60,-0.001302083,-0.236979167,1,0,0,3.348505,scale,,,,,,0.21373507,0.173205081,0.326485712,0.264575131,stimuli/lakes/3080110_left.png,stimuli/lakes/3080110_right.png,,,,0,2,2,110,1,,,,,
,,,,,,$5030337691,2020-07-12_14h04.10.870,fisher_task,2020.1.3,Win32,60,0.14453125,-0.341145833,1,0,0,3.563745,scale,,,,,,0.21373507,0.173205081,0.326485712,0.264575131,stimuli/lakes/305062_left.png,stimuli/lakes/305062_right.png,,,,0,3,3,62,1,,,,,
,,,,,,$5030337691,2020-07-12_14h04.10.870,fisher_task,2020.1.3,Win32,60,-0.002604167,-0.2421875,1,0,0,3.1988,scale,,,,,,0.174513954,0.141421356,0.349027907,0.282842712,stimuli/lakes/2090120_left.png,stimuli/lakes/2090120_right.png,,,,0,4,4,120,1,,,,,
,,,,,,$5030337691,2020-07-12_14h04.10.870,fisher_task,2020.1.3,Win32,60,-0.002604167,-0.2421875,1,0,0,2.11584,scale,,,,,,0.302267034,0.244948974,0.2468,0.2,stimuli/lakes/602017_left.png,stimuli/lakes/602017_right.png,,,,0,5,5,17,1,,,,,
,,,,,,$5030337691,2020-07-12_14h04.10.870,fisher_task,2020.1.3,Win32,60,0.130208333,-0.311197917,1,0,0,4.86491,scale,,,,,,0.21373507,0.173205081,0.326485712,0.264575131,stimuli/lakes/305061_left.png,stimuli/lakes/305061_right.png,,,,0,6,6,61,1,,,,,
,,,,,,$5030337691,2020-07-12_14h04.10.870,fisher_task,2020.1.3,Win32,60,-0.178385417,-0.423177083,1,0,0,3.29898,scale,,,,,,0.349027907,0.282842712,0.174513954,0.141421356,stimuli/lakes/806087_left.png,stimuli/lakes/806087_right.png,,,,0,7,7,87,1,,,,,
,,,,,,$5030337691,2020-07-12_14h04.10.870,fisher_task,2020.1.3,Win32,60,-0.182291667,-0.415364583,1,0,0,2.115735,scale,,,,,,0.3702,0.3,0.1234,0.1,stimuli/lakes/906079_left.png,stimuli/lakes/906079_right.png,,,,0,8,8,79,1,,,,,
,,,,,,$5030337691,2020-07-12_14h04.10.870,fisher_task,2020.1.3,Win32,60,-0.182291667,-0.416666667,1,0,0,1.582765,scale,,,,,,0.326485712,0.264575131,0.21373507,0.173205081,stimuli/lakes/7080117_left.png,stimuli/lakes/7080117_right.png,,,,0,9,9,117,1,,,,,
,,,,,,$5030337691,2020-07-12_14h04.10.870,fisher_task,2020.1.3,Win32,60,-0.015625,-0.260416667,1,0,0,3.731865,scale,,,,,,0.21373507,0.173205081,0.326485712,0.264575131,stimuli/lakes/306073_left.png,stimuli/lakes/306073_right.png,,,,0,10,10,73,1,,,,,
,,,,,,$5030337691,2020-07-12_14h04.10.870,fisher_task,2020.1.3,Win32,60,-0.174479167,-0.395833333,1,0,0,2.69889,scale,,,,,,0.302267034,0.244948974,0.2468,0.2,stimuli/lakes/607094_left.png,stimuli/lakes/607094_right.png,,,,0,11,11,94,1,,,,,
,,,,,,$5030337691,2020-07-12_14h04.10.870,fisher_task,2020.1.3,Win32,60,0.1640625,-0.420572917,1,0,0,2.84881,scale,,,,,,0.21373507,0.173205081,0.326485712,0.264575131,stimuli/lakes/30101_left.png,stimuli/lakes/30101_right.png,,,,0,12,12,1,1,,,,,
,,,,,,$5030337691,2020-07-12_14h04.10.870,fisher_task,2020.1.3,Win32,60,-0.0078125,-0.223958333,1,0,0,2.93223,scale,,,,,,0.3702,0.3,0.1234,0.1,stimuli/lakes/901010_left.png,stimuli/lakes/901010_right.png,,,,0,13,13,10,1,,,,,
,,,,,,$5030337691,2020-07-12_14h04.10.870,fisher_task,2020.1.3,Win32,60,-0.0078125,-0.223958333,1,0,0,1.54916,scale,,,,,,0.1234,0.1,0.3702,0.3,stimuli/lakes/107089_left.png,stimuli/lakes/107089_right.png,,,,0,14,14,89,1,,,,,
,,,,,,$5030337691,2020-07-12_14h04.10.870,fisher_task,2020.1.3,Win32,60,-0.0078125,-0.223958333,1,0,0,1.332565,scale,,,,,,0.326485712,0.264575131,0.21373507,0.173205081,stimuli/lakes/702019_left.png,stimuli/lakes/702019_right.png,,,,0,15,15,19,1,,,,,
,,,,,,$5030337691,2020-07-12_14h04.10.870,fisher_task,2020.1.3,Win32,60,0.174479167,-0.430989583,1,0,0,2.66555,scale,,,,,,0.21373507,0.173205081,0.326485712,0.264575131,stimuli/lakes/30100_left.png,stimuli/lakes/30100_right.png,,,,0,16,16,0,1,,,,,
,,,,,,$5030337691,2020-07-12_14h04.10.870,fisher_task,2020.1.3,Win32,60,0.174479167,-0.430989583,1,0,0,1.64923,scale,,,,,,0.1234,0.1,0.3702,0.3,stimuli/lakes/103032_left.png,stimuli/lakes/103032_right.png,,,,0,17,17,32,1,,,,,
,,,,,,$5030337691,2020-07-12_14h04.10.870,fisher_task,2020.1.3,Win32,60,0.14453125,-0.338541667,1,0,0,3.815225,scale,,,,,,0.174513954,0.141421356,0.349027907,0.282842712,stimuli/lakes/204042_left.png,stimuli/lakes/204042_right.png,,,,0,18,18,42,1,,,,,
,,,,,,$5030337691,2020-07-12_14h04.10.870,fisher_task,2020.1.3,Win32,60,0.09375,-0.26171875,1,0,0,5.14807,scale,,,,,,0.2468,0.2,0.302267034,0.244948974,stimuli/lakes/404044_left.png,stimuli/lakes/404044_right.png,,,,0,19,19,44,1,,,,,
,,,,,,$5030337691,2020-07-12_14h04.10.870,fisher_task,2020.1.3,Win32,60,-0.149739583,-0.341145833,1,0,0,6.214525,scale,,,,,,0.2468,0.2,0.302267034,0.244948974,stimuli/lakes/4080111_left.png,stimuli/lakes/4080111_right.png,,,,0,20,20,111,1,,,,,
,,,,,,$5030337691,2020-07-12_14h04.10.870,fisher_task,2020.1.3,Win32,60,0.166666667,-0.365885417,1,0,0,4.14851,scale,,,,,,0.21373507,0.173205081,0.326485712,0.264575131,stimuli/lakes/304052_left.png,stimuli/lakes/304052_right.png,,,,0,21,21,52,1,,,,,
,,,,,,$5030337691,2020-07-12_14h04.10.870,fisher_task,2020.1.3,Win32,60,-0.165364583,-0.3984375,1,0,0,2.499035,scale,,,,,,0.326485712,0.264575131,0.21373507,0.173205081,stimuli/lakes/7080116_left.png,stimuli/lakes/7080116_right.png,,,space,0,22,22,116,1,10.98165,,,,
,,,,,,$5030337691,2020-07-12_14h04.10.870,fisher_task,2020.1.3,Win32,60,-0.006510417,-0.243489583,1,0,0,2.215685,scale,,,,,,0.349027907,0.282842712,0.174513954,0.141421356,stimuli/lakes/80109_left.png,stimuli/lakes/80109_right.png,,,,0,23,23,9,1,,,,,
,,,,,,$5030337691,2020-07-12_14h04.10.870,fisher_task,2020.1.3,Win32,60,0.166666667,-0.360677083,1,0,0,3.581905,scale,,,,,,0.1234,0.1,0.3702,0.3,stimuli/lakes/105059_left.png,stimuli/lakes/105059_right.png,,,,0,24,24,59,1,,,,,
,,,,,,$5030337691,2020-07-12_14h04.10.870,fisher_task,2020.1.3,Win32,60,0.006510417,-0.239583333,1,0,0,2.765495,scale,,,,,,0.21373507,0.173205081,0.326485712,0.264575131,stimuli/lakes/3090122_left.png,stimuli/lakes/3090122_right.png,,,,0,25,25,122,1,,,,,
,,,,,,$5030337691,2020-07-12_14h04.10.870,fisher_task,2020.1.3,Win32,60,-0.111979167,-0.303385417,1,0,0,2.43242,scale,,,,,,0.275930788,0.223606798,0.275930788,0.223606798,stimuli/lakes/5080113_left.png,stimuli/lakes/5080113_right.png,,,,0,26,26,113,1,,,,,
,,,,,,$5030337691,2020-07-12_14h04.10.870,fisher_task,2020.1.3,Win32,60,0.005208333,-0.23828125,1,0,0,4.11503,scale,,,,,,0.326485712,0.264575131,0.21373507,0.173205081,stimuli/lakes/704056_left.png,stimuli/lakes/704056_right.png,,,,0,27,27,56,1,,,,,
,,,,,,$5030337691,2020-07-12_14h04.10.870,fisher_task,2020.1.3,Win32,60,-0.166666667,-0.35546875,1,0,0,2.099,scale,,,,,,0.326485712,0.264575131,0.21373507,0.173205081,stimuli/lakes/7070104_left.png,stimuli/lakes/7070104_right.png,,,,0,28,28,104,1,,,,,
,,,,,,$5030337691,2020-07-12_14h04.10.870,fisher_task,2020.1.3,Win32,60,0,-0.247395833,1,0,0,2.165585,scale,,,,,,0.21373507,0.173205081,0.326485712,0.264575131,stimuli/lakes/3090121_left.png,stimuli/lakes/3090121_right.png,,,,0,29,29,121,1,,,,,
,,,,,,$5030337691,2020-07-12_14h04.10.870,fisher_task,2020.1.3,Win32,60,0.15625,-0.376302083,1,0,0,2.548725,scale,,,,,,0.21373507,0.173205081,0.326485712,0.264575131,stimuli/lakes/303034_left.png,stimuli/lakes/303034_right.png,,,,0,30,30,34,1,,,,,
,,,,,,$5030337691,2020-07-12_14h04.10.870,fisher_task,2020.1.3,Win32,60,-0.006510417,-0.268229167,1,0,0,2.382475,scale,,,,,,0.21373507,0.173205081,0.326485712,0.264575131,stimuli/lakes/3080109_left.png,stimuli/lakes/3080109_right.png,,,,0,31,31,109,1,,,,,
,,,,,,$5030337691,2020-07-12_14h04.10.870,fisher_task,2020.1.3,Win32,60,-0.001302083,-0.255208333,1,0,0,2.715495,scale,,,,,,0.326485712,0.264575131,0.21373507,0.173205081,stimuli/lakes/704047_left.png,stimuli/lakes/704047_right.png,,,,0,32,32,47,1,,,,,
,,,,,,$5030337691,2020-07-12_14h04.10.870,fisher_task,2020.1.3,Win32,60,0.16796875,-0.373697917,1,0,0,2.91564,scale,,,,,,0.174513954,0.141421356,0.349027907,0.282842712,stimuli/lakes/204051_left.png,stimuli/lakes/204051_right.png,,,,0,33,33,51,1,,,,,
,,,,,,$5030337691,2020-07-12_14h04.10.870,fisher_task,2020.1.3,Win32,60,0.131510417,-0.321614583,1,0,0,3.59862,scale,,,,,,0.275930788,0.223606798,0.275930788,0.223606798,stimuli/lakes/503036_left.png,stimuli/lakes/503036_right.png,,,,0,34,34,36,1,,,,,
,,,,,,$5030337691,2020-07-12_14h04.10.870,fisher_task,2020.1.3,Win32,60,-0.005208333,-0.234375,1,0,0,2.532245,scale,,,,,,0.1234,0.1,0.3702,0.3,stimuli/lakes/1090119_left.png,stimuli/lakes/1090119_right.png,,,,0,35,35,119,1,,,,,
,,,,,,$5030337691,2020-07-12_14h04.10.870,fisher_task,2020.1.3,Win32,60,-0.09765625,-0.266927083,1,0,0,3.49877,scale,,,,,,0.2468,0.2,0.302267034,0.244948974,stimuli/lakes/4090123_left.png,stimuli/lakes/4090123_right.png,,,,0,36,36,123,1,,,,,
,,,,,,$5030337691,2020-07-12_14h04.10.870,fisher_task,2020.1.3,Win32,60,-0.178385417,-0.399739583,1,0,0,2.465735,scale,,,,,,0.3702,0.3,0.1234,0.1,stimuli/lakes/906088_left.png,stimuli/lakes/906088_right.png,,,,0,37,37,88,1,,,,,
,,,,,,$5030337691,2020-07-12_14h04.10.870,fisher_task,2020.1.3,Win32,60,0.14453125,-0.337239583,1,0,0,2.665555,scale,,,,,,0.2468,0.2,0.302267034,0.244948974,stimuli/lakes/40103_left.png,stimuli/lakes/40103_right.png,,,,0,38,38,3,1,,,,,
,,,,,,$5030337691,2020-07-12_14h04.10.870,fisher_task,2020.1.3,Win32,60,-0.173177083,-0.38671875,1,0,0,2.815615,scale,,,,,,0.326485712,0.264575131,0.21373507,0.173205081,stimuli/lakes/7090129_left.png,stimuli/lakes/7090129_right.png,,,,0,39,39,129,1,,,,,
,,,,,,$5030337691,2020-07-12_14h04.10.870,fisher_task,2020.1.3,Win32,60,-0.192708333,-0.427083333,1,0,0,1.83249,scale,,,,,,0.349027907,0.282842712,0.174513954,0.141421356,stimuli/lakes/807096_left.png,stimuli/lakes/807096_right.png,,,,0,40,40,96,1,,,,,
,,,,,,$5030337691,2020-07-12_14h04.10.870,fisher_task,2020.1.3,Win32,60,-0.005208333,-0.2421875,1,0,0,2.582245,scale,,,,,,0.326485712,0.264575131,0.21373507,0.173205081,stimuli/lakes/70107_left.png,stimuli/lakes/70107_right.png,,,,0,41,41,7,1,,,,,
,,,,,,$5030337691,2020-07-12_14h04.10.870,fisher_task,2020.1.3,Win32,60,-0.005208333,-0.2421875,1,0,0,2.249045,scale,,,,,,0.2468,0.2,0.302267034,0.244948974,stimuli/lakes/4070101_left.png,stimuli/lakes/4070101_right.png,,,,0,42,42,101,1,,,,,
,,,,,,$5030337691,2020-07-12_14h04.10.870,fisher_task,2020.1.3,Win32,60,0.16015625,-0.37890625,1,0,0,2.18235,scale,,,,,,0.2468,0.2,0.302267034,0.244948974,stimuli/lakes/402014_left.png,stimuli/lakes/402014_right.png,,,,0,43,43,14,1,,,,,
,,,,,,$5030337691,2020-07-12_14h04.10.870,fisher_task,2020.1.3,Win32,60,-0.161458333,-0.3515625,1,0,0,2.01552,scale,,,,,,0.302267034,0.244948974,0.2468,0.2,stimuli/lakes/6080114_left.png,stimuli/lakes/6080114_right.png,,,space,0,44,44,114,1,15.022945,,,,
,,,,,,$5030337691,2020-07-12_14h04.10.870,fisher_task,2020.1.3,Win32,60,0.145833333,-0.348958333,1,0,0,1.89903,scale,,,,,,0.2468,0.2,0.302267034,0.244948974,stimuli/lakes/403026_left.png,stimuli/lakes/403026_right.png,,,,0,45,45,26,1,,,,,
,,,,,,$5030337691,2020-07-12_14h04.10.870,fisher_task,2020.1.3,Win32,60,-0.005208333,-0.274739583,1,0,0,2.149045,scale,,,,,,0.1234,0.1,0.3702,0.3,stimuli/lakes/106071_left.png,stimuli/lakes/106071_right.png,,,,0,46,46,71,1,,,,,
,,,,,,$5030337691,2020-07-12_14h04.10.870,fisher_task,2020.1.3,Win32,60,-0.166666667,-0.399739583,1,0,0,1.44937,scale,,,,,,0.349027907,0.282842712,0.174513954,0.141421356,stimuli/lakes/8070105_left.png,stimuli/lakes/8070105_right.png,,,,0,47,47,105,1,,,,,
,,,,,,$5030337691,2020-07-12_14h04.10.870,fisher_task,2020.1.3,Win32,60,-0.006510417,-0.244791667,1,0,0,2.2159,scale,,,,,,0.302267034,0.244948974,0.2468,0.2,stimuli/lakes/60105_left.png,stimuli/lakes/60105_right.png,,,,0,48,48,5,1,,,,,
,,,,,,$5030337691,2020-07-12_14h04.10.870,fisher_task,2020.1.3,Win32,60,0.151041667,-0.416666667,1,0,0,1.33245,scale,,,,,,0.21373507,0.173205081,0.326485712,0.264575131,stimuli/lakes/303025_left.png,stimuli/lakes/303025_right.png,,,,0,49,49,25,1,,,,,
,,,,,,$5030337691,2020-07-12_14h04.10.870,fisher_task,2020.1.3,Win32,60,-0.005208333,-0.239583333,1,0,0,2.382485,scale,,,,,,0.302267034,0.244948974,0.2468,0.2,stimuli/lakes/604046_left.png,stimuli/lakes/604046_right.png,,,,0,50,50,46,1,,,,,
,,,,,,$5030337691,2020-07-12_14h04.10.870,fisher_task,2020.1.3,Win32,60,-0.154947917,-0.35546875,1,0,0,1.682525,scale,,,,,,0.326485712,0.264575131,0.21373507,0.173205081,stimuli/lakes/706086_left.png,stimuli/lakes/706086_right.png,,,,0,51,51,86,1,,,,,
,,,,,,$5030337691,2020-07-12_14h04.10.870,fisher_task,2020.1.3,Win32,60,0.177083333,-0.4140625,1,0,0,1.64932,scale,,,,,,0.174513954,0.141421356,0.349027907,0.282842712,stimuli/lakes/202011_left.png,stimuli/lakes/202011_right.png,,,,0,52,52,11,1,,,,,
,,,,,,$5030337691,2020-07-12_14h04.10.870,fisher_task,2020.1.3,Win32,60,0.016927083,-0.25390625,1,0,0,1.849175,scale,,,,,,0.302267034,0.244948974,0.2468,0.2,stimuli/lakes/604055_left.png,stimuli/lakes/604055_right.png,,,,0,53,53,55,1,,,,,
,,,,,,$5030337691,2020-07-12_14h04.10.870,fisher_task,2020.1.3,Win32,60,-0.00390625,-0.2421875,1,0,0,1.565965,scale,,,,,,0.326485712,0.264575131,0.21373507,0.173205081,stimuli/lakes/702020_left.png,stimuli/lakes/702020_right.png,,,,0,54,54,20,1,,,,,
,,,,,,$5030337691,2020-07-12_14h04.10.870,fisher_task,2020.1.3,Win32,60,-0.00390625,-0.2421875,1,0,0,1.549595,scale,,,,,,0.326485712,0.264575131,0.21373507,0.173205081,stimuli/lakes/703038_left.png,stimuli/lakes/703038_right.png,,,,0,55,55,38,1,,,,,
,,,,,,$5030337691,2020-07-12_14h04.10.870,fisher_task,2020.1.3,Win32,60,-0.00390625,-0.2421875,1,0,0,1.4659,scale,,,,,,0.302267034,0.244948974,0.2468,0.2,stimuli/lakes/602018_left.png,stimuli/lakes/602018_right.png,,,,0,56,56,18,1,,,,,
,,,,,,$5030337691,2020-07-12_14h04.10.870,fisher_task,2020.1.3,Win32,60,0.177083333,-0.4140625,1,0,0,2.282345,scale,,,,,,0.2468,0.2,0.302267034,0.244948974,stimuli/lakes/403035_left.png,stimuli/lakes/403035_right.png,,,,0,57,57,35,1,,,,,
,,,,,,$5030337691,2020-07-12_14h04.10.870,fisher_task,2020.1.3,Win32,60,-0.002604167,-0.2578125,1,0,0,1.69933,scale,,,,,,0.21373507,0.173205081,0.326485712,0.264575131,stimuli/lakes/307091_left.png,stimuli/lakes/307091_right.png,,,,0,58,58,91,1,,,,,
,,,,,,$5030337691,2020-07-12_14h04.10.870,fisher_task,2020.1.3,Win32,60,-0.140625,-0.303385417,1,0,0,3.515455,scale,,,,,,0.326485712,0.264575131,0.21373507,0.173205081,stimuli/lakes/705068_left.png,stimuli/lakes/705068_right.png,,,,0,59,59,68,1,,,,,
,,,,,,$5030337691,2020-07-12_14h04.10.870,fisher_task,2020.1.3,Win32,60,-0.01171875,-0.2421875,1,0,0,2.41545,scale,,,,,,0.349027907,0.282842712,0.174513954,0.141421356,stimuli/lakes/804057_left.png,stimuli/lakes/804057_right.png,,,,0,60,60,57,1,,,,,
,,,,,,$5030337691,2020-07-12_14h04.10.870,fisher_task,2020.1.3,Win32,60,-0.184895833,-0.404947917,1,0,0,1.81589,scale,,,,,,0.326485712,0.264575131,0.21373507,0.173205081,stimuli/lakes/707095_left.png,stimuli/lakes/707095_right.png,,,,0,61,61,95,1,,,,,
,,,,,,$5030337691,2020-07-12_14h04.10.870,fisher_task,2020.1.3,Win32,60,-0.15234375,-0.337239583,1,0,0,3.898505,scale,,,,,,0.275930788,0.223606798,0.275930788,0.223606798,stimuli/lakes/5070102_left.png,stimuli/lakes/5070102_right.png,,,,0,62,62,102,1,,,,,
,,,,,,$5030337691,2020-07-12_14h04.10.870,fisher_task,2020.1.3,Win32,60,-0.180989583,-0.408854167,1,0,0,1.61441,scale,,,,,,0.349027907,0.282842712,0.174513954,0.141421356,stimuli/lakes/806078_left.png,stimuli/lakes/806078_right.png,,,,0,63,63,78,1,,,,,
,,,,,,$5030337691,2020-07-12_14h04.10.870,fisher_task,2020.1.3,Win32,60,-0.180989583,-0.427083333,1,0,0,1.315945,scale,,,,,,0.349027907,0.282842712,0.174513954,0.141421356,stimuli/lakes/8080118_left.png,stimuli/lakes/8080118_right.png,,,,0,64,64,118,1,,,,,
,,,,,,$5030337691,2020-07-12_14h04.10.870,fisher_task,2020.1.3,Win32,60,0.161458333,-0.4296875,1,0,0,2.41558,scale,,,,,,0.2468,0.2,0.302267034,0.244948974,stimuli/lakes/404053_left.png,stimuli/lakes/404053_right.png,,,,0,65,65,53,1,,,,,
,,,,,,$5030337691,2020-07-12_14h04.10.870,fisher_task,2020.1.3,Win32,60,-0.013020833,-0.243489583,1,0,0,2.48231,scale,,,,,,0.21373507,0.173205081,0.326485712,0.264575131,stimuli/lakes/306082_left.png,stimuli/lakes/306082_right.png,,,space,0,66,66,82,1,8.18794,,,,
,,,,,,$5030337691,2020-07-12_14h04.10.870,fisher_task,2020.1.3,Win32,60,-0.002604167,-0.239583333,1,0,0,2.315625,scale,,,,,,0.302267034,0.244948974,0.2468,0.2,stimuli/lakes/603028_left.png,stimuli/lakes/603028_right.png,,,,0,67,67,28,1,,,,,
,,,,,,$5030337691,2020-07-12_14h04.10.870,fisher_task,2020.1.3,Win32,60,-0.125,-0.313802083,1,0,0,2.832245,scale,,,,,,0.3702,0.3,0.1234,0.1,stimuli/lakes/905070_left.png,stimuli/lakes/905070_right.png,,,,0,68,68,70,1,,,,,
,,,,,,$5030337691,2020-07-12_14h04.10.870,fisher_task,2020.1.3,Win32,60,-0.13671875,-0.319010417,1,0,0,2.68238,scale,,,,,,0.275930788,0.223606798,0.275930788,0.223606798,stimuli/lakes/506075_left.png,stimuli/lakes/506075_right.png,,,,0,69,69,75,1,,,,,
,,,,,,$5030337691,2020-07-12_14h04.10.870,fisher_task,2020.1.3,Win32,60,0.122395833,-0.290364583,1,0,0,3.94812,scale,,,,,,0.2468,0.2,0.302267034,0.244948974,stimuli/lakes/405064_left.png,stimuli/lakes/405064_right.png,,,,0,70,70,64,1,,,,,
,,,,,,$5030337691,2020-07-12_14h04.10.870,fisher_task,2020.1.3,Win32,60,-0.0078125,-0.225260417,1,0,0,4.331645,scale,,,,,,0.21373507,0.173205081,0.326485712,0.264575131,stimuli/lakes/3070100_left.png,stimuli/lakes/3070100_right.png,,,,0,71,71,100,1,,,,,
,,,,,,$5030337691,2020-07-12_14h04.10.870,fisher_task,2020.1.3,Win32,60,-0.1875,-0.424479167,1,0,0,1.81594,scale,,,,,,0.326485712,0.264575131,0.21373507,0.173205081,stimuli/lakes/7090128_left.png,stimuli/lakes/7090128_right.png,,,,0,72,72,128,1,,,,,
,,,,,,$5030337691,2020-07-12_14h04.10.870,fisher_task,2020.1.3,Win32,60,0.0078125,-0.233072917,1,0,0,2.182345,scale,,,,,,0.2468,0.2,0.302267034,0.244948974,stimuli/lakes/406074_left.png,stimuli/lakes/406074_right.png,,,,0,73,73,74,1,,,,,
,,,,,,$5030337691,2020-07-12_14h04.10.870,fisher_task,2020.1.3,Win32,60,-0.009114583,-0.2265625,1,0,0,1.74918,scale,,,,,,0.174513954,0.141421356,0.349027907,0.282842712,stimuli/lakes/2080108_left.png,stimuli/lakes/2080108_right.png,,,,0,74,74,108,1,,,,,
,,,,,,$5030337691,2020-07-12_14h04.10.870,fisher_task,2020.1.3,Win32,60,-0.00390625,-0.256510417,1,0,0,1.649025,scale,,,,,,0.326485712,0.264575131,0.21373507,0.173205081,stimuli/lakes/703029_left.png,stimuli/lakes/703029_right.png,,,,0,75,75,29,1,,,,,
,,,,,,$5030337691,2020-07-12_14h04.10.870,fisher_task,2020.1.3,Win32,60,0.154947917,-0.33203125,1,0,0,2.165715,scale,,,,,,0.275930788,0.223606798,0.275930788,0.223606798,stimuli/lakes/50104_left.png,stimuli/lakes/50104_right.png,,,,0,76,76,4,1,,,,,
,,,,,,$5030337691,2020-07-12_14h04.10.870,fisher_task,2020.1.3,Win32,60,-0.188802083,-0.419270833,1,0,0,4.71497,scale,,,,,,0.302267034,0.244948974,0.2468,0.2,stimuli/lakes/606076_left.png,stimuli/lakes/606076_right.png,,,,0,77,77,76,1,,,,,
,,,,,,$5030337691,2020-07-12_14h04.10.870,fisher_task,2020.1.3,Win32,60,0.182291667,-0.421875,1,0,0,1.93238,scale,,,,,,0.2468,0.2,0.302267034,0.244948974,stimuli/lakes/40102_left.png,stimuli/lakes/40102_right.png,,,,0,78,78,2,1,,,,,
,,,,,,$5030337691,2020-07-12_14h04.10.870,fisher_task,2020.1.3,Win32,60,-0.009114583,-0.240885417,1,0,0,4.49834,scale,,,,,,0.174513954,0.141421356,0.349027907,0.282842712,stimuli/lakes/206072_left.png,stimuli/lakes/206072_right.png,,,,0,79,79,72,1,,,,,
,,,,,,$5030337691,2020-07-12_14h04.10.870,fisher_task,2020.1.3,Win32,60,0.13671875,-0.325520833,1,0,0,3.998595,scale,,,,,,0.174513954,0.141421356,0.349027907,0.282842712,stimuli/lakes/205060_left.png,stimuli/lakes/205060_right.png,,,,0,80,80,60,1,,,,,
,,,,,,$5030337691,2020-07-12_14h04.10.870,fisher_task,2020.1.3,Win32,60,0,-0.24609375,1,0,0,1.98248,scale,,,,,,0.326485712,0.264575131,0.21373507,0.173205081,stimuli/lakes/70108_left.png,stimuli/lakes/70108_right.png,,,,0,81,81,8,1,,,,,
,,,,,,$5030337691,2020-07-12_14h04.10.870,fisher_task,2020.1.3,Win32,60,0,-0.24609375,1,0,0,1.01605,scale,,,,,,0.349027907,0.282842712,0.174513954,0.141421356,stimuli/lakes/803030_left.png,stimuli/lakes/803030_right.png,,,,0,82,82,30,1,,,,,
,,,,,,$5030337691,2020-07-12_14h04.10.870,fisher_task,2020.1.3,Win32,60,-0.182291667,-0.407552083,1,0,0,1.68271,scale,,,,,,0.302267034,0.244948974,0.2468,0.2,stimuli/lakes/6090126_left.png,stimuli/lakes/6090126_right.png,,,,0,83,83,126,1,,,,,
,,,,,,$5030337691,2020-07-12_14h04.10.870,fisher_task,2020.1.3,Win32,60,0.00390625,-0.234375,1,0,0,2.848915,scale,,,,,,0.3702,0.3,0.1234,0.1,stimuli/lakes/904049_left.png,stimuli/lakes/904049_right.png,,,,0,84,84,49,1,,,,,
,,,,,,$5030337691,2020-07-12_14h04.10.870,fisher_task,2020.1.3,Win32,60,-0.1875,-0.412760417,1,0,0,1.59932,scale,,,,,,0.302267034,0.244948974,0.2468,0.2,stimuli/lakes/6080115_left.png,stimuli/lakes/6080115_right.png,,,,0,85,85,115,1,,,,,
,,,,,,$5030337691,2020-07-12_14h04.10.870,fisher_task,2020.1.3,Win32,60,-0.002604167,-0.229166667,1,0,0,2.31575,scale,,,,,,0.302267034,0.244948974,0.2468,0.2,stimuli/lakes/603037_left.png,stimuli/lakes/603037_right.png,,,,0,86,86,37,1,,,,,
,,,,,,$5030337691,2020-07-12_14h04.10.870,fisher_task,2020.1.3,Win32,60,-0.178385417,-0.399739583,1,0,0,3.265525,scale,,,,,,0.302267034,0.244948974,0.2468,0.2,stimuli/lakes/6070103_left.png,stimuli/lakes/6070103_right.png,,,,0,87,87,103,1,,,,,
,,,,,,$5030337691,2020-07-12_14h04.10.870,fisher_task,2020.1.3,Win32,60,0.001302083,-0.244791667,1,0,0,2.032405,scale,,,,,,0.2468,0.2,0.302267034,0.244948974,stimuli/lakes/406083_left.png,stimuli/lakes/406083_right.png,,,space,0,88,88,83,1,5.59621,,,,
,,,,,,$5030337691,2020-07-12_14h04.10.870,fisher_task,2020.1.3,Win32,60,0.002604167,-0.244791667,1,0,0,1.04907,scale,,,,,,0.3702,0.3,0.1234,0.1,stimuli/lakes/902022_left.png,stimuli/lakes/902022_right.png,,,,0,89,89,22,1,,,,,
,,,,,,$5030337691,2020-07-12_14h04.10.870,fisher_task,2020.1.3,Win32,60,0.002604167,-0.244791667,1,0,0,1.89912,scale,,,,,,0.1234,0.1,0.3702,0.3,stimuli/lakes/106080_left.png,stimuli/lakes/106080_right.png,,,,0,90,90,80,1,,,,,
,,,,,,$5030337691,2020-07-12_14h04.10.870,fisher_task,2020.1.3,Win32,60,0.002604167,-0.244791667,1,0,0,2.21567,scale,,,,,,0.174513954,0.141421356,0.349027907,0.282842712,stimuli/lakes/206081_left.png,stimuli/lakes/206081_right.png,,,,0,91,91,81,1,,,,,
,,,,,,$5030337691,2020-07-12_14h04.10.870,fisher_task,2020.1.3,Win32,60,-0.186197917,-0.42578125,1,0,0,1.96588,scale,,,,,,0.3702,0.3,0.1234,0.1,stimuli/lakes/907097_left.png,stimuli/lakes/907097_right.png,,,,0,92,92,97,1,,,,,
,,,,,,$5030337691,2020-07-12_14h04.10.870,fisher_task,2020.1.3,Win32,60,-0.192708333,-0.432291667,1,0,0,1.79914,scale,,,,,,0.3702,0.3,0.1234,0.1,stimuli/lakes/9070106_left.png,stimuli/lakes/9070106_right.png,,,,0,93,93,106,1,,,,,
,,,,,,$5030337691,2020-07-12_14h04.10.870,fisher_task,2020.1.3,Win32,60,-0.002604167,-0.256510417,1,0,0,2.34894,scale,,,,,,0.3702,0.3,0.1234,0.1,stimuli/lakes/903031_left.png,stimuli/lakes/903031_right.png,,,,0,94,94,31,1,,,,,
,,,,,,$5030337691,2020-07-12_14h04.10.870,fisher_task,2020.1.3,Win32,60,0.158854167,-0.432291667,1,0,0,2.26567,scale,,,,,,0.1234,0.1,0.3702,0.3,stimuli/lakes/104041_left.png,stimuli/lakes/104041_right.png,,,,0,95,95,41,1,,,,,
,,,,,,$5030337691,2020-07-12_14h04.10.870,fisher_task,2020.1.3,Win32,60,-0.154947917,-0.333333333,1,0,0,2.465525,scale,,,,,,0.275930788,0.223606798,0.275930788,0.223606798,stimuli/lakes/5090125_left.png,stimuli/lakes/5090125_right.png,,,,0,96,96,125,1,,,,,
,,,,,,$5030337691,2020-07-12_14h04.10.870,fisher_task,2020.1.3,Win32,60,-0.154947917,-0.333333333,1,0,0,1.28269,scale,,,,,,0.275930788,0.223606798,0.275930788,0.223606798,stimuli/lakes/506084_left.png,stimuli/lakes/506084_right.png,,,,0,97,97,84,1,,,,,
,,,,,,$5030337691,2020-07-12_14h04.10.870,fisher_task,2020.1.3,Win32,60,0.079427083,-0.25390625,1,0,0,4.798245,scale,,,,,,0.302267034,0.244948974,0.2468,0.2,stimuli/lakes/60106_left.png,stimuli/lakes/60106_right.png,,,,0,98,98,6,1,,,,,
,,,,,,$5030337691,2020-07-12_14h04.10.870,fisher_task,2020.1.3,Win32,60,0.145833333,-0.317708333,1,0,0,2.29904,scale,,,,,,0.275930788,0.223606798,0.275930788,0.223606798,stimuli/lakes/502016_left.png,stimuli/lakes/502016_right.png,,,,0,99,99,16,1,,,,,
,,,,,,$5030337691,2020-07-12_14h04.10.870,fisher_task,2020.1.3,Win32,60,0.145833333,-0.317708333,1,0,0,1.73261,scale,,,,,,0.275930788,0.223606798,0.275930788,0.223606798,stimuli/lakes/503027_left.png,stimuli/lakes/503027_right.png,,,,0,100,100,27,1,,,,,
,,,,,,$5030337691,2020-07-12_14h04.10.870,fisher_task,2020.1.3,Win32,60,-0.0078125,-0.243489583,1,0,0,2.58235,scale,,,,,,0.174513954,0.141421356,0.349027907,0.282842712,stimuli/lakes/207099_left.png,stimuli/lakes/207099_right.png,,,,0,101,101,99,1,,,,,
,,,,,,$5030337691,2020-07-12_14h04.10.870,fisher_task,2020.1.3,Win32,60,-0.10546875,-0.28515625,1,0,0,2.21601,scale,,,,,,0.326485712,0.264575131,0.21373507,0.173205081,stimuli/lakes/705067_left.png,stimuli/lakes/705067_right.png,,,,0,102,102,67,1,,,,,
,,,,,,$5030337691,2020-07-12_14h04.10.870,fisher_task,2020.1.3,Win32,60,-0.16796875,-0.373697917,1,0,0,4.548445,scale,,,,,,0.326485712,0.264575131,0.21373507,0.173205081,stimuli/lakes/706077_left.png,stimuli/lakes/706077_right.png,,,,0,103,103,77,1,,,,,
,,,,,,$5030337691,2020-07-12_14h04.10.870,fisher_task,2020.1.3,Win32,60,0.174479167,-0.421875,1,0,0,2.032635,scale,,,,,,0.21373507,0.173205081,0.326485712,0.264575131,stimuli/lakes/302013_left.png,stimuli/lakes/302013_right.png,,,,0,104,104,13,1,,,,,
,,,,,,$5030337691,2020-07-12_14h04.10.870,fisher_task,2020.1.3,Win32,60,-0.182291667,-0.420572917,1,0,0,2.43228,scale,,,,,,0.302267034,0.244948974,0.2468,0.2,stimuli/lakes/6090127_left.png,stimuli/lakes/6090127_right.png,,,,0,105,105,127,1,,,,,
,,,,,,$5030337691,2020-07-12_14h04.10.870,fisher_task,2020.1.3,Win32,60,0.001302083,-0.247395833,1,0,0,1.566125,scale,,,,,,0.2468,0.2,0.302267034,0.244948974,stimuli/lakes/4090124_left.png,stimuli/lakes/4090124_right.png,,,,0,106,106,124,1,,,,,
,,,,,,$5030337691,2020-07-12_14h04.10.870,fisher_task,2020.1.3,Win32,60,0.009114583,-0.248697917,1,0,0,2.549115,scale,,,,,,0.174513954,0.141421356,0.349027907,0.282842712,stimuli/lakes/207090_left.png,stimuli/lakes/207090_right.png,,,,0,107,107,90,1,,,,,
,,,,,,$5030337691,2020-07-12_14h04.10.870,fisher_task,2020.1.3,Win32,60,0.022135417,-0.227864583,1,0,0,3.698655,scale,,,,,,0.2468,0.2,0.302267034,0.244948974,stimuli/lakes/407092_left.png,stimuli/lakes/407092_right.png,,,,0,108,108,92,1,,,,,
,,,,,,$5030337691,2020-07-12_14h04.10.870,fisher_task,2020.1.3,Win32,60,-0.010416667,-0.233072917,1,0,0,1.49936,scale,,,,,,0.2468,0.2,0.302267034,0.244948974,stimuli/lakes/4080112_left.png,stimuli/lakes/4080112_right.png,,,,0,109,109,112,1,,,,,
,,,,,,$5030337691,2020-07-12_14h04.10.870,fisher_task,2020.1.3,Win32,60,-0.170572917,-0.40234375,1,0,0,2.73201,scale,,,,,,0.302267034,0.244948974,0.2468,0.2,stimuli/lakes/606085_left.png,stimuli/lakes/606085_right.png,,,space,0,110,110,85,1,4.70128,,,,
,,,,,,$5030337691,2020-07-12_14h04.10.870,fisher_task,2020.1.3,Win32,60,0.162760417,-0.42578125,1,0,0,3.681705,scale,,,,,,0.174513954,0.141421356,0.349027907,0.282842712,stimuli/lakes/203033_left.png,stimuli/lakes/203033_right.png,,,,0,111,111,33,1,,,,,
,,,,,,$5030337691,2020-07-12_14h04.10.870,fisher_task,2020.1.3,Win32,60,0.14453125,-0.329427083,1,0,0,2.31571,scale,,,,,,0.2468,0.2,0.302267034,0.244948974,stimuli/lakes/405063_left.png,stimuli/lakes/405063_right.png,,,,0,112,112,63,1,,,,,
,,,,,,$5030337691,2020-07-12_14h04.10.870,fisher_task,2020.1.3,Win32,60,0.166666667,-0.420572917,1,0,0,3.415195,scale,,,,,,0.21373507,0.173205081,0.326485712,0.264575131,stimuli/lakes/304043_left.png,stimuli/lakes/304043_right.png,,,,0,113,113,43,1,,,,,
,,,,,,$5030337691,2020-07-12_14h04.10.870,fisher_task,2020.1.3,Win32,60,0.17578125,-0.4296875,1,0,0,2.54897,scale,,,,,,0.1234,0.1,0.3702,0.3,stimuli/lakes/103023_left.png,stimuli/lakes/103023_right.png,,,,0,114,114,23,1,,,,,
,,,,,,$5030337691,2020-07-12_14h04.10.870,fisher_task,2020.1.3,Win32,60,-0.0078125,-0.236979167,1,0,0,1.93246,scale,,,,,,0.349027907,0.282842712,0.174513954,0.141421356,stimuli/lakes/802021_left.png,stimuli/lakes/802021_right.png,,,,0,115,115,21,1,,,,,
,,,,,,$5030337691,2020-07-12_14h04.10.870,fisher_task,2020.1.3,Win32,60,-0.1015625,-0.26953125,1,0,0,4.215115,scale,,,,,,0.302267034,0.244948974,0.2468,0.2,stimuli/lakes/605066_left.png,stimuli/lakes/605066_right.png,,,,0,116,116,66,1,,,,,
,,,,,,$5030337691,2020-07-12_14h04.10.870,fisher_task,2020.1.3,Win32,60,-0.013020833,-0.233072917,1,0,0,1.799355,scale,,,,,,0.1234,0.1,0.3702,0.3,stimuli/lakes/1080107_left.png,stimuli/lakes/1080107_right.png,,,,0,117,117,107,1,,,,,
,,,,,,$5030337691,2020-07-12_14h04.10.870,fisher_task,2020.1.3,Win32,60,0.09375,-0.266927083,1,0,0,3.031895,scale,,,,,,0.275930788,0.223606798,0.275930788,0.223606798,stimuli/lakes/504045_left.png,stimuli/lakes/504045_right.png,,,,0,118,118,45,1,,,,,
,,,,,,$5030337691,2020-07-12_14h04.10.870,fisher_task,2020.1.3,Win32,60,0.170572917,-0.388020833,1,0,0,3.44871,scale,,,,,,0.1234,0.1,0.3702,0.3,stimuli/lakes/104050_left.png,stimuli/lakes/104050_right.png,,,,0,119,119,50,1,,,,,
,,,,,,$5030337691,2020-07-12_14h04.10.870,fisher_task,2020.1.3,Win32,60,0.17578125,-0.424479167,1,0,0,2.115795,scale,,,,,,0.2468,0.2,0.302267034,0.244948974,stimuli/lakes/402015_left.png,stimuli/lakes/402015_right.png,,,,0,120,120,15,1,,,,,
,,,,,,$5030337691,2020-07-12_14h04.10.870,fisher_task,2020.1.3,Win32,60,0.0078125,-0.25,1,0,0,2.482315,scale,,,,,,0.3702,0.3,0.1234,0.1,stimuli/lakes/903040_left.png,stimuli/lakes/903040_right.png,,,,0,121,121,40,1,,,,,
,,,,,,$5030337691,2020-07-12_14h04.10.870,fisher_task,2020.1.3,Win32,60,-0.1328125,-0.28515625,1,0,0,3.63195,scale,,,,,,0.302267034,0.244948974,0.2468,0.2,stimuli/lakes/605065_left.png,stimuli/lakes/605065_right.png,,,,0,122,122,65,1,,,,,
,,,,,,$5030337691,2020-07-12_14h04.10.870,fisher_task,2020.1.3,Win32,60,-0.001302083,-0.251302083,1,0,0,2.132405,scale,,,,,,0.349027907,0.282842712,0.174513954,0.141421356,stimuli/lakes/804048_left.png,stimuli/lakes/804048_right.png,,,,0,123,123,48,1,,,,,
,,,,,,$5030337691,2020-07-12_14h04.10.870,fisher_task,2020.1.3,Win32,60,-0.122395833,-0.28125,1,0,0,3.298805,scale,,,,,,0.349027907,0.282842712,0.174513954,0.141421356,stimuli/lakes/805069_left.png,stimuli/lakes/805069_right.png,,,,0,124,124,69,1,,,,,
,,,,,,$5030337691,2020-07-12_14h04.10.870,fisher_task,2020.1.3,Win32,60,-0.010416667,-0.229166667,1,0,0,1.78253,scale,,,,,,0.1234,0.1,0.3702,0.3,stimuli/lakes/107098_left.png,stimuli/lakes/107098_right.png,,,,0,125,125,98,1,,,,,
,,,,,,$5030337691,2020-07-12_14h04.10.870,fisher_task,2020.1.3,Win32,60,0.171875,-0.412760417,1,0,0,2.132385,scale,,,,,,0.174513954,0.141421356,0.349027907,0.282842712,stimuli/lakes/203024_left.png,stimuli/lakes/203024_right.png,,,,0,126,126,24,1,,,,,
,,,,,,$5030337691,2020-07-12_14h04.10.870,fisher_task,2020.1.3,Win32,60,-0.130208333,-0.302083333,1,0,0,2.28239,scale,,,,,,0.275930788,0.223606798,0.275930788,0.223606798,stimuli/lakes/507093_left.png,stimuli/lakes/507093_right.png,,,,0,127,127,93,1,,,,,
,,,,,,$5030337691,2020-07-12_14h04.10.870,fisher_task,2020.1.3,Win32,60,0.01953125,-0.223958333,1,0,0,2.665485,scale,,,,,,0.349027907,0.282842712,0.174513954,0.141421356,stimuli/lakes/803039_left.png,stimuli/lakes/803039_right.png,,,,0,128,128,39,1,,,,,
,,,,,,$5030337691,2020-07-12_14h04.10.870,fisher_task,2020.1.3,Win32,60,0.1796875,-0.412760417,1,0,0,2.032415,scale,,,,,,0.21373507,0.173205081,0.326485712,0.264575131,stimuli/lakes/302012_left.png,stimuli/lakes/302012_right.png,,,,0,129,129,12,1,,,,,
,,,,,,$5030337691,2020-07-12_14h04.10.870,fisher_task,2020.1.3,Win32,60,,,,,,,,,,,,,,,,,,,,,,,,,,,,space,19.48274,space,74.37036
