keySpace.keys,instructions.thisRepN,instructions.thisTrialN,instructions.thisN,instructions.thisIndex,instructions.ran,participant,date,expName,psychopyVersion,OS,frameRate,mouse.x,mouse.y,mouse.leftButton,mouse.midButton,mouse.rightButton,mouse.time,mouse.clicked_name,training.thisRepN,training.thisTrialN,training.thisN,training.thisIndex,training.ran,widthBasketLeft,heightBasketLeft,widthBasketRight,heightBasketRight,leftLake,rightLake,space2.keys,space2.rt,space1.keys,trials.thisRepN,trials.thisTrialN,trials.thisN,trials.thisIndex,trials.ran,space1.rt,finalSpace1.keys,finalSpace1.rt,finalSpace2.keys,finalSpace2.rt
,0,0,0,0,1,$7445891724,2020-07-12_20h15.37.485,fisher_task,2020.1.3,Win32,60,,,,,,,,,,,,,,,,,,,,,,,,,,,,,,,
,,,,,,$7445891724,2020-07-12_20h15.37.485,fisher_task,2020.1.3,Win32,60,0.187962963,-0.417592593,1,0,0,2.01807,scale,0,0,0,0,1,0.275930788,0.223606798,0.275930788,0.223606798,stimuli/training/20_left.png,stimuli/training/20_right.png,,,,,,,,,,,,,
,,,,,,$7445891724,2020-07-12_20h15.37.485,fisher_task,2020.1.3,Win32,60,-0.128703704,-0.303703704,1,0,0,1.88481,scale,0,1,1,1,1,0.275930788,0.223606798,0.275930788,0.223606798,stimuli/training/80_left.png,stimuli/training/80_right.png,,,,,,,,,,,,,
,,,,,,$7445891724,2020-07-12_20h15.37.485,fisher_task,2020.1.3,Win32,60,0.17037037,-0.427777778,1,0,0,2.01735,scale,0,2,2,2,1,0.174513954,0.141421356,0.349027907,0.282842712,stimuli/training/50_left.png,stimuli/training/50_right.png,,,,,,,,,,,,,
,,,,,,$7445891724,2020-07-12_20h15.37.485,fisher_task,2020.1.3,Win32,60,-0.158333333,-0.364814815,1,0,0,2.217975,scale,0,3,3,3,1,0.349027907,0.282842712,0.174513954,0.141421356,stimuli/training/50_left.png,stimuli/training/50_right.png,,,,,,,,,,,,,
,,,,,,$7445891724,2020-07-12_20h15.37.485,fisher_task,2020.1.3,Win32,60,-0.000925926,-0.25,1,0,0,2.41856,scale,0,4,4,4,1,0.275930788,0.223606798,0.275930788,0.223606798,stimuli/training/50_left.png,stimuli/training/50_right.png,,,,,,,,,,,,,
,,,,,,$7445891724,2020-07-12_20h15.37.485,fisher_task,2020.1.3,Win32,60,0.187037037,-0.423148148,1,0,0,1.81793,scale,0,5,5,5,1,0.174513954,0.141421356,0.349027907,0.282842712,stimuli/training/20_left.png,stimuli/training/20_right.png,,,,,,,,,,,,,
,,,,,,$7445891724,2020-07-12_20h15.37.485,fisher_task,2020.1.3,Win32,60,-0.162962963,-0.425925926,1,0,0,1.434315,scale,0,6,6,6,1,0.349027907,0.282842712,0.174513954,0.141421356,stimuli/training/80_left.png,stimuli/training/80_right.png,,,,,,,,,,,,,
,,,,,,$7445891724,2020-07-12_20h15.37.485,fisher_task,2020.1.3,Win32,60,0.158333333,-0.425925926,1,0,0,1.48398,scale,0,7,7,7,1,0.1234,0.1,0.3702,0.3,stimuli/training/30_left.png,stimuli/training/30_right.png,,,,,,,,,,,,,
,,,,,,$7445891724,2020-07-12_20h15.37.485,fisher_task,2020.1.3,Win32,60,-0.173148148,-0.423148148,1,0,0,1.58406,scale,0,8,8,8,1,0.3702,0.3,0.1234,0.1,stimuli/training/70_left.png,stimuli/training/70_right.png,,,,,,,,,,,,,
,,,,,,$7445891724,2020-07-12_20h15.37.485,fisher_task,2020.1.3,Win32,60,-0.160185185,-0.425,1,0,0,1.68406,scale,0,9,9,9,1,0.326485712,0.264575131,0.21373507,0.173205081,stimuli/training/90_left.png,stimuli/training/90_right.png,,,,,,,,,,,,,
,,,,,,$7445891724,2020-07-12_20h15.37.485,fisher_task,2020.1.3,Win32,60,0.162037037,-0.427777778,1,0,0,1.567455,scale,0,10,10,10,1,0.21373507,0.173205081,0.326485712,0.264575131,stimuli/training/10_left.png,stimuli/training/10_right.png,,,,,,,,,,,,,
,,,,,,$7445891724,2020-07-12_20h15.37.485,fisher_task,2020.1.3,Win32,60,-0.002777778,-0.269444444,1,0,0,1.93535,scale,,,,,,0.302267034,0.244948974,0.2468,0.2,stimuli/lakes/60106_left.png,stimuli/lakes/60106_right.png,space,11.27015,,0,0,0,6,1,,,,,
,,,,,,$7445891724,2020-07-12_20h15.37.485,fisher_task,2020.1.3,Win32,60,0.115740741,-0.325,1,0,0,2.70267,scale,,,,,,0.21373507,0.173205081,0.326485712,0.264575131,stimuli/lakes/3080109_left.png,stimuli/lakes/3080109_right.png,,,,0,1,1,109,1,,,,,
,,,,,,$7445891724,2020-07-12_20h15.37.485,fisher_task,2020.1.3,Win32,60,-0.166666667,-0.416666667,1,0,0,1.36713,scale,,,,,,0.302267034,0.244948974,0.2468,0.2,stimuli/lakes/6080115_left.png,stimuli/lakes/6080115_right.png,,,,0,2,2,115,1,,,,,
,,,,,,$7445891724,2020-07-12_20h15.37.485,fisher_task,2020.1.3,Win32,60,-0.116666667,-0.316666667,1,0,0,1.818615,scale,,,,,,0.349027907,0.282842712,0.174513954,0.141421356,stimuli/lakes/805069_left.png,stimuli/lakes/805069_right.png,,,,0,3,3,69,1,,,,,
,,,,,,$7445891724,2020-07-12_20h15.37.485,fisher_task,2020.1.3,Win32,60,-0.165740741,-0.428703704,1,0,0,1.401885,scale,,,,,,0.349027907,0.282842712,0.174513954,0.141421356,stimuli/lakes/8080118_left.png,stimuli/lakes/8080118_right.png,,,,0,4,4,118,1,,,,,
,,,,,,$7445891724,2020-07-12_20h15.37.485,fisher_task,2020.1.3,Win32,60,-0.173148148,-0.426851852,1,0,0,1.418405,scale,,,,,,0.349027907,0.282842712,0.174513954,0.141421356,stimuli/lakes/807096_left.png,stimuli/lakes/807096_right.png,,,,0,5,5,96,1,,,,,
,,,,,,$7445891724,2020-07-12_20h15.37.485,fisher_task,2020.1.3,Win32,60,0.168518519,-0.415740741,1,0,0,1.41752,scale,,,,,,0.21373507,0.173205081,0.326485712,0.264575131,stimuli/lakes/304043_left.png,stimuli/lakes/304043_right.png,,,,0,6,6,43,1,,,,,
,,,,,,$7445891724,2020-07-12_20h15.37.485,fisher_task,2020.1.3,Win32,60,-0.101851852,-0.311111111,1,0,0,3.01982,scale,,,,,,0.3702,0.3,0.1234,0.1,stimuli/lakes/904049_left.png,stimuli/lakes/904049_right.png,,,,0,7,7,49,1,,,,,
,,,,,,$7445891724,2020-07-12_20h15.37.485,fisher_task,2020.1.3,Win32,60,0.161111111,-0.426851852,1,0,0,1.55056,scale,,,,,,0.174513954,0.141421356,0.349027907,0.282842712,stimuli/lakes/202011_left.png,stimuli/lakes/202011_right.png,,,,0,8,8,11,1,,,,,
,,,,,,$7445891724,2020-07-12_20h15.37.485,fisher_task,2020.1.3,Win32,60,-0.161111111,-0.366666667,1,0,0,1.801195,scale,,,,,,0.349027907,0.282842712,0.174513954,0.141421356,stimuli/lakes/806087_left.png,stimuli/lakes/806087_right.png,,,,0,9,9,87,1,,,,,
,,,,,,$7445891724,2020-07-12_20h15.37.485,fisher_task,2020.1.3,Win32,60,0.159259259,-0.410185185,1,0,0,2.20122,scale,,,,,,0.1234,0.1,0.3702,0.3,stimuli/lakes/103032_left.png,stimuli/lakes/103032_right.png,,,,0,10,10,32,1,,,,,
,,,,,,$7445891724,2020-07-12_20h15.37.485,fisher_task,2020.1.3,Win32,60,-0.133333333,-0.326851852,1,0,0,2.13531,scale,,,,,,0.326485712,0.264575131,0.21373507,0.173205081,stimuli/lakes/705068_left.png,stimuli/lakes/705068_right.png,,,,0,11,11,68,1,,,,,
,,,,,,$7445891724,2020-07-12_20h15.37.485,fisher_task,2020.1.3,Win32,60,0.123148148,-0.306481481,1,0,0,2.11835,scale,,,,,,0.275930788,0.223606798,0.275930788,0.223606798,stimuli/lakes/503036_left.png,stimuli/lakes/503036_right.png,,,,0,12,12,36,1,,,,,
,,,,,,$7445891724,2020-07-12_20h15.37.485,fisher_task,2020.1.3,Win32,60,0.141666667,-0.306481481,1,0,0,3.0022,scale,,,,,,0.326485712,0.264575131,0.21373507,0.173205081,stimuli/lakes/703038_left.png,stimuli/lakes/703038_right.png,,,,0,13,13,38,1,,,,,
,,,,,,$7445891724,2020-07-12_20h15.37.485,fisher_task,2020.1.3,Win32,60,0.134259259,-0.418518519,1,0,0,2.13496,scale,,,,,,0.174513954,0.141421356,0.349027907,0.282842712,stimuli/lakes/203033_left.png,stimuli/lakes/203033_right.png,,,,0,14,14,33,1,,,,,
,,,,,,$7445891724,2020-07-12_20h15.37.485,fisher_task,2020.1.3,Win32,60,0.1,-0.290740741,1,0,0,2.1019,scale,,,,,,0.2468,0.2,0.302267034,0.244948974,stimuli/lakes/406083_left.png,stimuli/lakes/406083_right.png,,,,0,15,15,83,1,,,,,
,,,,,,$7445891724,2020-07-12_20h15.37.485,fisher_task,2020.1.3,Win32,60,-0.168518519,-0.415740741,1,0,0,1.684755,scale,,,,,,0.326485712,0.264575131,0.21373507,0.173205081,stimuli/lakes/7090128_left.png,stimuli/lakes/7090128_right.png,,,,0,16,16,128,1,,,,,
,,,,,,$7445891724,2020-07-12_20h15.37.485,fisher_task,2020.1.3,Win32,60,-0.164814815,-0.378703704,1,0,0,2.485785,scale,,,,,,0.326485712,0.264575131,0.21373507,0.173205081,stimuli/lakes/707095_left.png,stimuli/lakes/707095_right.png,,,,0,17,17,95,1,,,,,
,,,,,,$7445891724,2020-07-12_20h15.37.485,fisher_task,2020.1.3,Win32,60,0.159259259,-0.401851852,1,0,0,2.46867,scale,,,,,,0.275930788,0.223606798,0.275930788,0.223606798,stimuli/lakes/504054_left.png,stimuli/lakes/504054_right.png,,,,0,18,18,54,1,,,,,
,,,,,,$7445891724,2020-07-12_20h15.37.485,fisher_task,2020.1.3,Win32,60,0.138888889,-0.403703704,1,0,0,2.11847,scale,,,,,,0.1234,0.1,0.3702,0.3,stimuli/lakes/103023_left.png,stimuli/lakes/103023_right.png,,,,0,19,19,23,1,,,,,
,,,,,,$7445891724,2020-07-12_20h15.37.485,fisher_task,2020.1.3,Win32,60,-0.17962963,-0.403703704,1,0,0,1.834635,scale,,,,,,0.326485712,0.264575131,0.21373507,0.173205081,stimuli/lakes/706086_left.png,stimuli/lakes/706086_right.png,,,,0,20,20,86,1,,,,,
,,,,,,$7445891724,2020-07-12_20h15.37.485,fisher_task,2020.1.3,Win32,60,-0.080555556,-0.261111111,1,0,0,3.185955,scale,,,,,,0.21373507,0.173205081,0.326485712,0.264575131,stimuli/lakes/3080110_left.png,stimuli/lakes/3080110_right.png,,,,0,21,21,110,1,,,,,
,,,,,,$7445891724,2020-07-12_20h15.37.485,fisher_task,2020.1.3,Win32,60,-0.119444444,-0.303703704,1,0,0,3.485965,scale,,,,,,0.21373507,0.173205081,0.326485712,0.264575131,stimuli/lakes/3090122_left.png,stimuli/lakes/3090122_right.png,,,space,0,22,22,122,1,16.98741,,,,
,,,,,,$7445891724,2020-07-12_20h15.37.485,fisher_task,2020.1.3,Win32,60,0.07037037,-0.243518519,1,0,0,4.738045,scale,,,,,,0.326485712,0.264575131,0.21373507,0.173205081,stimuli/lakes/70107_left.png,stimuli/lakes/70107_right.png,,,,0,23,23,7,1,,,,,
,,,,,,$7445891724,2020-07-12_20h15.37.485,fisher_task,2020.1.3,Win32,60,-0.098148148,-0.281481481,1,0,0,3.402635,scale,,,,,,0.275930788,0.223606798,0.275930788,0.223606798,stimuli/lakes/506075_left.png,stimuli/lakes/506075_right.png,,,,0,24,24,75,1,,,,,
,,,,,,$7445891724,2020-07-12_20h15.37.485,fisher_task,2020.1.3,Win32,60,0.131481481,-0.32962963,1,0,0,3.6702,scale,,,,,,0.21373507,0.173205081,0.326485712,0.264575131,stimuli/lakes/304052_left.png,stimuli/lakes/304052_right.png,,,,0,25,25,52,1,,,,,
,,,,,,$7445891724,2020-07-12_20h15.37.485,fisher_task,2020.1.3,Win32,60,0.172222222,-0.427777778,1,0,0,1.734685,scale,,,,,,0.21373507,0.173205081,0.326485712,0.264575131,stimuli/lakes/303034_left.png,stimuli/lakes/303034_right.png,,,,0,26,26,34,1,,,,,
,,,,,,$7445891724,2020-07-12_20h15.37.485,fisher_task,2020.1.3,Win32,60,0.148148148,-0.337037037,1,0,0,4.537335,scale,,,,,,0.21373507,0.173205081,0.326485712,0.264575131,stimuli/lakes/3090121_left.png,stimuli/lakes/3090121_right.png,,,,0,27,27,121,1,,,,,
,,,,,,$7445891724,2020-07-12_20h15.37.485,fisher_task,2020.1.3,Win32,60,-0.171296296,-0.428703704,1,0,0,1.93461,scale,,,,,,0.3702,0.3,0.1234,0.1,stimuli/lakes/906088_left.png,stimuli/lakes/906088_right.png,,,,0,28,28,88,1,,,,,
,,,,,,$7445891724,2020-07-12_20h15.37.485,fisher_task,2020.1.3,Win32,60,0.178703704,-0.423148148,1,0,0,1.651195,scale,,,,,,0.21373507,0.173205081,0.326485712,0.264575131,stimuli/lakes/30100_left.png,stimuli/lakes/30100_right.png,,,,0,29,29,0,1,,,,,
,,,,,,$7445891724,2020-07-12_20h15.37.485,fisher_task,2020.1.3,Win32,60,0.122222222,-0.310185185,1,0,0,2.11825,scale,,,,,,0.2468,0.2,0.302267034,0.244948974,stimuli/lakes/404053_left.png,stimuli/lakes/404053_right.png,,,,0,30,30,53,1,,,,,
,,,,,,$7445891724,2020-07-12_20h15.37.485,fisher_task,2020.1.3,Win32,60,0.087962963,-0.277777778,1,0,0,2.768805,scale,,,,,,0.302267034,0.244948974,0.2468,0.2,stimuli/lakes/603028_left.png,stimuli/lakes/603028_right.png,,,,0,31,31,28,1,,,,,
,,,,,,$7445891724,2020-07-12_20h15.37.485,fisher_task,2020.1.3,Win32,60,-0.131481481,-0.308333333,1,0,0,2.68564,scale,,,,,,0.275930788,0.223606798,0.275930788,0.223606798,stimuli/lakes/5090125_left.png,stimuli/lakes/5090125_right.png,,,,0,32,32,125,1,,,,,
,,,,,,$7445891724,2020-07-12_20h15.37.485,fisher_task,2020.1.3,Win32,60,-0.153703704,-0.346296296,1,0,0,4.02043,scale,,,,,,0.3702,0.3,0.1234,0.1,stimuli/lakes/901010_left.png,stimuli/lakes/901010_right.png,,,,0,33,33,10,1,,,,,
,,,,,,$7445891724,2020-07-12_20h15.37.485,fisher_task,2020.1.3,Win32,60,-0.149074074,-0.362037037,1,0,0,2.018045,scale,,,,,,0.2468,0.2,0.302267034,0.244948974,stimuli/lakes/4090124_left.png,stimuli/lakes/4090124_right.png,,,,0,34,34,124,1,,,,,
,,,,,,$7445891724,2020-07-12_20h15.37.485,fisher_task,2020.1.3,Win32,60,0.166666667,-0.412962963,1,0,0,3.06927,scale,,,,,,0.21373507,0.173205081,0.326485712,0.264575131,stimuli/lakes/302012_left.png,stimuli/lakes/302012_right.png,,,,0,35,35,12,1,,,,,
,,,,,,$7445891724,2020-07-12_20h15.37.485,fisher_task,2020.1.3,Win32,60,-0.175,-0.434259259,1,0,0,1.60152,scale,,,,,,0.3702,0.3,0.1234,0.1,stimuli/lakes/9070106_left.png,stimuli/lakes/9070106_right.png,,,,0,36,36,106,1,,,,,
,,,,,,$7445891724,2020-07-12_20h15.37.485,fisher_task,2020.1.3,Win32,60,0.137962963,-0.315740741,1,0,0,3.48615,scale,,,,,,0.302267034,0.244948974,0.2468,0.2,stimuli/lakes/602018_left.png,stimuli/lakes/602018_right.png,,,,0,37,37,18,1,,,,,
,,,,,,$7445891724,2020-07-12_20h15.37.485,fisher_task,2020.1.3,Win32,60,0.15462963,-0.362037037,1,0,0,2.785565,scale,,,,,,0.2468,0.2,0.302267034,0.244948974,stimuli/lakes/40102_left.png,stimuli/lakes/40102_right.png,,,,0,38,38,2,1,,,,,
,,,,,,$7445891724,2020-07-12_20h15.37.485,fisher_task,2020.1.3,Win32,60,0.102777778,-0.267592593,1,0,0,4.68804,scale,,,,,,0.326485712,0.264575131,0.21373507,0.173205081,stimuli/lakes/702020_left.png,stimuli/lakes/702020_right.png,,,,0,39,39,20,1,,,,,
,,,,,,$7445891724,2020-07-12_20h15.37.485,fisher_task,2020.1.3,Win32,60,0.137962963,-0.338888889,1,0,0,2.585075,scale,,,,,,0.2468,0.2,0.302267034,0.244948974,stimuli/lakes/404044_left.png,stimuli/lakes/404044_right.png,,,,0,40,40,44,1,,,,,
,,,,,,$7445891724,2020-07-12_20h15.37.485,fisher_task,2020.1.3,Win32,60,-0.162037037,-0.39537037,1,0,0,2.002085,scale,,,,,,0.302267034,0.244948974,0.2468,0.2,stimuli/lakes/607094_left.png,stimuli/lakes/607094_right.png,,,,0,41,41,94,1,,,,,
,,,,,,$7445891724,2020-07-12_20h15.37.485,fisher_task,2020.1.3,Win32,60,-0.139814815,-0.301851852,1,0,0,3.50307,scale,,,,,,0.349027907,0.282842712,0.174513954,0.141421356,stimuli/lakes/80109_left.png,stimuli/lakes/80109_right.png,,,,0,42,42,9,1,,,,,
,,,,,,$7445891724,2020-07-12_20h15.37.485,fisher_task,2020.1.3,Win32,60,0.137037037,-0.314814815,1,0,0,3.686105,scale,,,,,,0.275930788,0.223606798,0.275930788,0.223606798,stimuli/lakes/503027_left.png,stimuli/lakes/503027_right.png,,,,0,43,43,27,1,,,,,
,,,,,,$7445891724,2020-07-12_20h15.37.485,fisher_task,2020.1.3,Win32,60,-0.136111111,-0.301851852,1,0,0,2.502,scale,,,,,,0.2468,0.2,0.302267034,0.244948974,stimuli/lakes/4090123_left.png,stimuli/lakes/4090123_right.png,,,space,0,44,44,123,1,2.72643,,,,
,,,,,,$7445891724,2020-07-12_20h15.37.485,fisher_task,2020.1.3,Win32,60,-0.155555556,-0.375925926,1,0,0,2.051995,scale,,,,,,0.21373507,0.173205081,0.326485712,0.264575131,stimuli/lakes/307091_left.png,stimuli/lakes/307091_right.png,,,,0,45,45,91,1,,,,,
,,,,,,$7445891724,2020-07-12_20h15.37.485,fisher_task,2020.1.3,Win32,60,-0.167592593,-0.427777778,1,0,0,2.0698,scale,,,,,,0.326485712,0.264575131,0.21373507,0.173205081,stimuli/lakes/706077_left.png,stimuli/lakes/706077_right.png,,,,0,46,46,77,1,,,,,
,,,,,,$7445891724,2020-07-12_20h15.37.485,fisher_task,2020.1.3,Win32,60,0.162962963,-0.431481481,1,0,0,1.551005,scale,,,,,,0.21373507,0.173205081,0.326485712,0.264575131,stimuli/lakes/302013_left.png,stimuli/lakes/302013_right.png,,,,0,47,47,13,1,,,,,
,,,,,,$7445891724,2020-07-12_20h15.37.485,fisher_task,2020.1.3,Win32,60,0.172222222,-0.433333333,1,0,0,1.884945,scale,,,,,,0.1234,0.1,0.3702,0.3,stimuli/lakes/106071_left.png,stimuli/lakes/106071_right.png,,,,0,48,48,71,1,,,,,
,,,,,,$7445891724,2020-07-12_20h15.37.485,fisher_task,2020.1.3,Win32,60,-0.141666667,-0.327777778,1,0,0,3.286575,scale,,,,,,0.3702,0.3,0.1234,0.1,stimuli/lakes/903031_left.png,stimuli/lakes/903031_right.png,,,,0,49,49,31,1,,,,,
,,,,,,$7445891724,2020-07-12_20h15.37.485,fisher_task,2020.1.3,Win32,60,-0.157407407,-0.37962963,1,0,0,2.752385,scale,,,,,,0.275930788,0.223606798,0.275930788,0.223606798,stimuli/lakes/506084_left.png,stimuli/lakes/506084_right.png,,,,0,50,50,84,1,,,,,
,,,,,,$7445891724,2020-07-12_20h15.37.485,fisher_task,2020.1.3,Win32,60,-0.110185185,-0.29537037,1,0,0,3.57004,scale,,,,,,0.2468,0.2,0.302267034,0.244948974,stimuli/lakes/4080111_left.png,stimuli/lakes/4080111_right.png,,,,0,51,51,111,1,,,,,
,,,,,,$7445891724,2020-07-12_20h15.37.485,fisher_task,2020.1.3,Win32,60,0.142592593,-0.337962963,1,0,0,3.219445,scale,,,,,,0.2468,0.2,0.302267034,0.244948974,stimuli/lakes/403026_left.png,stimuli/lakes/403026_right.png,,,,0,52,52,26,1,,,,,
,,,,,,$7445891724,2020-07-12_20h15.37.485,fisher_task,2020.1.3,Win32,60,0.133333333,-0.315740741,1,0,0,2.218065,scale,,,,,,0.21373507,0.173205081,0.326485712,0.264575131,stimuli/lakes/306073_left.png,stimuli/lakes/306073_right.png,,,,0,53,53,73,1,,,,,
,,,,,,$7445891724,2020-07-12_20h15.37.485,fisher_task,2020.1.3,Win32,60,-0.148148148,-0.351851852,1,0,0,2.401905,scale,,,,,,0.302267034,0.244948974,0.2468,0.2,stimuli/lakes/605066_left.png,stimuli/lakes/605066_right.png,,,,0,54,54,66,1,,,,,
,,,,,,$7445891724,2020-07-12_20h15.37.485,fisher_task,2020.1.3,Win32,60,-0.150925926,-0.365740741,1,0,0,2.26796,scale,,,,,,0.349027907,0.282842712,0.174513954,0.141421356,stimuli/lakes/804057_left.png,stimuli/lakes/804057_right.png,,,,0,55,55,57,1,,,,,
,,,,,,$7445891724,2020-07-12_20h15.37.485,fisher_task,2020.1.3,Win32,60,-0.157407407,-0.391666667,1,0,0,2.25201,scale,,,,,,0.3702,0.3,0.1234,0.1,stimuli/lakes/902022_left.png,stimuli/lakes/902022_right.png,,,,0,56,56,22,1,,,,,
,,,,,,$7445891724,2020-07-12_20h15.37.485,fisher_task,2020.1.3,Win32,60,0.163888889,-0.425925926,1,0,0,2.10084,scale,,,,,,0.21373507,0.173205081,0.326485712,0.264575131,stimuli/lakes/30101_left.png,stimuli/lakes/30101_right.png,,,,0,57,57,1,1,,,,,
,,,,,,$7445891724,2020-07-12_20h15.37.485,fisher_task,2020.1.3,Win32,60,-0.156481481,-0.385185185,1,0,0,3.536175,scale,,,,,,0.326485712,0.264575131,0.21373507,0.173205081,stimuli/lakes/7090129_left.png,stimuli/lakes/7090129_right.png,,,,0,58,58,129,1,,,,,
,,,,,,$7445891724,2020-07-12_20h15.37.485,fisher_task,2020.1.3,Win32,60,-0.163888889,-0.437037037,1,0,0,1.75157,scale,,,,,,0.349027907,0.282842712,0.174513954,0.141421356,stimuli/lakes/806078_left.png,stimuli/lakes/806078_right.png,,,,0,59,59,78,1,,,,,
,,,,,,$7445891724,2020-07-12_20h15.37.485,fisher_task,2020.1.3,Win32,60,-0.175,-0.432407407,1,0,0,3.203155,scale,,,,,,0.326485712,0.264575131,0.21373507,0.173205081,stimuli/lakes/705067_left.png,stimuli/lakes/705067_right.png,,,,0,60,60,67,1,,,,,
,,,,,,$7445891724,2020-07-12_20h15.37.485,fisher_task,2020.1.3,Win32,60,0.149074074,-0.35,1,0,0,2.385745,scale,,,,,,0.1234,0.1,0.3702,0.3,stimuli/lakes/1090119_left.png,stimuli/lakes/1090119_right.png,,,,0,61,61,119,1,,,,,
,,,,,,$7445891724,2020-07-12_20h15.37.485,fisher_task,2020.1.3,Win32,60,-0.112962963,-0.294444444,1,0,0,3.08581,scale,,,,,,0.302267034,0.244948974,0.2468,0.2,stimuli/lakes/605065_left.png,stimuli/lakes/605065_right.png,,,,0,62,62,65,1,,,,,
,,,,,,$7445891724,2020-07-12_20h15.37.485,fisher_task,2020.1.3,Win32,60,-0.115740741,-0.298148148,1,0,0,5.98838,scale,,,,,,0.3702,0.3,0.1234,0.1,stimuli/lakes/904058_left.png,stimuli/lakes/904058_right.png,,,,0,63,63,58,1,,,,,
,,,,,,$7445891724,2020-07-12_20h15.37.485,fisher_task,2020.1.3,Win32,60,-0.083333333,-0.266666667,1,0,0,6.238795,scale,,,,,,0.21373507,0.173205081,0.326485712,0.264575131,stimuli/lakes/3070100_left.png,stimuli/lakes/3070100_right.png,,,,0,64,64,100,1,,,,,
,,,,,,$7445891724,2020-07-12_20h15.37.485,fisher_task,2020.1.3,Win32,60,-0.138888889,-0.344444444,1,0,0,2.084435,scale,,,,,,0.326485712,0.264575131,0.21373507,0.173205081,stimuli/lakes/7080117_left.png,stimuli/lakes/7080117_right.png,,,,0,65,65,117,1,,,,,
,,,,,,$7445891724,2020-07-12_20h15.37.485,fisher_task,2020.1.3,Win32,60,0.151851852,-0.352777778,1,0,0,2.552,scale,,,,,,0.1234,0.1,0.3702,0.3,stimuli/lakes/107089_left.png,stimuli/lakes/107089_right.png,,,space,0,66,66,89,1,2.014355,,,,
,,,,,,$7445891724,2020-07-12_20h15.37.485,fisher_task,2020.1.3,Win32,60,0.126851852,-0.324074074,1,0,0,3.01881,scale,,,,,,0.21373507,0.173205081,0.326485712,0.264575131,stimuli/lakes/306082_left.png,stimuli/lakes/306082_right.png,,,,0,67,67,82,1,,,,,
,,,,,,$7445891724,2020-07-12_20h15.37.485,fisher_task,2020.1.3,Win32,60,0.114814815,-0.29537037,1,0,0,3.152675,scale,,,,,,0.1234,0.1,0.3702,0.3,stimuli/lakes/1080107_left.png,stimuli/lakes/1080107_right.png,,,,0,68,68,107,1,,,,,
,,,,,,$7445891724,2020-07-12_20h15.37.485,fisher_task,2020.1.3,Win32,60,0.135185185,-0.341666667,1,0,0,2.018,scale,,,,,,0.174513954,0.141421356,0.349027907,0.282842712,stimuli/lakes/206081_left.png,stimuli/lakes/206081_right.png,,,,0,69,69,81,1,,,,,
,,,,,,$7445891724,2020-07-12_20h15.37.485,fisher_task,2020.1.3,Win32,60,-0.114814815,-0.301851852,1,0,0,4.387385,scale,,,,,,0.349027907,0.282842712,0.174513954,0.141421356,stimuli/lakes/803030_left.png,stimuli/lakes/803030_right.png,,,,0,70,70,30,1,,,,,
,,,,,,$7445891724,2020-07-12_20h15.37.485,fisher_task,2020.1.3,Win32,60,0.156481481,-0.399074074,1,0,0,1.968115,scale,,,,,,0.1234,0.1,0.3702,0.3,stimuli/lakes/105059_left.png,stimuli/lakes/105059_right.png,,,,0,71,71,59,1,,,,,
,,,,,,$7445891724,2020-07-12_20h15.37.485,fisher_task,2020.1.3,Win32,60,0.142592593,-0.339814815,1,0,0,4.72097,scale,,,,,,0.2468,0.2,0.302267034,0.244948974,stimuli/lakes/403035_left.png,stimuli/lakes/403035_right.png,,,,0,72,72,35,1,,,,,
,,,,,,$7445891724,2020-07-12_20h15.37.485,fisher_task,2020.1.3,Win32,60,-0.159259259,-0.427777778,1,0,0,1.90203,scale,,,,,,0.3702,0.3,0.1234,0.1,stimuli/lakes/907097_left.png,stimuli/lakes/907097_right.png,,,,0,73,73,97,1,,,,,
,,,,,,$7445891724,2020-07-12_20h15.37.485,fisher_task,2020.1.3,Win32,60,-0.167592593,-0.428703704,1,0,0,2.085,scale,,,,,,0.302267034,0.244948974,0.2468,0.2,stimuli/lakes/6090126_left.png,stimuli/lakes/6090126_right.png,,,,0,74,74,126,1,,,,,
,,,,,,$7445891724,2020-07-12_20h15.37.485,fisher_task,2020.1.3,Win32,60,0.12962963,-0.316666667,1,0,0,4.304225,scale,,,,,,0.21373507,0.173205081,0.326485712,0.264575131,stimuli/lakes/305061_left.png,stimuli/lakes/305061_right.png,,,,0,75,75,61,1,,,,,
,,,,,,$7445891724,2020-07-12_20h15.37.485,fisher_task,2020.1.3,Win32,60,0.137037037,-0.342592593,1,0,0,4.069775,scale,,,,,,0.2468,0.2,0.302267034,0.244948974,stimuli/lakes/406074_left.png,stimuli/lakes/406074_right.png,,,,0,76,76,74,1,,,,,
,,,,,,$7445891724,2020-07-12_20h15.37.485,fisher_task,2020.1.3,Win32,60,0.137962963,-0.334259259,1,0,0,4.18802,scale,,,,,,0.302267034,0.244948974,0.2468,0.2,stimuli/lakes/60105_left.png,stimuli/lakes/60105_right.png,,,,0,77,77,5,1,,,,,
,,,,,,$7445891724,2020-07-12_20h15.37.485,fisher_task,2020.1.3,Win32,60,0.124074074,-0.312037037,1,0,0,4.73639,scale,,,,,,0.174513954,0.141421356,0.349027907,0.282842712,stimuli/lakes/2080108_left.png,stimuli/lakes/2080108_right.png,,,,0,78,78,108,1,,,,,
,,,,,,$7445891724,2020-07-12_20h15.37.485,fisher_task,2020.1.3,Win32,60,-0.137962963,-0.332407407,1,0,0,2.06816,scale,,,,,,0.326485712,0.264575131,0.21373507,0.173205081,stimuli/lakes/7070104_left.png,stimuli/lakes/7070104_right.png,,,,0,79,79,104,1,,,,,
,,,,,,$7445891724,2020-07-12_20h15.37.485,fisher_task,2020.1.3,Win32,60,-0.066666667,-0.256481481,1,0,0,5.821655,scale,,,,,,0.2468,0.2,0.302267034,0.244948974,stimuli/lakes/405063_left.png,stimuli/lakes/405063_right.png,,,,0,80,80,63,1,,,,,
,,,,,,$7445891724,2020-07-12_20h15.37.485,fisher_task,2020.1.3,Win32,60,0.096296296,-0.276851852,1,0,0,6.25544,scale,,,,,,0.302267034,0.244948974,0.2468,0.2,stimuli/lakes/602017_left.png,stimuli/lakes/602017_right.png,,,,0,81,81,17,1,,,,,
,,,,,,$7445891724,2020-07-12_20h15.37.485,fisher_task,2020.1.3,Win32,60,-0.165740741,-0.419444444,1,0,0,1.73484,scale,,,,,,0.349027907,0.282842712,0.174513954,0.141421356,stimuli/lakes/8070105_left.png,stimuli/lakes/8070105_right.png,,,,0,82,82,105,1,,,,,
,,,,,,$7445891724,2020-07-12_20h15.37.485,fisher_task,2020.1.3,Win32,60,-0.164814815,-0.430555556,1,0,0,2.48491,scale,,,,,,0.302267034,0.244948974,0.2468,0.2,stimuli/lakes/606076_left.png,stimuli/lakes/606076_right.png,,,,0,83,83,76,1,,,,,
,,,,,,$7445891724,2020-07-12_20h15.37.485,fisher_task,2020.1.3,Win32,60,0.171296296,-0.432407407,1,0,0,2.301885,scale,,,,,,0.1234,0.1,0.3702,0.3,stimuli/lakes/104050_left.png,stimuli/lakes/104050_right.png,,,,0,84,84,50,1,,,,,
,,,,,,$7445891724,2020-07-12_20h15.37.485,fisher_task,2020.1.3,Win32,60,-0.10462963,-0.289814815,1,0,0,3.87043,scale,,,,,,0.302267034,0.244948974,0.2468,0.2,stimuli/lakes/606085_left.png,stimuli/lakes/606085_right.png,,,,0,85,85,85,1,,,,,
,,,,,,$7445891724,2020-07-12_20h15.37.485,fisher_task,2020.1.3,Win32,60,0.089814815,-0.271296296,1,0,0,4.20368,scale,,,,,,0.174513954,0.141421356,0.349027907,0.282842712,stimuli/lakes/207099_left.png,stimuli/lakes/207099_right.png,,,,0,86,86,99,1,,,,,
,,,,,,$7445891724,2020-07-12_20h15.37.485,fisher_task,2020.1.3,Win32,60,-0.092592593,-0.287037037,1,0,0,3.886315,scale,,,,,,0.349027907,0.282842712,0.174513954,0.141421356,stimuli/lakes/803039_left.png,stimuli/lakes/803039_right.png,,,,0,87,87,39,1,,,,,
,,,,,,$7445891724,2020-07-12_20h15.37.485,fisher_task,2020.1.3,Win32,60,-0.128703704,-0.317592593,1,0,0,4.270605,scale,,,,,,0.275930788,0.223606798,0.275930788,0.223606798,stimuli/lakes/5080113_left.png,stimuli/lakes/5080113_right.png,,,space,0,88,88,113,1,4.780365,,,,
,,,,,,$7445891724,2020-07-12_20h15.37.485,fisher_task,2020.1.3,Win32,60,-0.12962963,-0.322222222,1,0,0,2.935935,scale,,,,,,0.302267034,0.244948974,0.2468,0.2,stimuli/lakes/6080114_left.png,stimuli/lakes/6080114_right.png,,,,0,89,89,114,1,,,,,
,,,,,,$7445891724,2020-07-12_20h15.37.485,fisher_task,2020.1.3,Win32,60,0.087037037,-0.294444444,1,0,0,2.70252,scale,,,,,,0.302267034,0.244948974,0.2468,0.2,stimuli/lakes/603037_left.png,stimuli/lakes/603037_right.png,,,,0,90,90,37,1,,,,,
,,,,,,$7445891724,2020-07-12_20h15.37.485,fisher_task,2020.1.3,Win32,60,-0.086111111,-0.275925926,1,0,0,2.435335,scale,,,,,,0.302267034,0.244948974,0.2468,0.2,stimuli/lakes/604055_left.png,stimuli/lakes/604055_right.png,,,,0,91,91,55,1,,,,,
,,,,,,$7445891724,2020-07-12_20h15.37.485,fisher_task,2020.1.3,Win32,60,-0.101851852,-0.289814815,1,0,0,3.71958,scale,,,,,,0.3702,0.3,0.1234,0.1,stimuli/lakes/903040_left.png,stimuli/lakes/903040_right.png,,,,0,92,92,40,1,,,,,
,,,,,,$7445891724,2020-07-12_20h15.37.485,fisher_task,2020.1.3,Win32,60,-0.131481481,-0.32962963,1,0,0,2.28513,scale,,,,,,0.302267034,0.244948974,0.2468,0.2,stimuli/lakes/6070103_left.png,stimuli/lakes/6070103_right.png,,,,0,93,93,103,1,,,,,
,,,,,,$7445891724,2020-07-12_20h15.37.485,fisher_task,2020.1.3,Win32,60,0.153703704,-0.413888889,1,0,0,3.186835,scale,,,,,,0.275930788,0.223606798,0.275930788,0.223606798,stimuli/lakes/50104_left.png,stimuli/lakes/50104_right.png,,,,0,94,94,4,1,,,,,
,,,,,,$7445891724,2020-07-12_20h15.37.485,fisher_task,2020.1.3,Win32,60,0.149074074,-0.403703704,1,0,0,2.068675,scale,,,,,,0.275930788,0.223606798,0.275930788,0.223606798,stimuli/lakes/502016_left.png,stimuli/lakes/502016_right.png,,,,0,95,95,16,1,,,,,
,,,,,,$7445891724,2020-07-12_20h15.37.485,fisher_task,2020.1.3,Win32,60,-0.124074074,-0.315740741,1,0,0,3.23613,scale,,,,,,0.2468,0.2,0.302267034,0.244948974,stimuli/lakes/4080112_left.png,stimuli/lakes/4080112_right.png,,,,0,96,96,112,1,,,,,
,,,,,,$7445891724,2020-07-12_20h15.37.485,fisher_task,2020.1.3,Win32,60,0.162962963,-0.421296296,1,0,0,1.60091,scale,,,,,,0.1234,0.1,0.3702,0.3,stimuli/lakes/104041_left.png,stimuli/lakes/104041_right.png,,,,0,97,97,41,1,,,,,
,,,,,,$7445891724,2020-07-12_20h15.37.485,fisher_task,2020.1.3,Win32,60,-0.151851852,-0.362037037,1,0,0,3.202085,scale,,,,,,0.2468,0.2,0.302267034,0.244948974,stimuli/lakes/4070101_left.png,stimuli/lakes/4070101_right.png,,,,0,98,98,101,1,,,,,
,,,,,,$7445891724,2020-07-12_20h15.37.485,fisher_task,2020.1.3,Win32,60,-0.080555556,-0.275925926,1,0,0,4.270415,scale,,,,,,0.2468,0.2,0.302267034,0.244948974,stimuli/lakes/405064_left.png,stimuli/lakes/405064_right.png,,,,0,99,99,64,1,,,,,
,,,,,,$7445891724,2020-07-12_20h15.37.485,fisher_task,2020.1.3,Win32,60,0.083333333,-0.27962963,1,0,0,2.886045,scale,,,,,,0.326485712,0.264575131,0.21373507,0.173205081,stimuli/lakes/702019_left.png,stimuli/lakes/702019_right.png,,,,0,100,100,19,1,,,,,
,,,,,,$7445891724,2020-07-12_20h15.37.485,fisher_task,2020.1.3,Win32,60,-0.089814815,-0.287962963,1,0,0,2.034605,scale,,,,,,0.2468,0.2,0.302267034,0.244948974,stimuli/lakes/407092_left.png,stimuli/lakes/407092_right.png,,,,0,101,101,92,1,,,,,
,,,,,,$7445891724,2020-07-12_20h15.37.485,fisher_task,2020.1.3,Win32,60,0.141666667,-0.353703704,1,0,0,1.95122,scale,,,,,,0.21373507,0.173205081,0.326485712,0.264575131,stimuli/lakes/303025_left.png,stimuli/lakes/303025_right.png,,,,0,102,102,25,1,,,,,
,,,,,,$7445891724,2020-07-12_20h15.37.485,fisher_task,2020.1.3,Win32,60,0.142592593,-0.359259259,1,0,0,3.5027,scale,,,,,,0.275930788,0.223606798,0.275930788,0.223606798,stimuli/lakes/504045_left.png,stimuli/lakes/504045_right.png,,,,0,103,103,45,1,,,,,
,,,,,,$7445891724,2020-07-12_20h15.37.485,fisher_task,2020.1.3,Win32,60,-0.131481481,-0.32962963,1,0,0,2.035545,scale,,,,,,0.275930788,0.223606798,0.275930788,0.223606798,stimuli/lakes/5070102_left.png,stimuli/lakes/5070102_right.png,,,,0,104,104,102,1,,,,,
,,,,,,$7445891724,2020-07-12_20h15.37.485,fisher_task,2020.1.3,Win32,60,-0.092592593,-0.27962963,1,0,0,4.03648,scale,,,,,,0.349027907,0.282842712,0.174513954,0.141421356,stimuli/lakes/804048_left.png,stimuli/lakes/804048_right.png,,,,0,105,105,48,1,,,,,
,,,,,,$7445891724,2020-07-12_20h15.37.485,fisher_task,2020.1.3,Win32,60,0.137962963,-0.347222222,1,0,0,3.73641,scale,,,,,,0.174513954,0.141421356,0.349027907,0.282842712,stimuli/lakes/204042_left.png,stimuli/lakes/204042_right.png,,,,0,106,106,42,1,,,,,
,,,,,,$7445891724,2020-07-12_20h15.37.485,fisher_task,2020.1.3,Win32,60,-0.118518519,-0.303703704,1,0,0,3.71973,scale,,,,,,0.326485712,0.264575131,0.21373507,0.173205081,stimuli/lakes/704056_left.png,stimuli/lakes/704056_right.png,,,,0,107,107,56,1,,,,,
,,,,,,$7445891724,2020-07-12_20h15.37.485,fisher_task,2020.1.3,Win32,60,-0.096296296,-0.293518519,1,0,0,3.7039,scale,,,,,,0.174513954,0.141421356,0.349027907,0.282842712,stimuli/lakes/2090120_left.png,stimuli/lakes/2090120_right.png,,,,0,108,108,120,1,,,,,
,,,,,,$7445891724,2020-07-12_20h15.37.485,fisher_task,2020.1.3,Win32,60,0.151851852,-0.390740741,1,0,0,2.63528,scale,,,,,,0.174513954,0.141421356,0.349027907,0.282842712,stimuli/lakes/203024_left.png,stimuli/lakes/203024_right.png,,,,0,109,109,24,1,,,,,
,,,,,,$7445891724,2020-07-12_20h15.37.485,fisher_task,2020.1.3,Win32,60,-0.139814815,-0.327777778,1,0,0,1.917865,scale,,,,,,0.302267034,0.244948974,0.2468,0.2,stimuli/lakes/6090127_left.png,stimuli/lakes/6090127_right.png,,,space,0,110,110,127,1,1.806255,,,,
,,,,,,$7445891724,2020-07-12_20h15.37.485,fisher_task,2020.1.3,Win32,60,-0.164814815,-0.418518519,1,0,0,2.11806,scale,,,,,,0.174513954,0.141421356,0.349027907,0.282842712,stimuli/lakes/206072_left.png,stimuli/lakes/206072_right.png,,,,0,111,111,72,1,,,,,
,,,,,,$7445891724,2020-07-12_20h15.37.485,fisher_task,2020.1.3,Win32,60,0.159259259,-0.432407407,1,0,0,1.951215,scale,,,,,,0.174513954,0.141421356,0.349027907,0.282842712,stimuli/lakes/205060_left.png,stimuli/lakes/205060_right.png,,,,0,112,112,60,1,,,,,
,,,,,,$7445891724,2020-07-12_20h15.37.485,fisher_task,2020.1.3,Win32,60,0.137962963,-0.337037037,1,0,0,2.61965,scale,,,,,,0.2468,0.2,0.302267034,0.244948974,stimuli/lakes/40103_left.png,stimuli/lakes/40103_right.png,,,,0,113,113,3,1,,,,,
,,,,,,$7445891724,2020-07-12_20h15.37.485,fisher_task,2020.1.3,Win32,60,-0.164814815,-0.42037037,1,0,0,1.96816,scale,,,,,,0.3702,0.3,0.1234,0.1,stimuli/lakes/906079_left.png,stimuli/lakes/906079_right.png,,,,0,114,114,79,1,,,,,
,,,,,,$7445891724,2020-07-12_20h15.37.485,fisher_task,2020.1.3,Win32,60,0.15,-0.353703704,1,0,0,2.86936,scale,,,,,,0.21373507,0.173205081,0.326485712,0.264575131,stimuli/lakes/305062_left.png,stimuli/lakes/305062_right.png,,,,0,115,115,62,1,,,,,
,,,,,,$7445891724,2020-07-12_20h15.37.485,fisher_task,2020.1.3,Win32,60,0.094444444,-0.283333333,1,0,0,2.18507,scale,,,,,,0.326485712,0.264575131,0.21373507,0.173205081,stimuli/lakes/70108_left.png,stimuli/lakes/70108_right.png,,,,0,116,116,8,1,,,,,
,,,,,,$7445891724,2020-07-12_20h15.37.485,fisher_task,2020.1.3,Win32,60,-0.113888889,-0.3,1,0,0,2.43502,scale,,,,,,0.1234,0.1,0.3702,0.3,stimuli/lakes/106080_left.png,stimuli/lakes/106080_right.png,,,,0,117,117,80,1,,,,,
,,,,,,$7445891724,2020-07-12_20h15.37.485,fisher_task,2020.1.3,Win32,60,-0.130555556,-0.325925926,1,0,0,2.6186,scale,,,,,,0.326485712,0.264575131,0.21373507,0.173205081,stimuli/lakes/704047_left.png,stimuli/lakes/704047_right.png,,,,0,118,118,47,1,,,,,
,,,,,,$7445891724,2020-07-12_20h15.37.485,fisher_task,2020.1.3,Win32,60,0.152777778,-0.401851852,1,0,0,2.18471,scale,,,,,,0.174513954,0.141421356,0.349027907,0.282842712,stimuli/lakes/204051_left.png,stimuli/lakes/204051_right.png,,,,0,119,119,51,1,,,,,
,,,,,,$7445891724,2020-07-12_20h15.37.485,fisher_task,2020.1.3,Win32,60,0.149074074,-0.369444444,1,0,0,2.1678,scale,,,,,,0.2468,0.2,0.302267034,0.244948974,stimuli/lakes/402014_left.png,stimuli/lakes/402014_right.png,,,,0,120,120,14,1,,,,,
,,,,,,$7445891724,2020-07-12_20h15.37.485,fisher_task,2020.1.3,Win32,60,-0.147222222,-0.350925926,1,0,0,2.78556,scale,,,,,,0.275930788,0.223606798,0.275930788,0.223606798,stimuli/lakes/507093_left.png,stimuli/lakes/507093_right.png,,,,0,121,121,93,1,,,,,
,,,,,,$7445891724,2020-07-12_20h15.37.485,fisher_task,2020.1.3,Win32,60,0.137962963,-0.343518519,1,0,0,2.017455,scale,,,,,,0.2468,0.2,0.302267034,0.244948974,stimuli/lakes/402015_left.png,stimuli/lakes/402015_right.png,,,,0,122,122,15,1,,,,,
,,,,,,$7445891724,2020-07-12_20h15.37.485,fisher_task,2020.1.3,Win32,60,-0.15462963,-0.351851852,1,0,0,2.202295,scale,,,,,,0.326485712,0.264575131,0.21373507,0.173205081,stimuli/lakes/7080116_left.png,stimuli/lakes/7080116_right.png,,,,0,123,123,116,1,,,,,
,,,,,,$7445891724,2020-07-12_20h15.37.485,fisher_task,2020.1.3,Win32,60,-0.114814815,-0.303703704,1,0,0,2.5185,scale,,,,,,0.326485712,0.264575131,0.21373507,0.173205081,stimuli/lakes/703029_left.png,stimuli/lakes/703029_right.png,,,,0,124,124,29,1,,,,,
,,,,,,$7445891724,2020-07-12_20h15.37.485,fisher_task,2020.1.3,Win32,60,0.088888889,-0.296296296,1,0,0,2.4523,scale,,,,,,0.1234,0.1,0.3702,0.3,stimuli/lakes/107098_left.png,stimuli/lakes/107098_right.png,,,,0,125,125,98,1,,,,,
,,,,,,$7445891724,2020-07-12_20h15.37.485,fisher_task,2020.1.3,Win32,60,-0.049074074,-0.266666667,1,0,0,3.519545,scale,,,,,,0.349027907,0.282842712,0.174513954,0.141421356,stimuli/lakes/802021_left.png,stimuli/lakes/802021_right.png,,,,0,126,126,21,1,,,,,
,,,,,,$7445891724,2020-07-12_20h15.37.485,fisher_task,2020.1.3,Win32,60,-0.141666667,-0.34537037,1,0,0,2.28511,scale,,,,,,0.3702,0.3,0.1234,0.1,stimuli/lakes/905070_left.png,stimuli/lakes/905070_right.png,,,,0,127,127,70,1,,,,,
,,,,,,$7445891724,2020-07-12_20h15.37.485,fisher_task,2020.1.3,Win32,60,-0.124074074,-0.319444444,1,0,0,3.019025,scale,,,,,,0.302267034,0.244948974,0.2468,0.2,stimuli/lakes/604046_left.png,stimuli/lakes/604046_right.png,,,,0,128,128,46,1,,,,,
,,,,,,$7445891724,2020-07-12_20h15.37.485,fisher_task,2020.1.3,Win32,60,0.105555556,-0.302777778,1,0,0,3.369555,scale,,,,,,0.174513954,0.141421356,0.349027907,0.282842712,stimuli/lakes/207090_left.png,stimuli/lakes/207090_right.png,,,,0,129,129,90,1,,,,,
,,,,,,$7445891724,2020-07-12_20h15.37.485,fisher_task,2020.1.3,Win32,60,,,,,,,,,,,,,,,,,,,,,,,,,,,,space,10.1268,space,36.67222
