keySpace.keys,instructions.thisRepN,instructions.thisTrialN,instructions.thisN,instructions.thisIndex,instructions.ran,participant,date,expName,psychopyVersion,OS,frameRate,mouse.x,mouse.y,mouse.leftButton,mouse.midButton,mouse.rightButton,mouse.time,mouse.clicked_name,training.thisRepN,training.thisTrialN,training.thisN,training.thisIndex,training.ran,widthBasketLeft,heightBasketLeft,widthBasketRight,heightBasketRight,leftLake,rightLake,space2.keys,space2.rt,space1.keys,trials.thisRepN,trials.thisTrialN,trials.thisN,trials.thisIndex,trials.ran,space1.rt,finalSpace1.keys,finalSpace1.rt,finalSpace2.keys,finalSpace2.rt
,0,0,0,0,1,$3314280945,2020-07-12_20h52.42.371,fisher_task,2020.1.3,Win32,60,,,,,,,,,,,,,,,,,,,,,,,,,,,,,,,
,,,,,,$3314280945,2020-07-12_20h52.42.371,fisher_task,2020.1.3,Win32,60,0.145833333,-0.346064815,1,0,0,6.01,scale,0,0,0,0,1,0.275930788,0.223606798,0.275930788,0.223606798,stimuli/training/20_left.png,stimuli/training/20_right.png,,,,,,,,,,,,,
,,,,,,$3314280945,2020-07-12_20h52.42.371,fisher_task,2020.1.3,Win32,60,-0.144675926,-0.342592593,1,0,0,2.18,scale,0,1,1,1,1,0.275930788,0.223606798,0.275930788,0.223606798,stimuli/training/80_left.png,stimuli/training/80_right.png,,,,,,,,,,,,,
,,,,,,$3314280945,2020-07-12_20h52.42.371,fisher_task,2020.1.3,Win32,60,0.116898148,-0.270833333,1,0,0,5.679,scale,0,2,2,2,1,0.174513954,0.141421356,0.349027907,0.282842712,stimuli/training/50_left.png,stimuli/training/50_right.png,,,,,,,,,,,,,
,,,,,,$3314280945,2020-07-12_20h52.42.371,fisher_task,2020.1.3,Win32,60,-0.111111111,-0.287037037,1,0,0,4.458,scale,0,3,3,3,1,0.349027907,0.282842712,0.174513954,0.141421356,stimuli/training/50_left.png,stimuli/training/50_right.png,,,,,,,,,,,,,
,,,,,,$3314280945,2020-07-12_20h52.42.371,fisher_task,2020.1.3,Win32,60,-0.001157407,-0.230324074,1,0,0,2.659,scale,0,4,4,4,1,0.275930788,0.223606798,0.275930788,0.223606798,stimuli/training/50_left.png,stimuli/training/50_right.png,,,,,,,,,,,,,
,,,,,,$3314280945,2020-07-12_20h52.42.371,fisher_task,2020.1.3,Win32,60,0.162037037,-0.395833333,1,0,0,2.183,scale,0,5,5,5,1,0.174513954,0.141421356,0.349027907,0.282842712,stimuli/training/20_left.png,stimuli/training/20_right.png,,,,,,,,,,,,,
,,,,,,$3314280945,2020-07-12_20h52.42.371,fisher_task,2020.1.3,Win32,60,-0.159722222,-0.395833333,1,0,0,3.018,scale,0,6,6,6,1,0.349027907,0.282842712,0.174513954,0.141421356,stimuli/training/80_left.png,stimuli/training/80_right.png,,,,,,,,,,,,,
,,,,,,$3314280945,2020-07-12_20h52.42.371,fisher_task,2020.1.3,Win32,60,0.170138889,-0.394675926,1,0,0,2.955,scale,0,7,7,7,1,0.1234,0.1,0.3702,0.3,stimuli/training/30_left.png,stimuli/training/30_right.png,,,,,,,,,,,,,
,,,,,,$3314280945,2020-07-12_20h52.42.371,fisher_task,2020.1.3,Win32,60,-0.148148148,-0.371527778,1,0,0,1.799,scale,0,8,8,8,1,0.3702,0.3,0.1234,0.1,stimuli/training/70_left.png,stimuli/training/70_right.png,,,,,,,,,,,,,
,,,,,,$3314280945,2020-07-12_20h52.42.371,fisher_task,2020.1.3,Win32,60,-0.158564815,-0.394675926,1,0,0,3.614,scale,0,9,9,9,1,0.326485712,0.264575131,0.21373507,0.173205081,stimuli/training/90_left.png,stimuli/training/90_right.png,,,,,,,,,,,,,
,,,,,,$3314280945,2020-07-12_20h52.42.371,fisher_task,2020.1.3,Win32,60,0.149305556,-0.405092593,1,0,0,1.41,scale,0,10,10,10,1,0.21373507,0.173205081,0.326485712,0.264575131,stimuli/training/10_left.png,stimuli/training/10_right.png,,,,,,,,,,,,,
,,,,,,$3314280945,2020-07-12_20h52.42.371,fisher_task,2020.1.3,Win32,60,-0.053240741,-0.241898148,1,0,0,5.313,scale,,,,,,0.302267034,0.244948974,0.2468,0.2,stimuli/lakes/604046_left.png,stimuli/lakes/604046_right.png,space,107.256,,0,0,0,46,1,,,,,
,,,,,,$3314280945,2020-07-12_20h52.42.371,fisher_task,2020.1.3,Win32,60,-0.138888889,-0.333333333,1,0,0,3.491,scale,,,,,,0.302267034,0.244948974,0.2468,0.2,stimuli/lakes/6090127_left.png,stimuli/lakes/6090127_right.png,,,,0,1,1,127,1,,,,,
,,,,,,$3314280945,2020-07-12_20h52.42.371,fisher_task,2020.1.3,Win32,60,0.15162037,-0.344907407,1,0,0,2.914,scale,,,,,,0.275930788,0.223606798,0.275930788,0.223606798,stimuli/lakes/50104_left.png,stimuli/lakes/50104_right.png,,,,0,2,2,4,1,,,,,
,,,,,,$3314280945,2020-07-12_20h52.42.371,fisher_task,2020.1.3,Win32,60,0.133101852,-0.313657407,1,0,0,2.735,scale,,,,,,0.2468,0.2,0.302267034,0.244948974,stimuli/lakes/405064_left.png,stimuli/lakes/405064_right.png,,,,0,3,3,64,1,,,,,
,,,,,,$3314280945,2020-07-12_20h52.42.371,fisher_task,2020.1.3,Win32,60,-0.152777778,-0.336805556,1,0,0,2.594,scale,,,,,,0.349027907,0.282842712,0.174513954,0.141421356,stimuli/lakes/806087_left.png,stimuli/lakes/806087_right.png,,,,0,4,4,87,1,,,,,
,,,,,,$3314280945,2020-07-12_20h52.42.371,fisher_task,2020.1.3,Win32,60,0.165509259,-0.366898148,1,0,0,2.42,scale,,,,,,0.21373507,0.173205081,0.326485712,0.264575131,stimuli/lakes/303025_left.png,stimuli/lakes/303025_right.png,,,,0,5,5,25,1,,,,,
,,,,,,$3314280945,2020-07-12_20h52.42.371,fisher_task,2020.1.3,Win32,60,-0.112268519,-0.297453704,1,0,0,2.245,scale,,,,,,0.326485712,0.264575131,0.21373507,0.173205081,stimuli/lakes/70108_left.png,stimuli/lakes/70108_right.png,,,,0,6,6,8,1,,,,,
,,,,,,$3314280945,2020-07-12_20h52.42.371,fisher_task,2020.1.3,Win32,60,0.159722222,-0.391203704,1,0,0,2.66,scale,,,,,,0.1234,0.1,0.3702,0.3,stimuli/lakes/103032_left.png,stimuli/lakes/103032_right.png,,,,0,7,7,32,1,,,,,
,,,,,,$3314280945,2020-07-12_20h52.42.371,fisher_task,2020.1.3,Win32,60,-0.143518519,-0.34837963,1,0,0,1.961,scale,,,,,,0.302267034,0.244948974,0.2468,0.2,stimuli/lakes/607094_left.png,stimuli/lakes/607094_right.png,,,,0,8,8,94,1,,,,,
,,,,,,$3314280945,2020-07-12_20h52.42.371,fisher_task,2020.1.3,Win32,60,0,-0.253472222,1,0,0,2.899,scale,,,,,,0.275930788,0.223606798,0.275930788,0.223606798,stimuli/lakes/504045_left.png,stimuli/lakes/504045_right.png,,,,0,9,9,45,1,,,,,
,,,,,,$3314280945,2020-07-12_20h52.42.371,fisher_task,2020.1.3,Win32,60,0.164351852,-0.387731481,1,0,0,2.142,scale,,,,,,0.174513954,0.141421356,0.349027907,0.282842712,stimuli/lakes/203024_left.png,stimuli/lakes/203024_right.png,,,,0,10,10,24,1,,,,,
,,,,,,$3314280945,2020-07-12_20h52.42.371,fisher_task,2020.1.3,Win32,60,0.134259259,-0.321759259,1,0,0,1.482,scale,,,,,,0.2468,0.2,0.302267034,0.244948974,stimuli/lakes/402014_left.png,stimuli/lakes/402014_right.png,,,,0,11,11,14,1,,,,,
,,,,,,$3314280945,2020-07-12_20h52.42.371,fisher_task,2020.1.3,Win32,60,-0.118055556,-0.303240741,1,0,0,2.371,scale,,,,,,0.302267034,0.244948974,0.2468,0.2,stimuli/lakes/605065_left.png,stimuli/lakes/605065_right.png,,,,0,12,12,65,1,,,,,
,,,,,,$3314280945,2020-07-12_20h52.42.371,fisher_task,2020.1.3,Win32,60,0.043981481,-0.243055556,1,0,0,4.48,scale,,,,,,0.174513954,0.141421356,0.349027907,0.282842712,stimuli/lakes/206081_left.png,stimuli/lakes/206081_right.png,,,,0,13,13,81,1,,,,,
,,,,,,$3314280945,2020-07-12_20h52.42.371,fisher_task,2020.1.3,Win32,60,0.097222222,-0.273148148,1,0,0,2.861,scale,,,,,,0.2468,0.2,0.302267034,0.244948974,stimuli/lakes/405063_left.png,stimuli/lakes/405063_right.png,,,,0,14,14,63,1,,,,,
,,,,,,$3314280945,2020-07-12_20h52.42.371,fisher_task,2020.1.3,Win32,60,-0.09375,-0.28125,1,0,0,2.365,scale,,,,,,0.326485712,0.264575131,0.21373507,0.173205081,stimuli/lakes/705067_left.png,stimuli/lakes/705067_right.png,,,,0,15,15,67,1,,,,,
,,,,,,$3314280945,2020-07-12_20h52.42.371,fisher_task,2020.1.3,Win32,60,0.049768519,-0.241898148,1,0,0,4.719,scale,,,,,,0.1234,0.1,0.3702,0.3,stimuli/lakes/1080107_left.png,stimuli/lakes/1080107_right.png,,,,0,16,16,107,1,,,,,
,,,,,,$3314280945,2020-07-12_20h52.42.371,fisher_task,2020.1.3,Win32,60,0.131944444,-0.304398148,1,0,0,1.405,scale,,,,,,0.21373507,0.173205081,0.326485712,0.264575131,stimuli/lakes/303034_left.png,stimuli/lakes/303034_right.png,,,,0,17,17,34,1,,,,,
,,,,,,$3314280945,2020-07-12_20h52.42.371,fisher_task,2020.1.3,Win32,60,-0.142361111,-0.324074074,1,0,0,4.847,scale,,,,,,0.302267034,0.244948974,0.2468,0.2,stimuli/lakes/6080114_left.png,stimuli/lakes/6080114_right.png,,,,0,18,18,114,1,,,,,
,,,,,,$3314280945,2020-07-12_20h52.42.371,fisher_task,2020.1.3,Win32,60,-0.15625,-0.37962963,1,0,0,1.267,scale,,,,,,0.326485712,0.264575131,0.21373507,0.173205081,stimuli/lakes/7090129_left.png,stimuli/lakes/7090129_right.png,,,,0,19,19,129,1,,,,,
,,,,,,$3314280945,2020-07-12_20h52.42.371,fisher_task,2020.1.3,Win32,60,-0.135416667,-0.336805556,1,0,0,1.679,scale,,,,,,0.275930788,0.223606798,0.275930788,0.223606798,stimuli/lakes/507093_left.png,stimuli/lakes/507093_right.png,,,,0,20,20,93,1,,,,,
,,,,,,$3314280945,2020-07-12_20h52.42.371,fisher_task,2020.1.3,Win32,60,0.003472222,-0.246527778,1,0,0,7.328,scale,,,,,,0.326485712,0.264575131,0.21373507,0.173205081,stimuli/lakes/702020_left.png,stimuli/lakes/702020_right.png,,,,0,21,21,20,1,,,,,
,,,,,,$3314280945,2020-07-12_20h52.42.371,fisher_task,2020.1.3,Win32,60,0.159722222,-0.358796296,1,0,0,3.522,scale,,,,,,0.1234,0.1,0.3702,0.3,stimuli/lakes/105059_left.png,stimuli/lakes/105059_right.png,,,space,0,22,22,59,1,2161.42,,,,
,,,,,,$3314280945,2020-07-12_20h52.42.371,fisher_task,2020.1.3,Win32,60,0.164351852,-0.399305556,1,0,0,2.304,scale,,,,,,0.21373507,0.173205081,0.326485712,0.264575131,stimuli/lakes/302013_left.png,stimuli/lakes/302013_right.png,,,,0,23,23,13,1,,,,,
,,,,,,$3314280945,2020-07-12_20h52.42.371,fisher_task,2020.1.3,Win32,60,-0.097222222,-0.284722222,1,0,0,3.834,scale,,,,,,0.349027907,0.282842712,0.174513954,0.141421356,stimuli/lakes/804048_left.png,stimuli/lakes/804048_right.png,,,,0,24,24,48,1,,,,,
,,,,,,$3314280945,2020-07-12_20h52.42.371,fisher_task,2020.1.3,Win32,60,-0.12037037,-0.314814815,1,0,0,2.268,scale,,,,,,0.326485712,0.264575131,0.21373507,0.173205081,stimuli/lakes/706086_left.png,stimuli/lakes/706086_right.png,,,,0,25,25,86,1,,,,,
,,,,,,$3314280945,2020-07-12_20h52.42.371,fisher_task,2020.1.3,Win32,60,0.159722222,-0.40162037,1,0,0,2.075,scale,,,,,,0.21373507,0.173205081,0.326485712,0.264575131,stimuli/lakes/30101_left.png,stimuli/lakes/30101_right.png,,,,0,26,26,1,1,,,,,
,,,,,,$3314280945,2020-07-12_20h52.42.371,fisher_task,2020.1.3,Win32,60,-0.0625,-0.25,1,0,0,4.832,scale,,,,,,0.326485712,0.264575131,0.21373507,0.173205081,stimuli/lakes/704047_left.png,stimuli/lakes/704047_right.png,,,,0,27,27,47,1,,,,,
,,,,,,$3314280945,2020-07-12_20h52.42.371,fisher_task,2020.1.3,Win32,60,0.155092593,-0.356481481,1,0,0,2.387,scale,,,,,,0.174513954,0.141421356,0.349027907,0.282842712,stimuli/lakes/204051_left.png,stimuli/lakes/204051_right.png,,,,0,28,28,51,1,,,,,
,,,,,,$3314280945,2020-07-12_20h52.42.371,fisher_task,2020.1.3,Win32,60,-0.005787037,-0.239583333,1,0,0,4.681,scale,,,,,,0.349027907,0.282842712,0.174513954,0.141421356,stimuli/lakes/803039_left.png,stimuli/lakes/803039_right.png,,,,0,29,29,39,1,,,,,
,,,,,,$3314280945,2020-07-12_20h52.42.371,fisher_task,2020.1.3,Win32,60,-0.111111111,-0.284722222,1,0,0,3.98,scale,,,,,,0.275930788,0.223606798,0.275930788,0.223606798,stimuli/lakes/506075_left.png,stimuli/lakes/506075_right.png,,,,0,30,30,75,1,,,,,
,,,,,,$3314280945,2020-07-12_20h52.42.371,fisher_task,2020.1.3,Win32,60,-0.060185185,-0.25,1,0,0,4.015,scale,,,,,,0.326485712,0.264575131,0.21373507,0.173205081,stimuli/lakes/703038_left.png,stimuli/lakes/703038_right.png,,,,0,31,31,38,1,,,,,
,,,,,,$3314280945,2020-07-12_20h52.42.371,fisher_task,2020.1.3,Win32,60,-0.010416667,-0.238425926,1,0,0,3.531,scale,,,,,,0.302267034,0.244948974,0.2468,0.2,stimuli/lakes/603028_left.png,stimuli/lakes/603028_right.png,,,,0,32,32,28,1,,,,,
,,,,,,$3314280945,2020-07-12_20h52.42.371,fisher_task,2020.1.3,Win32,60,-0.12037037,-0.283564815,1,0,0,4.802,scale,,,,,,0.275930788,0.223606798,0.275930788,0.223606798,stimuli/lakes/5070102_left.png,stimuli/lakes/5070102_right.png,,,,0,33,33,102,1,,,,,
,,,,,,$3314280945,2020-07-12_20h52.42.371,fisher_task,2020.1.3,Win32,60,0.136574074,-0.3125,1,0,0,2.209,scale,,,,,,0.2468,0.2,0.302267034,0.244948974,stimuli/lakes/404044_left.png,stimuli/lakes/404044_right.png,,,,0,34,34,44,1,,,,,
,,,,,,$3314280945,2020-07-12_20h52.42.371,fisher_task,2020.1.3,Win32,60,0.164351852,-0.380787037,1,0,0,2.542,scale,,,,,,0.174513954,0.141421356,0.349027907,0.282842712,stimuli/lakes/203033_left.png,stimuli/lakes/203033_right.png,,,,0,35,35,33,1,,,,,
,,,,,,$3314280945,2020-07-12_20h52.42.371,fisher_task,2020.1.3,Win32,60,-0.15162037,-0.392361111,1,0,0,2.148,scale,,,,,,0.326485712,0.264575131,0.21373507,0.173205081,stimuli/lakes/7070104_left.png,stimuli/lakes/7070104_right.png,,,,0,36,36,104,1,,,,,
,,,,,,$3314280945,2020-07-12_20h52.42.371,fisher_task,2020.1.3,Win32,60,-0.136574074,-0.335648148,1,0,0,3.167,scale,,,,,,0.302267034,0.244948974,0.2468,0.2,stimuli/lakes/606085_left.png,stimuli/lakes/606085_right.png,,,,0,37,37,85,1,,,,,
,,,,,,$3314280945,2020-07-12_20h52.42.371,fisher_task,2020.1.3,Win32,60,-0.040509259,-0.253472222,1,0,0,5.632,scale,,,,,,0.2468,0.2,0.302267034,0.244948974,stimuli/lakes/4070101_left.png,stimuli/lakes/4070101_right.png,,,,0,38,38,101,1,,,,,
,,,,,,$3314280945,2020-07-12_20h52.42.371,fisher_task,2020.1.3,Win32,60,0,-0.243055556,1,0,0,5.128,scale,,,,,,0.21373507,0.173205081,0.326485712,0.264575131,stimuli/lakes/3080110_left.png,stimuli/lakes/3080110_right.png,,,,0,39,39,110,1,,,,,
,,,,,,$3314280945,2020-07-12_20h52.42.371,fisher_task,2020.1.3,Win32,60,0.106481481,-0.287037037,1,0,0,4.561,scale,,,,,,0.2468,0.2,0.302267034,0.244948974,stimuli/lakes/403035_left.png,stimuli/lakes/403035_right.png,,,,0,40,40,35,1,,,,,
,,,,,,$3314280945,2020-07-12_20h52.42.371,fisher_task,2020.1.3,Win32,60,0.157407407,-0.341435185,1,0,0,1.545,scale,,,,,,0.1234,0.1,0.3702,0.3,stimuli/lakes/103023_left.png,stimuli/lakes/103023_right.png,,,,0,41,41,23,1,,,,,
,,,,,,$3314280945,2020-07-12_20h52.42.371,fisher_task,2020.1.3,Win32,60,0.130787037,-0.333333333,1,0,0,1.328,scale,,,,,,0.2468,0.2,0.302267034,0.244948974,stimuli/lakes/402015_left.png,stimuli/lakes/402015_right.png,,,,0,42,42,15,1,,,,,
,,,,,,$3314280945,2020-07-12_20h52.42.371,fisher_task,2020.1.3,Win32,60,0.157407407,-0.34837963,1,0,0,1.915,scale,,,,,,0.21373507,0.173205081,0.326485712,0.264575131,stimuli/lakes/302012_left.png,stimuli/lakes/302012_right.png,,,,0,43,43,12,1,,,,,
,,,,,,$3314280945,2020-07-12_20h52.42.371,fisher_task,2020.1.3,Win32,60,-0.006944444,-0.248842593,1,0,0,2.591,scale,,,,,,0.1234,0.1,0.3702,0.3,stimuli/lakes/107089_left.png,stimuli/lakes/107089_right.png,,,space,0,44,44,89,1,7.166,,,,
,,,,,,$3314280945,2020-07-12_20h52.42.371,fisher_task,2020.1.3,Win32,60,-0.006944444,-0.256944444,1,0,0,2.786,scale,,,,,,0.326485712,0.264575131,0.21373507,0.173205081,stimuli/lakes/70107_left.png,stimuli/lakes/70107_right.png,,,,0,45,45,7,1,,,,,
,,,,,,$3314280945,2020-07-12_20h52.42.371,fisher_task,2020.1.3,Win32,60,-0.081018519,-0.284722222,1,0,0,5.712,scale,,,,,,0.2468,0.2,0.302267034,0.244948974,stimuli/lakes/407092_left.png,stimuli/lakes/407092_right.png,,,,0,46,46,92,1,,,,,
,,,,,,$3314280945,2020-07-12_20h52.42.371,fisher_task,2020.1.3,Win32,60,-0.12037037,-0.299768519,1,0,0,1.548,scale,,,,,,0.326485712,0.264575131,0.21373507,0.173205081,stimuli/lakes/706077_left.png,stimuli/lakes/706077_right.png,,,,0,47,47,77,1,,,,,
,,,,,,$3314280945,2020-07-12_20h52.42.371,fisher_task,2020.1.3,Win32,60,-0.121527778,-0.313657407,1,0,0,2.044,scale,,,,,,0.302267034,0.244948974,0.2468,0.2,stimuli/lakes/6070103_left.png,stimuli/lakes/6070103_right.png,,,,0,48,48,103,1,,,,,
,,,,,,$3314280945,2020-07-12_20h52.42.371,fisher_task,2020.1.3,Win32,60,-0.045138889,-0.252314815,1,0,0,3.113,scale,,,,,,0.349027907,0.282842712,0.174513954,0.141421356,stimuli/lakes/803030_left.png,stimuli/lakes/803030_right.png,,,,0,49,49,30,1,,,,,
,,,,,,$3314280945,2020-07-12_20h52.42.371,fisher_task,2020.1.3,Win32,60,0.039351852,-0.237268519,1,0,0,3.433,scale,,,,,,0.174513954,0.141421356,0.349027907,0.282842712,stimuli/lakes/206072_left.png,stimuli/lakes/206072_right.png,,,,0,50,50,72,1,,,,,
,,,,,,$3314280945,2020-07-12_20h52.42.371,fisher_task,2020.1.3,Win32,60,-0.121527778,-0.30787037,1,0,0,2.852,scale,,,,,,0.275930788,0.223606798,0.275930788,0.223606798,stimuli/lakes/5090125_left.png,stimuli/lakes/5090125_right.png,,,,0,51,51,125,1,,,,,
,,,,,,$3314280945,2020-07-12_20h52.42.371,fisher_task,2020.1.3,Win32,60,-0.148148148,-0.37037037,1,0,0,1.634,scale,,,,,,0.3702,0.3,0.1234,0.1,stimuli/lakes/906088_left.png,stimuli/lakes/906088_right.png,,,,0,52,52,88,1,,,,,
,,,,,,$3314280945,2020-07-12_20h52.42.371,fisher_task,2020.1.3,Win32,60,-0.091435185,-0.290509259,1,0,0,2.663,scale,,,,,,0.326485712,0.264575131,0.21373507,0.173205081,stimuli/lakes/704056_left.png,stimuli/lakes/704056_right.png,,,,0,53,53,56,1,,,,,
,,,,,,$3314280945,2020-07-12_20h52.42.371,fisher_task,2020.1.3,Win32,60,-0.153935185,-0.391203704,1,0,0,1.694,scale,,,,,,0.349027907,0.282842712,0.174513954,0.141421356,stimuli/lakes/8070105_left.png,stimuli/lakes/8070105_right.png,,,,0,54,54,105,1,,,,,
,,,,,,$3314280945,2020-07-12_20h52.42.371,fisher_task,2020.1.3,Win32,60,-0.15162037,-0.380787037,1,0,0,2.205,scale,,,,,,0.349027907,0.282842712,0.174513954,0.141421356,stimuli/lakes/8080118_left.png,stimuli/lakes/8080118_right.png,,,,0,55,55,118,1,,,,,
,,,,,,$3314280945,2020-07-12_20h52.42.371,fisher_task,2020.1.3,Win32,60,-0.146990741,-0.363425926,1,0,0,5.542,scale,,,,,,0.302267034,0.244948974,0.2468,0.2,stimuli/lakes/6080115_left.png,stimuli/lakes/6080115_right.png,,,,0,56,56,115,1,,,,,
,,,,,,$3314280945,2020-07-12_20h52.42.371,fisher_task,2020.1.3,Win32,60,0.125,-0.313657407,1,0,0,1.887,scale,,,,,,0.1234,0.1,0.3702,0.3,stimuli/lakes/104041_left.png,stimuli/lakes/104041_right.png,,,,0,57,57,41,1,,,,,
,,,,,,$3314280945,2020-07-12_20h52.42.371,fisher_task,2020.1.3,Win32,60,0.138888889,-0.34375,1,0,0,1.892,scale,,,,,,0.21373507,0.173205081,0.326485712,0.264575131,stimuli/lakes/304052_left.png,stimuli/lakes/304052_right.png,,,,0,58,58,52,1,,,,,
,,,,,,$3314280945,2020-07-12_20h52.42.371,fisher_task,2020.1.3,Win32,60,0.09375,-0.273148148,1,0,0,2.58,scale,,,,,,0.275930788,0.223606798,0.275930788,0.223606798,stimuli/lakes/503036_left.png,stimuli/lakes/503036_right.png,,,,0,59,59,36,1,,,,,
,,,,,,$3314280945,2020-07-12_20h52.42.371,fisher_task,2020.1.3,Win32,60,0.122685185,-0.313657407,1,0,0,1.678,scale,,,,,,0.21373507,0.173205081,0.326485712,0.264575131,stimuli/lakes/305062_left.png,stimuli/lakes/305062_right.png,,,,0,60,60,62,1,,,,,
,,,,,,$3314280945,2020-07-12_20h52.42.371,fisher_task,2020.1.3,Win32,60,0.002314815,-0.251157407,1,0,0,2.149,scale,,,,,,0.21373507,0.173205081,0.326485712,0.264575131,stimuli/lakes/3090122_left.png,stimuli/lakes/3090122_right.png,,,,0,61,61,122,1,,,,,
,,,,,,$3314280945,2020-07-12_20h52.42.371,fisher_task,2020.1.3,Win32,60,0.002314815,-0.247685185,1,0,0,1.764,scale,,,,,,0.21373507,0.173205081,0.326485712,0.264575131,stimuli/lakes/3090121_left.png,stimuli/lakes/3090121_right.png,,,,0,62,62,121,1,,,,,
,,,,,,$3314280945,2020-07-12_20h52.42.371,fisher_task,2020.1.3,Win32,60,0.041666667,-0.255787037,1,0,0,3.23,scale,,,,,,0.21373507,0.173205081,0.326485712,0.264575131,stimuli/lakes/305061_left.png,stimuli/lakes/305061_right.png,,,,0,63,63,61,1,,,,,
,,,,,,$3314280945,2020-07-12_20h52.42.371,fisher_task,2020.1.3,Win32,60,-0.03125,-0.25,1,0,0,2.622,scale,,,,,,0.3702,0.3,0.1234,0.1,stimuli/lakes/903031_left.png,stimuli/lakes/903031_right.png,,,,0,64,64,31,1,,,,,
,,,,,,$3314280945,2020-07-12_20h52.42.371,fisher_task,2020.1.3,Win32,60,0.104166667,-0.270833333,1,0,0,2.141,scale,,,,,,0.275930788,0.223606798,0.275930788,0.223606798,stimuli/lakes/504054_left.png,stimuli/lakes/504054_right.png,,,,0,65,65,54,1,,,,,
,,,,,,$3314280945,2020-07-12_20h52.42.371,fisher_task,2020.1.3,Win32,60,-0.12037037,-0.3125,1,0,0,1.511,scale,,,,,,0.349027907,0.282842712,0.174513954,0.141421356,stimuli/lakes/806078_left.png,stimuli/lakes/806078_right.png,,,space,0,66,66,78,1,2.237,,,,
,,,,,,$3314280945,2020-07-12_20h52.42.371,fisher_task,2020.1.3,Win32,60,-0.046296296,-0.256944444,1,0,0,1.415,scale,,,,,,0.3702,0.3,0.1234,0.1,stimuli/lakes/902022_left.png,stimuli/lakes/902022_right.png,,,,0,67,67,22,1,,,,,
,,,,,,$3314280945,2020-07-12_20h52.42.371,fisher_task,2020.1.3,Win32,60,0.003472222,-0.246527778,1,0,0,3.895,scale,,,,,,0.302267034,0.244948974,0.2468,0.2,stimuli/lakes/605066_left.png,stimuli/lakes/605066_right.png,,,,0,68,68,66,1,,,,,
,,,,,,$3314280945,2020-07-12_20h52.42.371,fisher_task,2020.1.3,Win32,60,-0.101851852,-0.292824074,1,0,0,2.608,scale,,,,,,0.275930788,0.223606798,0.275930788,0.223606798,stimuli/lakes/5080113_left.png,stimuli/lakes/5080113_right.png,,,,0,69,69,113,1,,,,,
,,,,,,$3314280945,2020-07-12_20h52.42.371,fisher_task,2020.1.3,Win32,60,-0.077546296,-0.269675926,1,0,0,5.834,scale,,,,,,0.349027907,0.282842712,0.174513954,0.141421356,stimuli/lakes/804057_left.png,stimuli/lakes/804057_right.png,,,,0,70,70,57,1,,,,,
,,,,,,$3314280945,2020-07-12_20h52.42.371,fisher_task,2020.1.3,Win32,60,-0.144675926,-0.368055556,1,0,0,2.133,scale,,,,,,0.3702,0.3,0.1234,0.1,stimuli/lakes/9070106_left.png,stimuli/lakes/9070106_right.png,,,,0,71,71,106,1,,,,,
,,,,,,$3314280945,2020-07-12_20h52.42.371,fisher_task,2020.1.3,Win32,60,0.107638889,-0.289351852,1,0,0,1.726,scale,,,,,,0.275930788,0.223606798,0.275930788,0.223606798,stimuli/lakes/502016_left.png,stimuli/lakes/502016_right.png,,,,0,72,72,16,1,,,,,
,,,,,,$3314280945,2020-07-12_20h52.42.371,fisher_task,2020.1.3,Win32,60,0.106481481,-0.298611111,1,0,0,3.485,scale,,,,,,0.2468,0.2,0.302267034,0.244948974,stimuli/lakes/404053_left.png,stimuli/lakes/404053_right.png,,,,0,73,73,53,1,,,,,
,,,,,,$3314280945,2020-07-12_20h52.42.371,fisher_task,2020.1.3,Win32,60,-0.003472222,-0.25,1,0,0,5.357,scale,,,,,,0.302267034,0.244948974,0.2468,0.2,stimuli/lakes/60106_left.png,stimuli/lakes/60106_right.png,,,,0,74,74,6,1,,,,,
,,,,,,$3314280945,2020-07-12_20h52.42.371,fisher_task,2020.1.3,Win32,60,-0.135416667,-0.324074074,1,0,0,2.076,scale,,,,,,0.349027907,0.282842712,0.174513954,0.141421356,stimuli/lakes/807096_left.png,stimuli/lakes/807096_right.png,,,,0,75,75,96,1,,,,,
,,,,,,$3314280945,2020-07-12_20h52.42.371,fisher_task,2020.1.3,Win32,60,-0.112268519,-0.296296296,1,0,0,3.1,scale,,,,,,0.275930788,0.223606798,0.275930788,0.223606798,stimuli/lakes/506084_left.png,stimuli/lakes/506084_right.png,,,,0,76,76,84,1,,,,,
,,,,,,$3314280945,2020-07-12_20h52.42.371,fisher_task,2020.1.3,Win32,60,-0.08912037,-0.28587963,1,0,0,2.598,scale,,,,,,0.3702,0.3,0.1234,0.1,stimuli/lakes/905070_left.png,stimuli/lakes/905070_right.png,,,,0,77,77,70,1,,,,,
,,,,,,$3314280945,2020-07-12_20h52.42.371,fisher_task,2020.1.3,Win32,60,-0.040509259,-0.256944444,1,0,0,4.628,scale,,,,,,0.1234,0.1,0.3702,0.3,stimuli/lakes/1090119_left.png,stimuli/lakes/1090119_right.png,,,,0,78,78,119,1,,,,,
,,,,,,$3314280945,2020-07-12_20h52.42.371,fisher_task,2020.1.3,Win32,60,-0.096064815,-0.289351852,1,0,0,2.86,scale,,,,,,0.326485712,0.264575131,0.21373507,0.173205081,stimuli/lakes/705068_left.png,stimuli/lakes/705068_right.png,,,,0,79,79,68,1,,,,,
,,,,,,$3314280945,2020-07-12_20h52.42.371,fisher_task,2020.1.3,Win32,60,-0.050925926,-0.258101852,1,0,0,5.098,scale,,,,,,0.326485712,0.264575131,0.21373507,0.173205081,stimuli/lakes/702019_left.png,stimuli/lakes/702019_right.png,,,,0,80,80,19,1,,,,,
,,,,,,$3314280945,2020-07-12_20h52.42.371,fisher_task,2020.1.3,Win32,60,0.119212963,-0.319444444,1,0,0,3.681,scale,,,,,,0.302267034,0.244948974,0.2468,0.2,stimuli/lakes/602018_left.png,stimuli/lakes/602018_right.png,,,,0,81,81,18,1,,,,,
,,,,,,$3314280945,2020-07-12_20h52.42.371,fisher_task,2020.1.3,Win32,60,-0.079861111,-0.269675926,1,0,0,6.383,scale,,,,,,0.2468,0.2,0.302267034,0.244948974,stimuli/lakes/4090124_left.png,stimuli/lakes/4090124_right.png,,,,0,82,82,124,1,,,,,
,,,,,,$3314280945,2020-07-12_20h52.42.371,fisher_task,2020.1.3,Win32,60,0.001157407,-0.253472222,1,0,0,5.66,scale,,,,,,0.2468,0.2,0.302267034,0.244948974,stimuli/lakes/406083_left.png,stimuli/lakes/406083_right.png,,,,0,83,83,83,1,,,,,
,,,,,,$3314280945,2020-07-12_20h52.42.371,fisher_task,2020.1.3,Win32,60,-0.140046296,-0.304398148,1,0,0,1.504,scale,,,,,,0.349027907,0.282842712,0.174513954,0.141421356,stimuli/lakes/805069_left.png,stimuli/lakes/805069_right.png,,,,0,84,84,69,1,,,,,
,,,,,,$3314280945,2020-07-12_20h52.42.371,fisher_task,2020.1.3,Win32,60,0.052083333,-0.258101852,1,0,0,7.796,scale,,,,,,0.2468,0.2,0.302267034,0.244948974,stimuli/lakes/40103_left.png,stimuli/lakes/40103_right.png,,,,0,85,85,3,1,,,,,
,,,,,,$3314280945,2020-07-12_20h52.42.371,fisher_task,2020.1.3,Win32,60,-0.118055556,-0.300925926,1,0,0,1.231,scale,,,,,,0.326485712,0.264575131,0.21373507,0.173205081,stimuli/lakes/7080117_left.png,stimuli/lakes/7080117_right.png,,,,0,86,86,117,1,,,,,
,,,,,,$3314280945,2020-07-12_20h52.42.371,fisher_task,2020.1.3,Win32,60,-0.119212963,-0.318287037,1,0,0,1.444,scale,,,,,,0.302267034,0.244948974,0.2468,0.2,stimuli/lakes/6090126_left.png,stimuli/lakes/6090126_right.png,,,,0,87,87,126,1,,,,,
,,,,,,$3314280945,2020-07-12_20h52.42.371,fisher_task,2020.1.3,Win32,60,0.052083333,-0.25,1,0,0,5.945,scale,,,,,,0.174513954,0.141421356,0.349027907,0.282842712,stimuli/lakes/207099_left.png,stimuli/lakes/207099_right.png,,,space,0,88,88,99,1,175.243,,,,
,,,,,,$3314280945,2020-07-12_20h52.42.371,fisher_task,2020.1.3,Win32,60,0.001157407,-0.240740741,1,0,0,2.565,scale,,,,,,0.302267034,0.244948974,0.2468,0.2,stimuli/lakes/602017_left.png,stimuli/lakes/602017_right.png,,,,0,89,89,17,1,,,,,
,,,,,,$3314280945,2020-07-12_20h52.42.371,fisher_task,2020.1.3,Win32,60,0.097222222,-0.287037037,1,0,0,4.546,scale,,,,,,0.2468,0.2,0.302267034,0.244948974,stimuli/lakes/403026_left.png,stimuli/lakes/403026_right.png,,,,0,90,90,26,1,,,,,
,,,,,,$3314280945,2020-07-12_20h52.42.371,fisher_task,2020.1.3,Win32,60,-0.049768519,-0.256944444,1,0,0,3.177,scale,,,,,,0.302267034,0.244948974,0.2468,0.2,stimuli/lakes/604055_left.png,stimuli/lakes/604055_right.png,,,,0,91,91,55,1,,,,,
,,,,,,$3314280945,2020-07-12_20h52.42.371,fisher_task,2020.1.3,Win32,60,0.002314815,-0.252314815,1,0,0,5.757,scale,,,,,,0.174513954,0.141421356,0.349027907,0.282842712,stimuli/lakes/2080108_left.png,stimuli/lakes/2080108_right.png,,,,0,92,92,108,1,,,,,
,,,,,,$3314280945,2020-07-12_20h52.42.371,fisher_task,2020.1.3,Win32,60,0.002314815,-0.252314815,1,0,0,3.078,scale,,,,,,0.302267034,0.244948974,0.2468,0.2,stimuli/lakes/60105_left.png,stimuli/lakes/60105_right.png,,,,0,93,93,5,1,,,,,
,,,,,,$3314280945,2020-07-12_20h52.42.371,fisher_task,2020.1.3,Win32,60,0.050925926,-0.253472222,1,0,0,4.061,scale,,,,,,0.21373507,0.173205081,0.326485712,0.264575131,stimuli/lakes/307091_left.png,stimuli/lakes/307091_right.png,,,,0,94,94,91,1,,,,,
,,,,,,$3314280945,2020-07-12_20h52.42.371,fisher_task,2020.1.3,Win32,60,-0.077546296,-0.268518519,1,0,0,3.333,scale,,,,,,0.2468,0.2,0.302267034,0.244948974,stimuli/lakes/4080111_left.png,stimuli/lakes/4080111_right.png,,,,0,95,95,111,1,,,,,
,,,,,,$3314280945,2020-07-12_20h52.42.371,fisher_task,2020.1.3,Win32,60,0.001157407,-0.253472222,1,0,0,4.56,scale,,,,,,0.174513954,0.141421356,0.349027907,0.282842712,stimuli/lakes/207090_left.png,stimuli/lakes/207090_right.png,,,,0,96,96,90,1,,,,,
,,,,,,$3314280945,2020-07-12_20h52.42.371,fisher_task,2020.1.3,Win32,60,0.002314815,-0.253472222,1,0,0,6.031,scale,,,,,,0.302267034,0.244948974,0.2468,0.2,stimuli/lakes/603037_left.png,stimuli/lakes/603037_right.png,,,,0,97,97,37,1,,,,,
,,,,,,$3314280945,2020-07-12_20h52.42.371,fisher_task,2020.1.3,Win32,60,-0.090277778,-0.277777778,1,0,0,3.145,scale,,,,,,0.2468,0.2,0.302267034,0.244948974,stimuli/lakes/4080112_left.png,stimuli/lakes/4080112_right.png,,,,0,98,98,112,1,,,,,
,,,,,,$3314280945,2020-07-12_20h52.42.371,fisher_task,2020.1.3,Win32,60,-0.128472222,-0.295138889,1,0,0,3.602,scale,,,,,,0.2468,0.2,0.302267034,0.244948974,stimuli/lakes/406074_left.png,stimuli/lakes/406074_right.png,,,,0,99,99,74,1,,,,,
,,,,,,$3314280945,2020-07-12_20h52.42.371,fisher_task,2020.1.3,Win32,60,0.145833333,-0.359953704,1,0,0,3.944,scale,,,,,,0.2468,0.2,0.302267034,0.244948974,stimuli/lakes/40102_left.png,stimuli/lakes/40102_right.png,,,,0,100,100,2,1,,,,,
,,,,,,$3314280945,2020-07-12_20h52.42.371,fisher_task,2020.1.3,Win32,60,-0.115740741,-0.300925926,1,0,0,6.603,scale,,,,,,0.3702,0.3,0.1234,0.1,stimuli/lakes/904049_left.png,stimuli/lakes/904049_right.png,,,,0,101,101,49,1,,,,,
,,,,,,$3314280945,2020-07-12_20h52.42.371,fisher_task,2020.1.3,Win32,60,0.12962963,-0.3125,1,0,0,2.35,scale,,,,,,0.1234,0.1,0.3702,0.3,stimuli/lakes/106080_left.png,stimuli/lakes/106080_right.png,,,,0,102,102,80,1,,,,,
,,,,,,$3314280945,2020-07-12_20h52.42.371,fisher_task,2020.1.3,Win32,60,-0.001157407,-0.25,1,0,0,5.6,scale,,,,,,0.21373507,0.173205081,0.326485712,0.264575131,stimuli/lakes/3080109_left.png,stimuli/lakes/3080109_right.png,,,,0,103,103,109,1,,,,,
,,,,,,$3314280945,2020-07-12_20h52.42.371,fisher_task,2020.1.3,Win32,60,-0.171296296,-0.381944444,1,0,0,1.944,scale,,,,,,0.3702,0.3,0.1234,0.1,stimuli/lakes/907097_left.png,stimuli/lakes/907097_right.png,,,,0,104,104,97,1,,,,,
,,,,,,$3314280945,2020-07-12_20h52.42.371,fisher_task,2020.1.3,Win32,60,0.125,-0.311342593,1,0,0,2.755,scale,,,,,,0.1234,0.1,0.3702,0.3,stimuli/lakes/106071_left.png,stimuli/lakes/106071_right.png,,,,0,105,105,71,1,,,,,
,,,,,,$3314280945,2020-07-12_20h52.42.371,fisher_task,2020.1.3,Win32,60,0.005787037,-0.25,1,0,0,5.314,scale,,,,,,0.349027907,0.282842712,0.174513954,0.141421356,stimuli/lakes/80109_left.png,stimuli/lakes/80109_right.png,,,,0,106,106,9,1,,,,,
,,,,,,$3314280945,2020-07-12_20h52.42.371,fisher_task,2020.1.3,Win32,60,-0.090277778,-0.27662037,1,0,0,1.913,scale,,,,,,0.2468,0.2,0.302267034,0.244948974,stimuli/lakes/4090123_left.png,stimuli/lakes/4090123_right.png,,,,0,107,107,123,1,,,,,
,,,,,,$3314280945,2020-07-12_20h52.42.371,fisher_task,2020.1.3,Win32,60,-0.150462963,-0.347222222,1,0,0,2.332,scale,,,,,,0.326485712,0.264575131,0.21373507,0.173205081,stimuli/lakes/7080116_left.png,stimuli/lakes/7080116_right.png,,,,0,108,108,116,1,,,,,
,,,,,,$3314280945,2020-07-12_20h52.42.371,fisher_task,2020.1.3,Win32,60,-0.065972222,-0.266203704,1,0,0,2.385,scale,,,,,,0.3702,0.3,0.1234,0.1,stimuli/lakes/903040_left.png,stimuli/lakes/903040_right.png,,,,0,109,109,40,1,,,,,
,,,,,,$3314280945,2020-07-12_20h52.42.371,fisher_task,2020.1.3,Win32,60,-0.127314815,-0.33912037,1,0,0,1.386,scale,,,,,,0.3702,0.3,0.1234,0.1,stimuli/lakes/906079_left.png,stimuli/lakes/906079_right.png,,,space,0,110,110,79,1,2.183,,,,
,,,,,,$3314280945,2020-07-12_20h52.42.371,fisher_task,2020.1.3,Win32,60,0.152777778,-0.391203704,1,0,0,2.407,scale,,,,,,0.21373507,0.173205081,0.326485712,0.264575131,stimuli/lakes/30100_left.png,stimuli/lakes/30100_right.png,,,,0,111,111,0,1,,,,,
,,,,,,$3314280945,2020-07-12_20h52.42.371,fisher_task,2020.1.3,Win32,60,0.052083333,-0.256944444,1,0,0,4.596,scale,,,,,,0.21373507,0.173205081,0.326485712,0.264575131,stimuli/lakes/3070100_left.png,stimuli/lakes/3070100_right.png,,,,0,112,112,100,1,,,,,
,,,,,,$3314280945,2020-07-12_20h52.42.371,fisher_task,2020.1.3,Win32,60,0.133101852,-0.331018519,1,0,0,1.468,scale,,,,,,0.21373507,0.173205081,0.326485712,0.264575131,stimuli/lakes/304043_left.png,stimuli/lakes/304043_right.png,,,,0,113,113,43,1,,,,,
,,,,,,$3314280945,2020-07-12_20h52.42.371,fisher_task,2020.1.3,Win32,60,0,-0.251157407,1,0,0,3.579,scale,,,,,,0.3702,0.3,0.1234,0.1,stimuli/lakes/901010_left.png,stimuli/lakes/901010_right.png,,,,0,114,114,10,1,,,,,
,,,,,,$3314280945,2020-07-12_20h52.42.371,fisher_task,2020.1.3,Win32,60,0.054398148,-0.263888889,1,0,0,2.062,scale,,,,,,0.1234,0.1,0.3702,0.3,stimuli/lakes/107098_left.png,stimuli/lakes/107098_right.png,,,,0,115,115,98,1,,,,,
,,,,,,$3314280945,2020-07-12_20h52.42.371,fisher_task,2020.1.3,Win32,60,0.165509259,-0.388888889,1,0,0,1.382,scale,,,,,,0.1234,0.1,0.3702,0.3,stimuli/lakes/104050_left.png,stimuli/lakes/104050_right.png,,,,0,116,116,50,1,,,,,
,,,,,,$3314280945,2020-07-12_20h52.42.371,fisher_task,2020.1.3,Win32,60,0.107638889,-0.311342593,1,0,0,1.651,scale,,,,,,0.21373507,0.173205081,0.326485712,0.264575131,stimuli/lakes/306082_left.png,stimuli/lakes/306082_right.png,,,,0,117,117,82,1,,,,,
,,,,,,$3314280945,2020-07-12_20h52.42.371,fisher_task,2020.1.3,Win32,60,0.155092593,-0.385416667,1,0,0,1.825,scale,,,,,,0.174513954,0.141421356,0.349027907,0.282842712,stimuli/lakes/202011_left.png,stimuli/lakes/202011_right.png,,,,0,118,118,11,1,,,,,
,,,,,,$3314280945,2020-07-12_20h52.42.371,fisher_task,2020.1.3,Win32,60,0.113425926,-0.311342593,1,0,0,5.261,scale,,,,,,0.21373507,0.173205081,0.326485712,0.264575131,stimuli/lakes/306073_left.png,stimuli/lakes/306073_right.png,,,,0,119,119,73,1,,,,,
,,,,,,$3314280945,2020-07-12_20h52.42.371,fisher_task,2020.1.3,Win32,60,0.005787037,-0.256944444,1,0,0,4.377,scale,,,,,,0.349027907,0.282842712,0.174513954,0.141421356,stimuli/lakes/802021_left.png,stimuli/lakes/802021_right.png,,,,0,120,120,21,1,,,,,
,,,,,,$3314280945,2020-07-12_20h52.42.371,fisher_task,2020.1.3,Win32,60,0.113425926,-0.299768519,1,0,0,3.431,scale,,,,,,0.174513954,0.141421356,0.349027907,0.282842712,stimuli/lakes/205060_left.png,stimuli/lakes/205060_right.png,,,,0,121,121,60,1,,,,,
,,,,,,$3314280945,2020-07-12_20h52.42.371,fisher_task,2020.1.3,Win32,60,0.002314815,-0.253472222,1,0,0,3.8,scale,,,,,,0.174513954,0.141421356,0.349027907,0.282842712,stimuli/lakes/2090120_left.png,stimuli/lakes/2090120_right.png,,,,0,122,122,120,1,,,,,
,,,,,,$3314280945,2020-07-12_20h52.42.371,fisher_task,2020.1.3,Win32,60,-0.155092593,-0.358796296,1,0,0,1.416,scale,,,,,,0.326485712,0.264575131,0.21373507,0.173205081,stimuli/lakes/7090128_left.png,stimuli/lakes/7090128_right.png,,,,0,123,123,128,1,,,,,
,,,,,,$3314280945,2020-07-12_20h52.42.371,fisher_task,2020.1.3,Win32,60,0.148148148,-0.390046296,1,0,0,1.299,scale,,,,,,0.174513954,0.141421356,0.349027907,0.282842712,stimuli/lakes/204042_left.png,stimuli/lakes/204042_right.png,,,,0,124,124,42,1,,,,,
,,,,,,$3314280945,2020-07-12_20h52.42.371,fisher_task,2020.1.3,Win32,60,0.114583333,-0.300925926,1,0,0,1.724,scale,,,,,,0.275930788,0.223606798,0.275930788,0.223606798,stimuli/lakes/503027_left.png,stimuli/lakes/503027_right.png,,,,0,125,125,27,1,,,,,
,,,,,,$3314280945,2020-07-12_20h52.42.371,fisher_task,2020.1.3,Win32,60,-0.12037037,-0.310185185,1,0,0,1.961,scale,,,,,,0.302267034,0.244948974,0.2468,0.2,stimuli/lakes/606076_left.png,stimuli/lakes/606076_right.png,,,,0,126,126,76,1,,,,,
,,,,,,$3314280945,2020-07-12_20h52.42.371,fisher_task,2020.1.3,Win32,60,-0.133101852,-0.335648148,1,0,0,2.638,scale,,,,,,0.3702,0.3,0.1234,0.1,stimuli/lakes/904058_left.png,stimuli/lakes/904058_right.png,,,,0,127,127,58,1,,,,,
,,,,,,$3314280945,2020-07-12_20h52.42.371,fisher_task,2020.1.3,Win32,60,-0.15625,-0.391203704,1,0,0,1.449,scale,,,,,,0.326485712,0.264575131,0.21373507,0.173205081,stimuli/lakes/707095_left.png,stimuli/lakes/707095_right.png,,,,0,128,128,95,1,,,,,
,,,,,,$3314280945,2020-07-12_20h52.42.371,fisher_task,2020.1.3,Win32,60,-0.101851852,-0.296296296,1,0,0,2.565,scale,,,,,,0.326485712,0.264575131,0.21373507,0.173205081,stimuli/lakes/703029_left.png,stimuli/lakes/703029_right.png,,,,0,129,129,29,1,,,,,
,,,,,,$3314280945,2020-07-12_20h52.42.371,fisher_task,2020.1.3,Win32,60,,,,,,,,,,,,,,,,,,,,,,,,,,,,space,4.653,space,68.19
