keySpace.keys,instructions.thisRepN,instructions.thisTrialN,instructions.thisN,instructions.thisIndex,instructions.ran,participant,date,expName,psychopyVersion,OS,frameRate,mouse.x,mouse.y,mouse.leftButton,mouse.midButton,mouse.rightButton,mouse.time,mouse.clicked_name,training.thisRepN,training.thisTrialN,training.thisN,training.thisIndex,training.ran,widthBasketLeft,heightBasketLeft,widthBasketRight,heightBasketRight,leftLake,rightLake,space2.keys,space2.rt,space1.keys,trials.thisRepN,trials.thisTrialN,trials.thisN,trials.thisIndex,trials.ran,space1.rt,finalSpace1.keys,finalSpace1.rt,finalSpace2.keys,finalSpace2.rt
,0,0,0,0,1,$1875245122,2020-07-13_12h41.39.439,fisher_task,2020.1.3,Linux x86_64,60,,,,,,,,,,,,,,,,,,,,,,,,,,,,,,,
,,,,,,$1875245122,2020-07-13_12h41.39.439,fisher_task,2020.1.3,Linux x86_64,60,0.137962963,-0.338888889,1,0,0,7.1,scale,0,0,0,0,1,0.275930788,0.223606798,0.275930788,0.223606798,stimuli/training/20_left.png,stimuli/training/20_right.png,,,,,,,,,,,,,
,,,,,,$1875245122,2020-07-13_12h41.39.439,fisher_task,2020.1.3,Linux x86_64,60,-0.133333333,-0.331481481,1,0,0,1.861,scale,0,1,1,1,1,0.275930788,0.223606798,0.275930788,0.223606798,stimuli/training/80_left.png,stimuli/training/80_right.png,,,,,,,,,,,,,
,,,,,,$1875245122,2020-07-13_12h41.39.439,fisher_task,2020.1.3,Linux x86_64,60,0.125,-0.315740741,1,0,0,3.449,scale,0,2,2,2,1,0.174513954,0.141421356,0.349027907,0.282842712,stimuli/training/50_left.png,stimuli/training/50_right.png,,,,,,,,,,,,,
,,,,,,$1875245122,2020-07-13_12h41.39.439,fisher_task,2020.1.3,Linux x86_64,60,-0.126851852,-0.32962963,1,0,0,5.2,scale,0,3,3,3,1,0.349027907,0.282842712,0.174513954,0.141421356,stimuli/training/50_left.png,stimuli/training/50_right.png,,,,,,,,,,,,,
,,,,,,$1875245122,2020-07-13_12h41.39.439,fisher_task,2020.1.3,Linux x86_64,60,0.128703704,-0.32962963,1,0,0,2.898,scale,0,4,4,4,1,0.275930788,0.223606798,0.275930788,0.223606798,stimuli/training/50_left.png,stimuli/training/50_right.png,,,,,,,,,,,,,
,,,,,,$1875245122,2020-07-13_12h41.39.439,fisher_task,2020.1.3,Linux x86_64,60,0.150925926,-0.388888889,1,0,0,3.749,scale,0,5,5,5,1,0.174513954,0.141421356,0.349027907,0.282842712,stimuli/training/20_left.png,stimuli/training/20_right.png,,,,,,,,,,,,,
,,,,,,$1875245122,2020-07-13_12h41.39.439,fisher_task,2020.1.3,Linux x86_64,60,-0.155555556,-0.385185185,1,0,0,2.046,scale,0,6,6,6,1,0.349027907,0.282842712,0.174513954,0.141421356,stimuli/training/80_left.png,stimuli/training/80_right.png,,,,,,,,,,,,,
,,,,,,$1875245122,2020-07-13_12h41.39.439,fisher_task,2020.1.3,Linux x86_64,60,0.158333333,-0.409259259,1,0,0,2.584,scale,0,7,7,7,1,0.1234,0.1,0.3702,0.3,stimuli/training/30_left.png,stimuli/training/30_right.png,,,,,,,,,,,,,
,,,,,,$1875245122,2020-07-13_12h41.39.439,fisher_task,2020.1.3,Linux x86_64,60,-0.153703704,-0.402777778,1,0,0,2.184,scale,0,8,8,8,1,0.3702,0.3,0.1234,0.1,stimuli/training/70_left.png,stimuli/training/70_right.png,,,,,,,,,,,,,
,,,,,,$1875245122,2020-07-13_12h41.39.439,fisher_task,2020.1.3,Linux x86_64,60,-0.155555556,-0.417592593,1,0,0,5.797,scale,0,9,9,9,1,0.326485712,0.264575131,0.21373507,0.173205081,stimuli/training/90_left.png,stimuli/training/90_right.png,,,,,,,,,,,,,
,,,,,,$1875245122,2020-07-13_12h41.39.439,fisher_task,2020.1.3,Linux x86_64,60,0.153703704,-0.412962963,1,0,0,2.804,scale,0,10,10,10,1,0.21373507,0.173205081,0.326485712,0.264575131,stimuli/training/10_left.png,stimuli/training/10_right.png,,,,,,,,,,,,,
,,,,,,$1875245122,2020-07-13_12h41.39.439,fisher_task,2020.1.3,Linux x86_64,60,-0.043518519,-0.264814815,1,0,0,11.016,scale,,,,,,0.3702,0.3,0.1234,0.1,stimuli/lakes/903031_left.png,stimuli/lakes/903031_right.png,space,4.876,,0,0,0,31,1,,,,,
,,,,,,$1875245122,2020-07-13_12h41.39.439,fisher_task,2020.1.3,Linux x86_64,60,-0.149074074,-0.368518519,1,0,0,6.514,scale,,,,,,0.275930788,0.223606798,0.275930788,0.223606798,stimuli/lakes/507093_left.png,stimuli/lakes/507093_right.png,,,,0,1,1,93,1,,,,,
,,,,,,$1875245122,2020-07-13_12h41.39.439,fisher_task,2020.1.3,Linux x86_64,60,0.112037037,-0.310185185,1,0,0,4.624,scale,,,,,,0.1234,0.1,0.3702,0.3,stimuli/lakes/104050_left.png,stimuli/lakes/104050_right.png,,,,0,2,2,50,1,,,,,
,,,,,,$1875245122,2020-07-13_12h41.39.439,fisher_task,2020.1.3,Linux x86_64,60,0.030555556,-0.260185185,1,0,0,9.483,scale,,,,,,0.174513954,0.141421356,0.349027907,0.282842712,stimuli/lakes/207099_left.png,stimuli/lakes/207099_right.png,,,,0,3,3,99,1,,,,,
,,,,,,$1875245122,2020-07-13_12h41.39.439,fisher_task,2020.1.3,Linux x86_64,60,-0.142592593,-0.356481481,1,0,0,4,scale,,,,,,0.302267034,0.244948974,0.2468,0.2,stimuli/lakes/6080114_left.png,stimuli/lakes/6080114_right.png,,,,0,4,4,114,1,,,,,
,,,,,,$1875245122,2020-07-13_12h41.39.439,fisher_task,2020.1.3,Linux x86_64,60,0.075,-0.281481481,1,0,0,4.165,scale,,,,,,0.326485712,0.264575131,0.21373507,0.173205081,stimuli/lakes/703038_left.png,stimuli/lakes/703038_right.png,,,,0,5,5,38,1,,,,,
,,,,,,$1875245122,2020-07-13_12h41.39.439,fisher_task,2020.1.3,Linux x86_64,60,-0.14537037,-0.362037037,1,0,0,2.016,scale,,,,,,0.349027907,0.282842712,0.174513954,0.141421356,stimuli/lakes/806078_left.png,stimuli/lakes/806078_right.png,,,,0,6,6,78,1,,,,,
,,,,,,$1875245122,2020-07-13_12h41.39.439,fisher_task,2020.1.3,Linux x86_64,60,-0.024074074,-0.265740741,1,0,0,6.889,scale,,,,,,0.302267034,0.244948974,0.2468,0.2,stimuli/lakes/603028_left.png,stimuli/lakes/603028_right.png,,,,0,7,7,28,1,,,,,
,,,,,,$1875245122,2020-07-13_12h41.39.439,fisher_task,2020.1.3,Linux x86_64,60,-0.00462963,-0.258333333,1,0,0,15.288,scale,,,,,,0.174513954,0.141421356,0.349027907,0.282842712,stimuli/lakes/207090_left.png,stimuli/lakes/207090_right.png,,,,0,8,8,90,1,,,,,
,,,,,,$1875245122,2020-07-13_12h41.39.439,fisher_task,2020.1.3,Linux x86_64,60,-0.15462963,-0.390740741,1,0,0,3.666,scale,,,,,,0.302267034,0.244948974,0.2468,0.2,stimuli/lakes/6090127_left.png,stimuli/lakes/6090127_right.png,,,,0,9,9,127,1,,,,,
,,,,,,$1875245122,2020-07-13_12h41.39.439,fisher_task,2020.1.3,Linux x86_64,60,-0.050925926,-0.272222222,1,0,0,23.515,scale,,,,,,0.1234,0.1,0.3702,0.3,stimuli/lakes/107089_left.png,stimuli/lakes/107089_right.png,,,,0,10,10,89,1,,,,,
,,,,,,$1875245122,2020-07-13_12h41.39.439,fisher_task,2020.1.3,Linux x86_64,60,-0.121296296,-0.32037037,1,0,0,2.251,scale,,,,,,0.2468,0.2,0.302267034,0.244948974,stimuli/lakes/406083_left.png,stimuli/lakes/406083_right.png,,,,0,11,11,83,1,,,,,
,,,,,,$1875245122,2020-07-13_12h41.39.439,fisher_task,2020.1.3,Linux x86_64,60,0.146296296,-0.361111111,1,0,0,1.816,scale,,,,,,0.174513954,0.141421356,0.349027907,0.282842712,stimuli/lakes/203024_left.png,stimuli/lakes/203024_right.png,,,,0,12,12,24,1,,,,,
,,,,,,$1875245122,2020-07-13_12h41.39.439,fisher_task,2020.1.3,Linux x86_64,60,0.005555556,-0.261111111,1,0,0,9.826,scale,,,,,,0.1234,0.1,0.3702,0.3,stimuli/lakes/107098_left.png,stimuli/lakes/107098_right.png,,,,0,13,13,98,1,,,,,
,,,,,,$1875245122,2020-07-13_12h41.39.439,fisher_task,2020.1.3,Linux x86_64,60,-0.144444444,-0.358333333,1,0,0,1.559,scale,,,,,,0.3702,0.3,0.1234,0.1,stimuli/lakes/906079_left.png,stimuli/lakes/906079_right.png,,,,0,14,14,79,1,,,,,
,,,,,,$1875245122,2020-07-13_12h41.39.439,fisher_task,2020.1.3,Linux x86_64,60,0.101851852,-0.298148148,1,0,0,1.505,scale,,,,,,0.174513954,0.141421356,0.349027907,0.282842712,stimuli/lakes/204051_left.png,stimuli/lakes/204051_right.png,,,,0,15,15,51,1,,,,,
,,,,,,$1875245122,2020-07-13_12h41.39.439,fisher_task,2020.1.3,Linux x86_64,60,0.040740741,-0.27037037,1,0,0,5.976,scale,,,,,,0.1234,0.1,0.3702,0.3,stimuli/lakes/106071_left.png,stimuli/lakes/106071_right.png,,,,0,16,16,71,1,,,,,
,,,,,,$1875245122,2020-07-13_12h41.39.439,fisher_task,2020.1.3,Linux x86_64,60,-0.151851852,-0.362962963,1,0,0,13.166,scale,,,,,,0.326485712,0.264575131,0.21373507,0.173205081,stimuli/lakes/705067_left.png,stimuli/lakes/705067_right.png,,,,0,17,17,67,1,,,,,
,,,,,,$1875245122,2020-07-13_12h41.39.439,fisher_task,2020.1.3,Linux x86_64,60,-0.084259259,-0.285185185,1,0,0,3.016,scale,,,,,,0.3702,0.3,0.1234,0.1,stimuli/lakes/904049_left.png,stimuli/lakes/904049_right.png,,,,0,18,18,49,1,,,,,
,,,,,,$1875245122,2020-07-13_12h41.39.439,fisher_task,2020.1.3,Linux x86_64,60,-0.112962963,-0.307407407,1,0,0,2.033,scale,,,,,,0.326485712,0.264575131,0.21373507,0.173205081,stimuli/lakes/706077_left.png,stimuli/lakes/706077_right.png,,,,0,19,19,77,1,,,,,
,,,,,,$1875245122,2020-07-13_12h41.39.439,fisher_task,2020.1.3,Linux x86_64,60,0.134259259,-0.335185185,1,0,0,4.167,scale,,,,,,0.302267034,0.244948974,0.2468,0.2,stimuli/lakes/602017_left.png,stimuli/lakes/602017_right.png,,,,0,20,20,17,1,,,,,
,,,,,,$1875245122,2020-07-13_12h41.39.439,fisher_task,2020.1.3,Linux x86_64,60,0.078703704,-0.275,1,0,0,4.633,scale,,,,,,0.21373507,0.173205081,0.326485712,0.264575131,stimuli/lakes/307091_left.png,stimuli/lakes/307091_right.png,,,,0,21,21,91,1,,,,,
,,,,,,$1875245122,2020-07-13_12h41.39.439,fisher_task,2020.1.3,Linux x86_64,60,0.12962963,-0.330555556,1,0,0,6.749,scale,,,,,,0.21373507,0.173205081,0.326485712,0.264575131,stimuli/lakes/303034_left.png,stimuli/lakes/303034_right.png,,,space,0,22,22,34,1,3.735,,,,
,,,,,,$1875245122,2020-07-13_12h41.39.439,fisher_task,2020.1.3,Linux x86_64,60,-0.088888889,-0.29537037,1,0,0,2.817,scale,,,,,,0.302267034,0.244948974,0.2468,0.2,stimuli/lakes/605065_left.png,stimuli/lakes/605065_right.png,,,,0,23,23,65,1,,,,,
,,,,,,$1875245122,2020-07-13_12h41.39.439,fisher_task,2020.1.3,Linux x86_64,60,0.157407407,-0.396296296,1,0,0,6.566,scale,,,,,,0.326485712,0.264575131,0.21373507,0.173205081,stimuli/lakes/70108_left.png,stimuli/lakes/70108_right.png,,,,0,24,24,8,1,,,,,
,,,,,,$1875245122,2020-07-13_12h41.39.439,fisher_task,2020.1.3,Linux x86_64,60,0.157407407,-0.405555556,1,0,0,2.015,scale,,,,,,0.2468,0.2,0.302267034,0.244948974,stimuli/lakes/402015_left.png,stimuli/lakes/402015_right.png,,,,0,25,25,15,1,,,,,
,,,,,,$1875245122,2020-07-13_12h41.39.439,fisher_task,2020.1.3,Linux x86_64,60,0.119444444,-0.323148148,1,0,0,3.749,scale,,,,,,0.21373507,0.173205081,0.326485712,0.264575131,stimuli/lakes/304043_left.png,stimuli/lakes/304043_right.png,,,,0,26,26,43,1,,,,,
,,,,,,$1875245122,2020-07-13_12h41.39.439,fisher_task,2020.1.3,Linux x86_64,60,-0.163888889,-0.407407407,1,0,0,8.083,scale,,,,,,0.21373507,0.173205081,0.326485712,0.264575131,stimuli/lakes/3090121_left.png,stimuli/lakes/3090121_right.png,,,,0,27,27,121,1,,,,,
,,,,,,$1875245122,2020-07-13_12h41.39.439,fisher_task,2020.1.3,Linux x86_64,60,-0.151851852,-0.40462963,1,0,0,2.9,scale,,,,,,0.326485712,0.264575131,0.21373507,0.173205081,stimuli/lakes/7090128_left.png,stimuli/lakes/7090128_right.png,,,,0,28,28,128,1,,,,,
,,,,,,$1875245122,2020-07-13_12h41.39.439,fisher_task,2020.1.3,Linux x86_64,60,0.151851852,-0.369444444,1,0,0,4.15,scale,,,,,,0.302267034,0.244948974,0.2468,0.2,stimuli/lakes/602018_left.png,stimuli/lakes/602018_right.png,,,,0,29,29,18,1,,,,,
,,,,,,$1875245122,2020-07-13_12h41.39.439,fisher_task,2020.1.3,Linux x86_64,60,-0.158333333,-0.408333333,1,0,0,3.973,scale,,,,,,0.3702,0.3,0.1234,0.1,stimuli/lakes/9070106_left.png,stimuli/lakes/9070106_right.png,,,,0,30,30,106,1,,,,,
,,,,,,$1875245122,2020-07-13_12h41.39.439,fisher_task,2020.1.3,Linux x86_64,60,-0.150925926,-0.369444444,1,0,0,8.234,scale,,,,,,0.302267034,0.244948974,0.2468,0.2,stimuli/lakes/6070103_left.png,stimuli/lakes/6070103_right.png,,,,0,31,31,103,1,,,,,
,,,,,,$1875245122,2020-07-13_12h41.39.439,fisher_task,2020.1.3,Linux x86_64,60,0.140740741,-0.350925926,1,0,0,2.713,scale,,,,,,0.2468,0.2,0.302267034,0.244948974,stimuli/lakes/403035_left.png,stimuli/lakes/403035_right.png,,,,0,32,32,35,1,,,,,
,,,,,,$1875245122,2020-07-13_12h41.39.439,fisher_task,2020.1.3,Linux x86_64,60,0.150925926,-0.385185185,1,0,0,1.35,scale,,,,,,0.21373507,0.173205081,0.326485712,0.264575131,stimuli/lakes/303025_left.png,stimuli/lakes/303025_right.png,,,,0,33,33,25,1,,,,,
,,,,,,$1875245122,2020-07-13_12h41.39.439,fisher_task,2020.1.3,Linux x86_64,60,0.137037037,-0.341666667,1,0,0,6.066,scale,,,,,,0.349027907,0.282842712,0.174513954,0.141421356,stimuli/lakes/802021_left.png,stimuli/lakes/802021_right.png,,,,0,34,34,21,1,,,,,
,,,,,,$1875245122,2020-07-13_12h41.39.439,fisher_task,2020.1.3,Linux x86_64,60,0.15462963,-0.402777778,1,0,0,4.049,scale,,,,,,0.174513954,0.141421356,0.349027907,0.282842712,stimuli/lakes/205060_left.png,stimuli/lakes/205060_right.png,,,,0,35,35,60,1,,,,,
,,,,,,$1875245122,2020-07-13_12h41.39.439,fisher_task,2020.1.3,Linux x86_64,60,-0.150925926,-0.405555556,1,0,0,2.133,scale,,,,,,0.2468,0.2,0.302267034,0.244948974,stimuli/lakes/4070101_left.png,stimuli/lakes/4070101_right.png,,,,0,36,36,101,1,,,,,
,,,,,,$1875245122,2020-07-13_12h41.39.439,fisher_task,2020.1.3,Linux x86_64,60,-0.157407407,-0.419444444,1,0,0,1.504,scale,,,,,,0.302267034,0.244948974,0.2468,0.2,stimuli/lakes/6080115_left.png,stimuli/lakes/6080115_right.png,,,,0,37,37,115,1,,,,,
,,,,,,$1875245122,2020-07-13_12h41.39.439,fisher_task,2020.1.3,Linux x86_64,60,0.139814815,-0.356481481,1,0,0,7.457,scale,,,,,,0.302267034,0.244948974,0.2468,0.2,stimuli/lakes/60105_left.png,stimuli/lakes/60105_right.png,,,,0,38,38,5,1,,,,,
,,,,,,$1875245122,2020-07-13_12h41.39.439,fisher_task,2020.1.3,Linux x86_64,60,0.146296296,-0.371296296,1,0,0,3.037,scale,,,,,,0.174513954,0.141421356,0.349027907,0.282842712,stimuli/lakes/204042_left.png,stimuli/lakes/204042_right.png,,,,0,39,39,42,1,,,,,
,,,,,,$1875245122,2020-07-13_12h41.39.439,fisher_task,2020.1.3,Linux x86_64,60,0.152777778,-0.389814815,1,0,0,3.27,scale,,,,,,0.21373507,0.173205081,0.326485712,0.264575131,stimuli/lakes/302012_left.png,stimuli/lakes/302012_right.png,,,,0,40,40,12,1,,,,,
,,,,,,$1875245122,2020-07-13_12h41.39.439,fisher_task,2020.1.3,Linux x86_64,60,-0.100925926,-0.296296296,1,0,0,2.465,scale,,,,,,0.349027907,0.282842712,0.174513954,0.141421356,stimuli/lakes/804057_left.png,stimuli/lakes/804057_right.png,,,,0,41,41,57,1,,,,,
,,,,,,$1875245122,2020-07-13_12h41.39.439,fisher_task,2020.1.3,Linux x86_64,60,0.151851852,-0.401851852,1,0,0,3.699,scale,,,,,,0.275930788,0.223606798,0.275930788,0.223606798,stimuli/lakes/502016_left.png,stimuli/lakes/502016_right.png,,,,0,42,42,16,1,,,,,
,,,,,,$1875245122,2020-07-13_12h41.39.439,fisher_task,2020.1.3,Linux x86_64,60,-0.010185185,-0.263888889,1,0,0,4.583,scale,,,,,,0.174513954,0.141421356,0.349027907,0.282842712,stimuli/lakes/2080108_left.png,stimuli/lakes/2080108_right.png,,,,0,43,43,108,1,,,,,
,,,,,,$1875245122,2020-07-13_12h41.39.439,fisher_task,2020.1.3,Linux x86_64,60,-0.150925926,-0.367592593,1,0,0,9.347,scale,,,,,,0.3702,0.3,0.1234,0.1,stimuli/lakes/905070_left.png,stimuli/lakes/905070_right.png,,,space,0,44,44,70,1,11.472,,,,
,,,,,,$1875245122,2020-07-13_12h41.39.439,fisher_task,2020.1.3,Linux x86_64,60,0.005555556,-0.268518519,1,0,0,2.333,scale,,,,,,0.3702,0.3,0.1234,0.1,stimuli/lakes/902022_left.png,stimuli/lakes/902022_right.png,,,,0,45,45,22,1,,,,,
,,,,,,$1875245122,2020-07-13_12h41.39.439,fisher_task,2020.1.3,Linux x86_64,60,0.155555556,-0.413888889,1,0,0,2.95,scale,,,,,,0.1234,0.1,0.3702,0.3,stimuli/lakes/103023_left.png,stimuli/lakes/103023_right.png,,,,0,46,46,23,1,,,,,
,,,,,,$1875245122,2020-07-13_12h41.39.439,fisher_task,2020.1.3,Linux x86_64,60,-0.143518519,-0.337962963,1,0,0,1.88,scale,,,,,,0.302267034,0.244948974,0.2468,0.2,stimuli/lakes/606085_left.png,stimuli/lakes/606085_right.png,,,,0,47,47,85,1,,,,,
,,,,,,$1875245122,2020-07-13_12h41.39.439,fisher_task,2020.1.3,Linux x86_64,60,-0.030555556,-0.259259259,1,0,0,8.729,scale,,,,,,0.302267034,0.244948974,0.2468,0.2,stimuli/lakes/603037_left.png,stimuli/lakes/603037_right.png,,,,0,48,48,37,1,,,,,
,,,,,,$1875245122,2020-07-13_12h41.39.439,fisher_task,2020.1.3,Linux x86_64,60,-0.053703704,-0.268518519,1,0,0,3.117,scale,,,,,,0.326485712,0.264575131,0.21373507,0.173205081,stimuli/lakes/704047_left.png,stimuli/lakes/704047_right.png,,,,0,49,49,47,1,,,,,
,,,,,,$1875245122,2020-07-13_12h41.39.439,fisher_task,2020.1.3,Linux x86_64,60,-0.135185185,-0.337962963,1,0,0,6.484,scale,,,,,,0.275930788,0.223606798,0.275930788,0.223606798,stimuli/lakes/5070102_left.png,stimuli/lakes/5070102_right.png,,,,0,50,50,102,1,,,,,
,,,,,,$1875245122,2020-07-13_12h41.39.439,fisher_task,2020.1.3,Linux x86_64,60,0.15,-0.383333333,1,0,0,4.016,scale,,,,,,0.1234,0.1,0.3702,0.3,stimuli/lakes/106080_left.png,stimuli/lakes/106080_right.png,,,,0,51,51,80,1,,,,,
,,,,,,$1875245122,2020-07-13_12h41.39.439,fisher_task,2020.1.3,Linux x86_64,60,-0.148148148,-0.367592593,1,0,0,3.45,scale,,,,,,0.21373507,0.173205081,0.326485712,0.264575131,stimuli/lakes/3090122_left.png,stimuli/lakes/3090122_right.png,,,,0,52,52,122,1,,,,,
,,,,,,$1875245122,2020-07-13_12h41.39.439,fisher_task,2020.1.3,Linux x86_64,60,0.006481481,-0.253703704,1,0,0,5.35,scale,,,,,,0.2468,0.2,0.302267034,0.244948974,stimuli/lakes/405064_left.png,stimuli/lakes/405064_right.png,,,,0,53,53,64,1,,,,,
,,,,,,$1875245122,2020-07-13_12h41.39.439,fisher_task,2020.1.3,Linux x86_64,60,0.090740741,-0.283333333,1,0,0,2.967,scale,,,,,,0.21373507,0.173205081,0.326485712,0.264575131,stimuli/lakes/305061_left.png,stimuli/lakes/305061_right.png,,,,0,54,54,61,1,,,,,
,,,,,,$1875245122,2020-07-13_12h41.39.439,fisher_task,2020.1.3,Linux x86_64,60,-0.081481481,-0.287962963,1,0,0,2.101,scale,,,,,,0.3702,0.3,0.1234,0.1,stimuli/lakes/904058_left.png,stimuli/lakes/904058_right.png,,,,0,55,55,58,1,,,,,
,,,,,,$1875245122,2020-07-13_12h41.39.439,fisher_task,2020.1.3,Linux x86_64,60,0.07037037,-0.273148148,1,0,0,2.28,scale,,,,,,0.2468,0.2,0.302267034,0.244948974,stimuli/lakes/404044_left.png,stimuli/lakes/404044_right.png,,,,0,56,56,44,1,,,,,
,,,,,,$1875245122,2020-07-13_12h41.39.439,fisher_task,2020.1.3,Linux x86_64,60,0.086111111,-0.282407407,1,0,0,1.434,scale,,,,,,0.275930788,0.223606798,0.275930788,0.223606798,stimuli/lakes/504045_left.png,stimuli/lakes/504045_right.png,,,,0,57,57,45,1,,,,,
,,,,,,$1875245122,2020-07-13_12h41.39.439,fisher_task,2020.1.3,Linux x86_64,60,-0.081481481,-0.282407407,1,0,0,3.899,scale,,,,,,0.326485712,0.264575131,0.21373507,0.173205081,stimuli/lakes/706086_left.png,stimuli/lakes/706086_right.png,,,,0,58,58,86,1,,,,,
,,,,,,$1875245122,2020-07-13_12h41.39.439,fisher_task,2020.1.3,Linux x86_64,60,-0.153703704,-0.391666667,1,0,0,1.551,scale,,,,,,0.3702,0.3,0.1234,0.1,stimuli/lakes/907097_left.png,stimuli/lakes/907097_right.png,,,,0,59,59,97,1,,,,,
,,,,,,$1875245122,2020-07-13_12h41.39.439,fisher_task,2020.1.3,Linux x86_64,60,-0.133333333,-0.32962963,1,0,0,1.549,scale,,,,,,0.302267034,0.244948974,0.2468,0.2,stimuli/lakes/606076_left.png,stimuli/lakes/606076_right.png,,,,0,60,60,76,1,,,,,
,,,,,,$1875245122,2020-07-13_12h41.39.439,fisher_task,2020.1.3,Linux x86_64,60,-0.150925926,-0.389814815,1,0,0,2.416,scale,,,,,,0.2468,0.2,0.302267034,0.244948974,stimuli/lakes/4090123_left.png,stimuli/lakes/4090123_right.png,,,,0,61,61,123,1,,,,,
,,,,,,$1875245122,2020-07-13_12h41.39.439,fisher_task,2020.1.3,Linux x86_64,60,-0.156481481,-0.384259259,1,0,0,2.032,scale,,,,,,0.326485712,0.264575131,0.21373507,0.173205081,stimuli/lakes/7070104_left.png,stimuli/lakes/7070104_right.png,,,,0,62,62,104,1,,,,,
,,,,,,$1875245122,2020-07-13_12h41.39.439,fisher_task,2020.1.3,Linux x86_64,60,0.163888889,-0.391666667,1,0,0,1.468,scale,,,,,,0.1234,0.1,0.3702,0.3,stimuli/lakes/103032_left.png,stimuli/lakes/103032_right.png,,,,0,63,63,32,1,,,,,
,,,,,,$1875245122,2020-07-13_12h41.39.439,fisher_task,2020.1.3,Linux x86_64,60,0.137037037,-0.337962963,1,0,0,2.402,scale,,,,,,0.2468,0.2,0.302267034,0.244948974,stimuli/lakes/404053_left.png,stimuli/lakes/404053_right.png,,,,0,64,64,53,1,,,,,
,,,,,,$1875245122,2020-07-13_12h41.39.439,fisher_task,2020.1.3,Linux x86_64,60,0.000925926,-0.256481481,1,0,0,6.448,scale,,,,,,0.2468,0.2,0.302267034,0.244948974,stimuli/lakes/405063_left.png,stimuli/lakes/405063_right.png,,,,0,65,65,63,1,,,,,
,,,,,,$1875245122,2020-07-13_12h41.39.439,fisher_task,2020.1.3,Linux x86_64,60,-0.139814815,-0.348148148,1,0,0,3.416,scale,,,,,,0.349027907,0.282842712,0.174513954,0.141421356,stimuli/lakes/8070105_left.png,stimuli/lakes/8070105_right.png,,,space,0,66,66,105,1,48.105,,,,
,,,,,,$1875245122,2020-07-13_12h41.39.439,fisher_task,2020.1.3,Linux x86_64,60,0.138888889,-0.353703704,1,0,0,1.333,scale,,,,,,0.174513954,0.141421356,0.349027907,0.282842712,stimuli/lakes/202011_left.png,stimuli/lakes/202011_right.png,,,,0,67,67,11,1,,,,,
,,,,,,$1875245122,2020-07-13_12h41.39.439,fisher_task,2020.1.3,Linux x86_64,60,0.125,-0.324074074,1,0,0,5.866,scale,,,,,,0.1234,0.1,0.3702,0.3,stimuli/lakes/105059_left.png,stimuli/lakes/105059_right.png,,,,0,68,68,59,1,,,,,
,,,,,,$1875245122,2020-07-13_12h41.39.439,fisher_task,2020.1.3,Linux x86_64,60,-0.12962963,-0.326851852,1,0,0,5.571,scale,,,,,,0.174513954,0.141421356,0.349027907,0.282842712,stimuli/lakes/2090120_left.png,stimuli/lakes/2090120_right.png,,,,0,69,69,120,1,,,,,
,,,,,,$1875245122,2020-07-13_12h41.39.439,fisher_task,2020.1.3,Linux x86_64,60,-0.152777778,-0.369444444,1,0,0,8.622,scale,,,,,,0.21373507,0.173205081,0.326485712,0.264575131,stimuli/lakes/3080109_left.png,stimuli/lakes/3080109_right.png,,,,0,70,70,109,1,,,,,
,,,,,,$1875245122,2020-07-13_12h41.39.439,fisher_task,2020.1.3,Linux x86_64,60,0.14537037,-0.35462963,1,0,0,1.632,scale,,,,,,0.1234,0.1,0.3702,0.3,stimuli/lakes/104041_left.png,stimuli/lakes/104041_right.png,,,,0,71,71,41,1,,,,,
,,,,,,$1875245122,2020-07-13_12h41.39.439,fisher_task,2020.1.3,Linux x86_64,60,-0.122222222,-0.330555556,1,0,0,4.151,scale,,,,,,0.302267034,0.244948974,0.2468,0.2,stimuli/lakes/605066_left.png,stimuli/lakes/605066_right.png,,,,0,72,72,66,1,,,,,
,,,,,,$1875245122,2020-07-13_12h41.39.439,fisher_task,2020.1.3,Linux x86_64,60,0.10462963,-0.303703704,1,0,0,4.117,scale,,,,,,0.326485712,0.264575131,0.21373507,0.173205081,stimuli/lakes/703029_left.png,stimuli/lakes/703029_right.png,,,,0,73,73,29,1,,,,,
,,,,,,$1875245122,2020-07-13_12h41.39.439,fisher_task,2020.1.3,Linux x86_64,60,0.138888889,-0.350925926,1,0,0,1.583,scale,,,,,,0.2468,0.2,0.302267034,0.244948974,stimuli/lakes/403026_left.png,stimuli/lakes/403026_right.png,,,,0,74,74,26,1,,,,,
,,,,,,$1875245122,2020-07-13_12h41.39.439,fisher_task,2020.1.3,Linux x86_64,60,0.152777778,-0.402777778,1,0,0,1.666,scale,,,,,,0.275930788,0.223606798,0.275930788,0.223606798,stimuli/lakes/50104_left.png,stimuli/lakes/50104_right.png,,,,0,75,75,4,1,,,,,
,,,,,,$1875245122,2020-07-13_12h41.39.439,fisher_task,2020.1.3,Linux x86_64,60,-0.149074074,-0.377777778,1,0,0,4.25,scale,,,,,,0.302267034,0.244948974,0.2468,0.2,stimuli/lakes/607094_left.png,stimuli/lakes/607094_right.png,,,,0,76,76,94,1,,,,,
,,,,,,$1875245122,2020-07-13_12h41.39.439,fisher_task,2020.1.3,Linux x86_64,60,-0.125925926,-0.335185185,1,0,0,2.6,scale,,,,,,0.275930788,0.223606798,0.275930788,0.223606798,stimuli/lakes/506075_left.png,stimuli/lakes/506075_right.png,,,,0,77,77,75,1,,,,,
,,,,,,$1875245122,2020-07-13_12h41.39.439,fisher_task,2020.1.3,Linux x86_64,60,0.09537037,-0.29537037,1,0,0,6.717,scale,,,,,,0.174513954,0.141421356,0.349027907,0.282842712,stimuli/lakes/206072_left.png,stimuli/lakes/206072_right.png,,,,0,78,78,72,1,,,,,
,,,,,,$1875245122,2020-07-13_12h41.39.439,fisher_task,2020.1.3,Linux x86_64,60,-0.137037037,-0.342592593,1,0,0,2.666,scale,,,,,,0.326485712,0.264575131,0.21373507,0.173205081,stimuli/lakes/705068_left.png,stimuli/lakes/705068_right.png,,,,0,79,79,68,1,,,,,
,,,,,,$1875245122,2020-07-13_12h41.39.439,fisher_task,2020.1.3,Linux x86_64,60,-0.130555556,-0.335185185,1,0,0,7.246,scale,,,,,,0.21373507,0.173205081,0.326485712,0.264575131,stimuli/lakes/3080110_left.png,stimuli/lakes/3080110_right.png,,,,0,80,80,110,1,,,,,
,,,,,,$1875245122,2020-07-13_12h41.39.439,fisher_task,2020.1.3,Linux x86_64,60,-0.146296296,-0.369444444,1,0,0,13.8,scale,,,,,,0.1234,0.1,0.3702,0.3,stimuli/lakes/1090119_left.png,stimuli/lakes/1090119_right.png,,,,0,81,81,119,1,,,,,
,,,,,,$1875245122,2020-07-13_12h41.39.439,fisher_task,2020.1.3,Linux x86_64,60,0.162037037,-0.402777778,1,0,0,3.7,scale,,,,,,0.21373507,0.173205081,0.326485712,0.264575131,stimuli/lakes/30100_left.png,stimuli/lakes/30100_right.png,,,,0,82,82,0,1,,,,,
,,,,,,$1875245122,2020-07-13_12h41.39.439,fisher_task,2020.1.3,Linux x86_64,60,0.116666667,-0.316666667,1,0,0,3.148,scale,,,,,,0.174513954,0.141421356,0.349027907,0.282842712,stimuli/lakes/206081_left.png,stimuli/lakes/206081_right.png,,,,0,83,83,81,1,,,,,
,,,,,,$1875245122,2020-07-13_12h41.39.439,fisher_task,2020.1.3,Linux x86_64,60,0.150925926,-0.387962963,1,0,0,2.666,scale,,,,,,0.21373507,0.173205081,0.326485712,0.264575131,stimuli/lakes/30101_left.png,stimuli/lakes/30101_right.png,,,,0,84,84,1,1,,,,,
,,,,,,$1875245122,2020-07-13_12h41.39.439,fisher_task,2020.1.3,Linux x86_64,60,-0.117592593,-0.32037037,1,0,0,3.054,scale,,,,,,0.2468,0.2,0.302267034,0.244948974,stimuli/lakes/406074_left.png,stimuli/lakes/406074_right.png,,,,0,85,85,74,1,,,,,
,,,,,,$1875245122,2020-07-13_12h41.39.439,fisher_task,2020.1.3,Linux x86_64,60,0.127777778,-0.315740741,1,0,0,1.716,scale,,,,,,0.275930788,0.223606798,0.275930788,0.223606798,stimuli/lakes/503036_left.png,stimuli/lakes/503036_right.png,,,,0,86,86,36,1,,,,,
,,,,,,$1875245122,2020-07-13_12h41.39.439,fisher_task,2020.1.3,Linux x86_64,60,-0.153703704,-0.397222222,1,0,0,2.034,scale,,,,,,0.2468,0.2,0.302267034,0.244948974,stimuli/lakes/4080112_left.png,stimuli/lakes/4080112_right.png,,,,0,87,87,112,1,,,,,
,,,,,,$1875245122,2020-07-13_12h41.39.439,fisher_task,2020.1.3,Linux x86_64,60,-0.14537037,-0.397222222,1,0,0,1.466,scale,,,,,,0.2468,0.2,0.302267034,0.244948974,stimuli/lakes/4090124_left.png,stimuli/lakes/4090124_right.png,,,space,0,88,88,124,1,7.27,,,,
,,,,,,$1875245122,2020-07-13_12h41.39.439,fisher_task,2020.1.3,Linux x86_64,60,-0.150925926,-0.394444444,1,0,0,1.472,scale,,,,,,0.275930788,0.223606798,0.275930788,0.223606798,stimuli/lakes/5090125_left.png,stimuli/lakes/5090125_right.png,,,,0,89,89,125,1,,,,,
,,,,,,$1875245122,2020-07-13_12h41.39.439,fisher_task,2020.1.3,Linux x86_64,60,-0.155555556,-0.410185185,1,0,0,1.5,scale,,,,,,0.326485712,0.264575131,0.21373507,0.173205081,stimuli/lakes/707095_left.png,stimuli/lakes/707095_right.png,,,,0,90,90,95,1,,,,,
,,,,,,$1875245122,2020-07-13_12h41.39.439,fisher_task,2020.1.3,Linux x86_64,60,0.024074074,-0.262037037,1,0,0,6.866,scale,,,,,,0.21373507,0.173205081,0.326485712,0.264575131,stimuli/lakes/305062_left.png,stimuli/lakes/305062_right.png,,,,0,91,91,62,1,,,,,
,,,,,,$1875245122,2020-07-13_12h41.39.439,fisher_task,2020.1.3,Linux x86_64,60,-0.146296296,-0.359259259,1,0,0,3.561,scale,,,,,,0.326485712,0.264575131,0.21373507,0.173205081,stimuli/lakes/7080117_left.png,stimuli/lakes/7080117_right.png,,,,0,92,92,117,1,,,,,
,,,,,,$1875245122,2020-07-13_12h41.39.439,fisher_task,2020.1.3,Linux x86_64,60,0.00462963,-0.25462963,1,0,0,5.017,scale,,,,,,0.1234,0.1,0.3702,0.3,stimuli/lakes/1080107_left.png,stimuli/lakes/1080107_right.png,,,,0,93,93,107,1,,,,,
,,,,,,$1875245122,2020-07-13_12h41.39.439,fisher_task,2020.1.3,Linux x86_64,60,-0.155555556,-0.399074074,1,0,0,3.499,scale,,,,,,0.326485712,0.264575131,0.21373507,0.173205081,stimuli/lakes/7090129_left.png,stimuli/lakes/7090129_right.png,,,,0,94,94,129,1,,,,,
,,,,,,$1875245122,2020-07-13_12h41.39.439,fisher_task,2020.1.3,Linux x86_64,60,0.010185185,-0.262962963,1,0,0,4.034,scale,,,,,,0.21373507,0.173205081,0.326485712,0.264575131,stimuli/lakes/306082_left.png,stimuli/lakes/306082_right.png,,,,0,95,95,82,1,,,,,
,,,,,,$1875245122,2020-07-13_12h41.39.439,fisher_task,2020.1.3,Linux x86_64,60,0.1,-0.296296296,1,0,0,2.001,scale,,,,,,0.21373507,0.173205081,0.326485712,0.264575131,stimuli/lakes/304052_left.png,stimuli/lakes/304052_right.png,,,,0,96,96,52,1,,,,,
,,,,,,$1875245122,2020-07-13_12h41.39.439,fisher_task,2020.1.3,Linux x86_64,60,0.143518519,-0.362037037,1,0,0,7.934,scale,,,,,,0.326485712,0.264575131,0.21373507,0.173205081,stimuli/lakes/70107_left.png,stimuli/lakes/70107_right.png,,,,0,97,97,7,1,,,,,
,,,,,,$1875245122,2020-07-13_12h41.39.439,fisher_task,2020.1.3,Linux x86_64,60,0.098148148,-0.296296296,1,0,0,5.134,scale,,,,,,0.3702,0.3,0.1234,0.1,stimuli/lakes/903040_left.png,stimuli/lakes/903040_right.png,,,,0,98,98,40,1,,,,,
,,,,,,$1875245122,2020-07-13_12h41.39.439,fisher_task,2020.1.3,Linux x86_64,60,-0.02037037,-0.262962963,1,0,0,7.165,scale,,,,,,0.21373507,0.173205081,0.326485712,0.264575131,stimuli/lakes/306073_left.png,stimuli/lakes/306073_right.png,,,,0,99,99,73,1,,,,,
,,,,,,$1875245122,2020-07-13_12h41.39.439,fisher_task,2020.1.3,Linux x86_64,60,0.087962963,-0.287037037,1,0,0,2.564,scale,,,,,,0.275930788,0.223606798,0.275930788,0.223606798,stimuli/lakes/504054_left.png,stimuli/lakes/504054_right.png,,,,0,100,100,54,1,,,,,
,,,,,,$1875245122,2020-07-13_12h41.39.439,fisher_task,2020.1.3,Linux x86_64,60,0.074074074,-0.275,1,0,0,6.493,scale,,,,,,0.3702,0.3,0.1234,0.1,stimuli/lakes/901010_left.png,stimuli/lakes/901010_right.png,,,,0,101,101,10,1,,,,,
,,,,,,$1875245122,2020-07-13_12h41.39.439,fisher_task,2020.1.3,Linux x86_64,60,-0.105555556,-0.301851852,1,0,0,2.767,scale,,,,,,0.21373507,0.173205081,0.326485712,0.264575131,stimuli/lakes/3070100_left.png,stimuli/lakes/3070100_right.png,,,,0,102,102,100,1,,,,,
,,,,,,$1875245122,2020-07-13_12h41.39.439,fisher_task,2020.1.3,Linux x86_64,60,0.063888889,-0.274074074,1,0,0,2.7,scale,,,,,,0.302267034,0.244948974,0.2468,0.2,stimuli/lakes/60106_left.png,stimuli/lakes/60106_right.png,,,,0,103,103,6,1,,,,,
,,,,,,$1875245122,2020-07-13_12h41.39.439,fisher_task,2020.1.3,Linux x86_64,60,0.137962963,-0.359259259,1,0,0,2.866,scale,,,,,,0.174513954,0.141421356,0.349027907,0.282842712,stimuli/lakes/203033_left.png,stimuli/lakes/203033_right.png,,,,0,104,104,33,1,,,,,
,,,,,,$1875245122,2020-07-13_12h41.39.439,fisher_task,2020.1.3,Linux x86_64,60,0.160185185,-0.412037037,1,0,0,1.52,scale,,,,,,0.2468,0.2,0.302267034,0.244948974,stimuli/lakes/40102_left.png,stimuli/lakes/40102_right.png,,,,0,105,105,2,1,,,,,
,,,,,,$1875245122,2020-07-13_12h41.39.439,fisher_task,2020.1.3,Linux x86_64,60,0.044444444,-0.264814815,1,0,0,8.816,scale,,,,,,0.326485712,0.264575131,0.21373507,0.173205081,stimuli/lakes/702020_left.png,stimuli/lakes/702020_right.png,,,,0,106,106,20,1,,,,,
,,,,,,$1875245122,2020-07-13_12h41.39.439,fisher_task,2020.1.3,Linux x86_64,60,-0.130555556,-0.326851852,1,0,0,2.65,scale,,,,,,0.3702,0.3,0.1234,0.1,stimuli/lakes/906088_left.png,stimuli/lakes/906088_right.png,,,,0,107,107,88,1,,,,,
,,,,,,$1875245122,2020-07-13_12h41.39.439,fisher_task,2020.1.3,Linux x86_64,60,0.060185185,-0.272222222,1,0,0,4.299,scale,,,,,,0.326485712,0.264575131,0.21373507,0.173205081,stimuli/lakes/702019_left.png,stimuli/lakes/702019_right.png,,,,0,108,108,19,1,,,,,
,,,,,,$1875245122,2020-07-13_12h41.39.439,fisher_task,2020.1.3,Linux x86_64,60,-0.151851852,-0.396296296,1,0,0,5.666,scale,,,,,,0.302267034,0.244948974,0.2468,0.2,stimuli/lakes/6090126_left.png,stimuli/lakes/6090126_right.png,,,,0,109,109,126,1,,,,,
,,,,,,$1875245122,2020-07-13_12h41.39.439,fisher_task,2020.1.3,Linux x86_64,60,-0.153703704,-0.403703704,1,0,0,2.582,scale,,,,,,0.275930788,0.223606798,0.275930788,0.223606798,stimuli/lakes/5080113_left.png,stimuli/lakes/5080113_right.png,,,space,0,110,110,113,1,3.772,,,,
,,,,,,$1875245122,2020-07-13_12h41.39.439,fisher_task,2020.1.3,Linux x86_64,60,-0.068518519,-0.276851852,1,0,0,5.701,scale,,,,,,0.302267034,0.244948974,0.2468,0.2,stimuli/lakes/604046_left.png,stimuli/lakes/604046_right.png,,,,0,111,111,46,1,,,,,
,,,,,,$1875245122,2020-07-13_12h41.39.439,fisher_task,2020.1.3,Linux x86_64,60,-0.084259259,-0.288888889,1,0,0,4.999,scale,,,,,,0.2468,0.2,0.302267034,0.244948974,stimuli/lakes/4080111_left.png,stimuli/lakes/4080111_right.png,,,,0,112,112,111,1,,,,,
,,,,,,$1875245122,2020-07-13_12h41.39.439,fisher_task,2020.1.3,Linux x86_64,60,0.131481481,-0.341666667,1,0,0,2.552,scale,,,,,,0.21373507,0.173205081,0.326485712,0.264575131,stimuli/lakes/302013_left.png,stimuli/lakes/302013_right.png,,,,0,113,113,13,1,,,,,
,,,,,,$1875245122,2020-07-13_12h41.39.439,fisher_task,2020.1.3,Linux x86_64,60,-0.014814815,-0.262037037,1,0,0,6.199,scale,,,,,,0.349027907,0.282842712,0.174513954,0.141421356,stimuli/lakes/803039_left.png,stimuli/lakes/803039_right.png,,,,0,114,114,39,1,,,,,
,,,,,,$1875245122,2020-07-13_12h41.39.439,fisher_task,2020.1.3,Linux x86_64,60,0.152777778,-0.39537037,1,0,0,2.317,scale,,,,,,0.2468,0.2,0.302267034,0.244948974,stimuli/lakes/40103_left.png,stimuli/lakes/40103_right.png,,,,0,115,115,3,1,,,,,
,,,,,,$1875245122,2020-07-13_12h41.39.439,fisher_task,2020.1.3,Linux x86_64,60,0.155555556,-0.401851852,1,0,0,2.572,scale,,,,,,0.2468,0.2,0.302267034,0.244948974,stimuli/lakes/402014_left.png,stimuli/lakes/402014_right.png,,,,0,116,116,14,1,,,,,
,,,,,,$1875245122,2020-07-13_12h41.39.439,fisher_task,2020.1.3,Linux x86_64,60,-0.157407407,-0.400925926,1,0,0,2.884,scale,,,,,,0.2468,0.2,0.302267034,0.244948974,stimuli/lakes/407092_left.png,stimuli/lakes/407092_right.png,,,,0,117,117,92,1,,,,,
,,,,,,$1875245122,2020-07-13_12h41.39.439,fisher_task,2020.1.3,Linux x86_64,60,-0.125,-0.32962963,1,0,0,4.367,scale,,,,,,0.326485712,0.264575131,0.21373507,0.173205081,stimuli/lakes/704056_left.png,stimuli/lakes/704056_right.png,,,,0,118,118,56,1,,,,,
,,,,,,$1875245122,2020-07-13_12h41.39.439,fisher_task,2020.1.3,Linux x86_64,60,-0.14537037,-0.363888889,1,0,0,3.566,scale,,,,,,0.275930788,0.223606798,0.275930788,0.223606798,stimuli/lakes/506084_left.png,stimuli/lakes/506084_right.png,,,,0,119,119,84,1,,,,,
,,,,,,$1875245122,2020-07-13_12h41.39.439,fisher_task,2020.1.3,Linux x86_64,60,-0.086111111,-0.283333333,1,0,0,5.382,scale,,,,,,0.349027907,0.282842712,0.174513954,0.141421356,stimuli/lakes/804048_left.png,stimuli/lakes/804048_right.png,,,,0,120,120,48,1,,,,,
,,,,,,$1875245122,2020-07-13_12h41.39.439,fisher_task,2020.1.3,Linux x86_64,60,-0.116666667,-0.325925926,1,0,0,2.168,scale,,,,,,0.349027907,0.282842712,0.174513954,0.141421356,stimuli/lakes/807096_left.png,stimuli/lakes/807096_right.png,,,,0,121,121,96,1,,,,,
,,,,,,$1875245122,2020-07-13_12h41.39.439,fisher_task,2020.1.3,Linux x86_64,60,-0.040740741,-0.260185185,1,0,0,1.749,scale,,,,,,0.349027907,0.282842712,0.174513954,0.141421356,stimuli/lakes/803030_left.png,stimuli/lakes/803030_right.png,,,,0,122,122,30,1,,,,,
,,,,,,$1875245122,2020-07-13_12h41.39.439,fisher_task,2020.1.3,Linux x86_64,60,-0.075,-0.284259259,1,0,0,3.416,scale,,,,,,0.349027907,0.282842712,0.174513954,0.141421356,stimuli/lakes/805069_left.png,stimuli/lakes/805069_right.png,,,,0,123,123,69,1,,,,,
,,,,,,$1875245122,2020-07-13_12h41.39.439,fisher_task,2020.1.3,Linux x86_64,60,-0.109259259,-0.301851852,1,0,0,2.483,scale,,,,,,0.326485712,0.264575131,0.21373507,0.173205081,stimuli/lakes/7080116_left.png,stimuli/lakes/7080116_right.png,,,,0,124,124,116,1,,,,,
,,,,,,$1875245122,2020-07-13_12h41.39.439,fisher_task,2020.1.3,Linux x86_64,60,0.068518519,-0.280555556,1,0,0,3.183,scale,,,,,,0.349027907,0.282842712,0.174513954,0.141421356,stimuli/lakes/80109_left.png,stimuli/lakes/80109_right.png,,,,0,125,125,9,1,,,,,
,,,,,,$1875245122,2020-07-13_12h41.39.439,fisher_task,2020.1.3,Linux x86_64,60,-0.12037037,-0.314814815,1,0,0,4.384,scale,,,,,,0.349027907,0.282842712,0.174513954,0.141421356,stimuli/lakes/806087_left.png,stimuli/lakes/806087_right.png,,,,0,126,126,87,1,,,,,
,,,,,,$1875245122,2020-07-13_12h41.39.439,fisher_task,2020.1.3,Linux x86_64,60,-0.15,-0.375925926,1,0,0,1.966,scale,,,,,,0.349027907,0.282842712,0.174513954,0.141421356,stimuli/lakes/8080118_left.png,stimuli/lakes/8080118_right.png,,,,0,127,127,118,1,,,,,
,,,,,,$1875245122,2020-07-13_12h41.39.439,fisher_task,2020.1.3,Linux x86_64,60,0.125925926,-0.32962963,1,0,0,4.663,scale,,,,,,0.275930788,0.223606798,0.275930788,0.223606798,stimuli/lakes/503027_left.png,stimuli/lakes/503027_right.png,,,,0,128,128,27,1,,,,,
,,,,,,$1875245122,2020-07-13_12h41.39.439,fisher_task,2020.1.3,Linux x86_64,60,0.111111111,-0.312037037,1,0,0,3.5,scale,,,,,,0.302267034,0.244948974,0.2468,0.2,stimuli/lakes/604055_left.png,stimuli/lakes/604055_right.png,,,,0,129,129,55,1,,,,,
,,,,,,$1875245122,2020-07-13_12h41.39.439,fisher_task,2020.1.3,Linux x86_64,60,,,,,,,,,,,,,,,,,,,,,,,,,,,,space,11.5,space,25.027
