keySpace.keys,keySpace.rt,instructions.thisRepN,instructions.thisTrialN,instructions.thisN,instructions.thisIndex,instructions.ran,participant,date,expName,psychopyVersion,OS,frameRate,mouse.x,mouse.y,mouse.leftButton,mouse.midButton,mouse.rightButton,mouse.time,mouse.clicked_name,training.thisRepN,training.thisTrialN,training.thisN,training.thisIndex,training.ran,widthBasketLeft,heightBasketLeft,widthBasketRight,heightBasketRight,leftLake,rightLake,space2.keys,space2.rt,space1.keys,trials.thisRepN,trials.thisTrialN,trials.thisN,trials.thisIndex,trials.ran,space1.rt,finalSpace1.keys,finalSpace1.rt,finalSpace2.keys,finalSpace2.rt
space,9.84538,0,0,0,0,1,$7680687802,2020-07-13_16h15.29.339,fisher_task,2020.1.3,Win32,60,,,,,,,,,,,,,,,,,,,,,,,,,,,,,,,
,,1,0,1,0,1,$7680687802,2020-07-13_16h15.29.339,fisher_task,2020.1.3,Win32,60,,,,,,,,,,,,,,,,,,,,,,,,,,,,,,,
,,,,,,,$7680687802,2020-07-13_16h15.29.339,fisher_task,2020.1.3,Win32,60,0.180555571,-0.403703717,1,0,0,3.57722,scale,0,0,0,0,1,0.275930788,0.223606798,0.275930788,0.223606798,stimuli/training/20_left.png,stimuli/training/20_right.png,,,,,,,,,,,,,
,,,,,,,$7680687802,2020-07-13_16h15.29.339,fisher_task,2020.1.3,Win32,60,-0.19074073,-0.393518532,1,0,0,4.37611,scale,0,1,1,1,1,0.275930788,0.223606798,0.275930788,0.223606798,stimuli/training/80_left.png,stimuli/training/80_right.png,,,,,,,,,,,,,
,,,,,,,$7680687802,2020-07-13_16h15.29.339,fisher_task,2020.1.3,Win32,60,0.175925942,-0.392592606,1,0,0,4.409465,scale,0,2,2,2,1,0.174513954,0.141421356,0.349027907,0.282842712,stimuli/training/50_left.png,stimuli/training/50_right.png,,,,,,,,,,,,,
,,,,,,,$7680687802,2020-07-13_16h15.29.339,fisher_task,2020.1.3,Win32,60,-0.065740728,-0.249074085,1,0,0,4.42674,scale,0,3,3,3,1,0.349027907,0.282842712,0.174513954,0.141421356,stimuli/training/50_left.png,stimuli/training/50_right.png,,,,,,,,,,,,,
,,,,,,,$7680687802,2020-07-13_16h15.29.339,fisher_task,2020.1.3,Win32,60,0.146296312,-0.314814827,1,0,0,3.81015,scale,0,4,4,4,1,0.275930788,0.223606798,0.275930788,0.223606798,stimuli/training/50_left.png,stimuli/training/50_right.png,,,,,,,,,,,,,
,,,,,,,$7680687802,2020-07-13_16h15.29.339,fisher_task,2020.1.3,Win32,60,0.181481497,-0.411111125,1,0,0,1.996775,scale,0,5,5,5,1,0.174513954,0.141421356,0.349027907,0.282842712,stimuli/training/20_left.png,stimuli/training/20_right.png,,,,,,,,,,,,,
,,,,,,,$7680687802,2020-07-13_16h15.29.339,fisher_task,2020.1.3,Win32,60,-0.187962896,-0.4046297,1,0,0,1.66364,scale,0,6,6,6,1,0.349027907,0.282842712,0.174513954,0.141421356,stimuli/training/80_left.png,stimuli/training/80_right.png,,,,,,,,,,,,,
,,,,,,,$7680687802,2020-07-13_16h15.29.339,fisher_task,2020.1.3,Win32,60,0.184259275,-0.410185199,1,0,0,1.52945,scale,0,7,7,7,1,0.1234,0.1,0.3702,0.3,stimuli/training/30_left.png,stimuli/training/30_right.png,,,,,,,,,,,,,
,,,,,,,$7680687802,2020-07-13_16h15.29.339,fisher_task,2020.1.3,Win32,60,-0.173148137,-0.415740754,1,0,0,1.547055,scale,0,8,8,8,1,0.3702,0.3,0.1234,0.1,stimuli/training/70_left.png,stimuli/training/70_right.png,,,,,,,,,,,,,
,,,,,,,$7680687802,2020-07-13_16h15.29.339,fisher_task,2020.1.3,Win32,60,-0.178703637,-0.394444458,1,0,0,1.56403,scale,0,9,9,9,1,0.326485712,0.264575131,0.21373507,0.173205081,stimuli/training/90_left.png,stimuli/training/90_right.png,,,,,,,,,,,,,
,,,,,,,$7680687802,2020-07-13_16h15.29.339,fisher_task,2020.1.3,Win32,60,0.168518534,-0.390740811,1,0,0,1.478735,scale,0,10,10,10,1,0.21373507,0.173205081,0.326485712,0.264575131,stimuli/training/10_left.png,stimuli/training/10_right.png,,,,,,,,,,,,,
,,,,,,,$7680687802,2020-07-13_16h15.29.339,fisher_task,2020.1.3,Win32,60,0.155555571,-0.32314816,1,0,0,1.612705,scale,,,,,,0.275930788,0.223606798,0.275930788,0.223606798,stimuli/lakes/504045_left.png,stimuli/lakes/504045_right.png,space,4.03972,,0,0,0,45,1,,,,,
,,,,,,,$7680687802,2020-07-13_16h15.29.339,fisher_task,2020.1.3,Win32,60,0.171296312,-0.342592605,1,0,0,2.41251,scale,,,,,,0.2468,0.2,0.302267034,0.244948974,stimuli/lakes/405064_left.png,stimuli/lakes/405064_right.png,,,,0,1,1,64,1,,,,,
,,,,,,,$7680687802,2020-07-13_16h15.29.339,fisher_task,2020.1.3,Win32,60,0.165740756,-0.342592605,1,0,0,1.51309,scale,,,,,,0.21373507,0.173205081,0.326485712,0.264575131,stimuli/lakes/303034_left.png,stimuli/lakes/303034_right.png,,,,0,2,2,34,1,,,,,
,,,,,,,$7680687802,2020-07-13_16h15.29.339,fisher_task,2020.1.3,Win32,60,0.056481496,-0.239814826,1,0,0,3.960065,scale,,,,,,0.302267034,0.244948974,0.2468,0.2,stimuli/lakes/603037_left.png,stimuli/lakes/603037_right.png,,,,0,3,3,37,1,,,,,
,,,,,,,$7680687802,2020-07-13_16h15.29.339,fisher_task,2020.1.3,Win32,60,-0.183333266,-0.367592662,1,0,0,4.27527,scale,,,,,,0.174513954,0.141421356,0.349027907,0.282842712,stimuli/lakes/2090120_left.png,stimuli/lakes/2090120_right.png,,,,0,4,4,120,1,,,,,
,,,,,,,$7680687802,2020-07-13_16h15.29.339,fisher_task,2020.1.3,Win32,60,0.022222236,-0.227777789,1,0,0,3.677205,scale,,,,,,0.3702,0.3,0.1234,0.1,stimuli/lakes/903040_left.png,stimuli/lakes/903040_right.png,,,,0,5,5,40,1,,,,,
,,,,,,,$7680687802,2020-07-13_16h15.29.339,fisher_task,2020.1.3,Win32,60,0.150925941,-0.325000012,1,0,0,2.029575,scale,,,,,,0.2468,0.2,0.302267034,0.244948974,stimuli/lakes/402014_left.png,stimuli/lakes/402014_right.png,,,,0,6,6,14,1,,,,,
,,,,,,,$7680687802,2020-07-13_16h15.29.339,fisher_task,2020.1.3,Win32,60,0.176851868,-0.367592662,1,0,0,1.23121,scale,,,,,,0.1234,0.1,0.3702,0.3,stimuli/lakes/104041_left.png,stimuli/lakes/104041_right.png,,,,0,7,7,41,1,,,,,
,,,,,,,$7680687802,2020-07-13_16h15.29.339,fisher_task,2020.1.3,Win32,60,-0.046296284,-0.223148159,1,0,0,4.20889,scale,,,,,,0.174513954,0.141421356,0.349027907,0.282842712,stimuli/lakes/206072_left.png,stimuli/lakes/206072_right.png,,,,0,8,8,72,1,,,,,
,,,,,,,$7680687802,2020-07-13_16h15.29.339,fisher_task,2020.1.3,Win32,60,0.16944446,-0.348148161,1,0,0,1.36421,scale,,,,,,0.21373507,0.173205081,0.326485712,0.264575131,stimuli/lakes/302012_left.png,stimuli/lakes/302012_right.png,,,,0,9,9,12,1,,,,,
,,,,,,,$7680687802,2020-07-13_16h15.29.339,fisher_task,2020.1.3,Win32,60,0.042592606,-0.236111122,1,0,0,4.892295,scale,,,,,,0.326485712,0.264575131,0.21373507,0.173205081,stimuli/lakes/703038_left.png,stimuli/lakes/703038_right.png,,,,0,10,10,38,1,,,,,
,,,,,,,$7680687802,2020-07-13_16h15.29.339,fisher_task,2020.1.3,Win32,60,-0.00833332,-0.229629641,1,0,0,4.49231,scale,,,,,,0.302267034,0.244948974,0.2468,0.2,stimuli/lakes/605066_left.png,stimuli/lakes/605066_right.png,,,,0,11,11,66,1,,,,,
,,,,,,,$7680687802,2020-07-13_16h15.29.339,fisher_task,2020.1.3,Win32,60,-0.021296227,-0.226851863,1,0,0,1.87919,scale,,,,,,0.21373507,0.173205081,0.326485712,0.264575131,stimuli/lakes/307091_left.png,stimuli/lakes/307091_right.png,,,,0,12,12,91,1,,,,,
,,,,,,,$7680687802,2020-07-13_16h15.29.339,fisher_task,2020.1.3,Win32,60,-0.167592582,-0.32314816,1,0,0,4.37604,scale,,,,,,0.21373507,0.173205081,0.326485712,0.264575131,stimuli/lakes/3090122_left.png,stimuli/lakes/3090122_right.png,,,,0,13,13,122,1,,,,,
,,,,,,,$7680687802,2020-07-13_16h15.29.339,fisher_task,2020.1.3,Win32,60,0.141666682,-0.303703716,1,0,0,2.162865,scale,,,,,,0.174513954,0.141421356,0.349027907,0.282842712,stimuli/lakes/204042_left.png,stimuli/lakes/204042_right.png,,,,0,14,14,42,1,,,,,
,,,,,,,$7680687802,2020-07-13_16h15.29.339,fisher_task,2020.1.3,Win32,60,-0.181481471,-0.340740753,1,0,0,2.0462,scale,,,,,,0.326485712,0.264575131,0.21373507,0.173205081,stimuli/lakes/7070104_left.png,stimuli/lakes/7070104_right.png,,,,0,15,15,104,1,,,,,
,,,,,,,$7680687802,2020-07-13_16h15.29.339,fisher_task,2020.1.3,Win32,60,-0.022222209,-0.230555566,1,0,0,2.69587,scale,,,,,,0.21373507,0.173205081,0.326485712,0.264575131,stimuli/lakes/306082_left.png,stimuli/lakes/306082_right.png,,,,0,16,16,82,1,,,,,
,,,,,,,$7680687802,2020-07-13_16h15.29.339,fisher_task,2020.1.3,Win32,60,-0.152777767,-0.299074086,1,0,0,2.594705,scale,,,,,,0.21373507,0.173205081,0.326485712,0.264575131,stimuli/lakes/3080109_left.png,stimuli/lakes/3080109_right.png,,,,0,17,17,109,1,,,,,
,,,,,,,$7680687802,2020-07-13_16h15.29.339,fisher_task,2020.1.3,Win32,60,-0.186111101,-0.385185198,1,0,0,3.709705,scale,,,,,,0.275930788,0.223606798,0.275930788,0.223606798,stimuli/lakes/5090125_left.png,stimuli/lakes/5090125_right.png,,,,0,18,18,125,1,,,,,
,,,,,,,$7680687802,2020-07-13_16h15.29.339,fisher_task,2020.1.3,Win32,60,-0.134259248,-0.287962975,1,0,0,2.261865,scale,,,,,,0.326485712,0.264575131,0.21373507,0.173205081,stimuli/lakes/705068_left.png,stimuli/lakes/705068_right.png,,,,0,19,19,68,1,,,,,
,,,,,,,$7680687802,2020-07-13_16h15.29.339,fisher_task,2020.1.3,Win32,60,-0.091666655,-0.264814826,1,0,0,1.730435,scale,,,,,,0.326485712,0.264575131,0.21373507,0.173205081,stimuli/lakes/705067_left.png,stimuli/lakes/705067_right.png,,,,0,20,20,67,1,,,,,
,,,,,,,$7680687802,2020-07-13_16h15.29.339,fisher_task,2020.1.3,Win32,60,-0.178703637,-0.365740754,1,0,0,1.48066,scale,,,,,,0.302267034,0.244948974,0.2468,0.2,stimuli/lakes/6080115_left.png,stimuli/lakes/6080115_right.png,,,,0,21,21,115,1,,,,,
,,,,,,,$7680687802,2020-07-13_16h15.29.339,fisher_task,2020.1.3,Win32,60,0.171296312,-0.359259272,1,0,0,1.779935,scale,,,,,,0.1234,0.1,0.3702,0.3,stimuli/lakes/103023_left.png,stimuli/lakes/103023_right.png,,,space,0,22,22,23,1,4.192835,,,,
,,,,,,,$7680687802,2020-07-13_16h15.29.339,fisher_task,2020.1.3,Win32,60,0.13981483,-0.297222234,1,0,0,1.979705,scale,,,,,,0.275930788,0.223606798,0.275930788,0.223606798,stimuli/lakes/503036_left.png,stimuli/lakes/503036_right.png,,,,0,23,23,36,1,,,,,
,,,,,,,$7680687802,2020-07-13_16h15.29.339,fisher_task,2020.1.3,Win32,60,-0.102777766,-0.260185197,1,0,0,2.394955,scale,,,,,,0.302267034,0.244948974,0.2468,0.2,stimuli/lakes/605065_left.png,stimuli/lakes/605065_right.png,,,,0,24,24,65,1,,,,,
,,,,,,,$7680687802,2020-07-13_16h15.29.339,fisher_task,2020.1.3,Win32,60,0.175000016,-0.36203705,1,0,0,2.59572,scale,,,,,,0.275930788,0.223606798,0.275930788,0.223606798,stimuli/lakes/502016_left.png,stimuli/lakes/502016_right.png,,,,0,25,25,16,1,,,,,
,,,,,,,$7680687802,2020-07-13_16h15.29.339,fisher_task,2020.1.3,Win32,60,-0.112037025,-0.264814826,1,0,0,2.0966,scale,,,,,,0.3702,0.3,0.1234,0.1,stimuli/lakes/905070_left.png,stimuli/lakes/905070_right.png,,,,0,26,26,70,1,,,,,
,,,,,,,$7680687802,2020-07-13_16h15.29.339,fisher_task,2020.1.3,Win32,60,-0.174074007,-0.39537044,1,0,0,1.71365,scale,,,,,,0.349027907,0.282842712,0.174513954,0.141421356,stimuli/lakes/8080118_left.png,stimuli/lakes/8080118_right.png,,,,0,27,27,118,1,,,,,
,,,,,,,$7680687802,2020-07-13_16h15.29.339,fisher_task,2020.1.3,Win32,60,-0.179629619,-0.378703717,1,0,0,1.26436,scale,,,,,,0.326485712,0.264575131,0.21373507,0.173205081,stimuli/lakes/707095_left.png,stimuli/lakes/707095_right.png,,,,0,28,28,95,1,,,,,
,,,,,,,$7680687802,2020-07-13_16h15.29.339,fisher_task,2020.1.3,Win32,60,0.165740756,-0.328703716,1,0,0,1.78068,scale,,,,,,0.1234,0.1,0.3702,0.3,stimuli/lakes/105059_left.png,stimuli/lakes/105059_right.png,,,,0,29,29,59,1,,,,,
,,,,,,,$7680687802,2020-07-13_16h15.29.339,fisher_task,2020.1.3,Win32,60,-0.172222212,-0.346296309,1,0,0,1.94606,scale,,,,,,0.2468,0.2,0.302267034,0.244948974,stimuli/lakes/4090123_left.png,stimuli/lakes/4090123_right.png,,,,0,30,30,123,1,,,,,
,,,,,,,$7680687802,2020-07-13_16h15.29.339,fisher_task,2020.1.3,Win32,60,-0.000925913,-0.230555566,1,0,0,2.244995,scale,,,,,,0.21373507,0.173205081,0.326485712,0.264575131,stimuli/lakes/306073_left.png,stimuli/lakes/306073_right.png,,,,0,31,31,73,1,,,,,
,,,,,,,$7680687802,2020-07-13_16h15.29.339,fisher_task,2020.1.3,Win32,60,0.038888959,-0.231481492,1,0,0,2.329285,scale,,,,,,0.302267034,0.244948974,0.2468,0.2,stimuli/lakes/604046_left.png,stimuli/lakes/604046_right.png,,,,0,32,32,46,1,,,,,
,,,,,,,$7680687802,2020-07-13_16h15.29.339,fisher_task,2020.1.3,Win32,60,-0.162037026,-0.339814884,1,0,0,1.39841,scale,,,,,,0.326485712,0.264575131,0.21373507,0.173205081,stimuli/lakes/706077_left.png,stimuli/lakes/706077_right.png,,,,0,33,33,77,1,,,,,
,,,,,,,$7680687802,2020-07-13_16h15.29.339,fisher_task,2020.1.3,Win32,60,0.154629645,-0.311111123,1,0,0,2.09589,scale,,,,,,0.349027907,0.282842712,0.174513954,0.141421356,stimuli/lakes/80109_left.png,stimuli/lakes/80109_right.png,,,,0,34,34,9,1,,,,,
,,,,,,,$7680687802,2020-07-13_16h15.29.339,fisher_task,2020.1.3,Win32,60,0.019444458,-0.232407418,1,0,0,2.87835,scale,,,,,,0.3702,0.3,0.1234,0.1,stimuli/lakes/904049_left.png,stimuli/lakes/904049_right.png,,,,0,35,35,49,1,,,,,
,,,,,,,$7680687802,2020-07-13_16h15.29.339,fisher_task,2020.1.3,Win32,60,-0.163888878,-0.346296309,1,0,0,2.04636,scale,,,,,,0.1234,0.1,0.3702,0.3,stimuli/lakes/1090119_left.png,stimuli/lakes/1090119_right.png,,,,0,36,36,119,1,,,,,
,,,,,,,$7680687802,2020-07-13_16h15.29.339,fisher_task,2020.1.3,Win32,60,0.011111181,-0.235185196,1,0,0,2.14551,scale,,,,,,0.275930788,0.223606798,0.275930788,0.223606798,stimuli/lakes/504054_left.png,stimuli/lakes/504054_right.png,,,,0,37,37,54,1,,,,,
,,,,,,,$7680687802,2020-07-13_16h15.29.339,fisher_task,2020.1.3,Win32,60,0.173148164,-0.360185198,1,0,0,2.079695,scale,,,,,,0.302267034,0.244948974,0.2468,0.2,stimuli/lakes/602018_left.png,stimuli/lakes/602018_right.png,,,,0,38,38,18,1,,,,,
,,,,,,,$7680687802,2020-07-13_16h15.29.339,fisher_task,2020.1.3,Win32,60,0.173148164,-0.349074143,1,0,0,1.563875,scale,,,,,,0.174513954,0.141421356,0.349027907,0.282842712,stimuli/lakes/203024_left.png,stimuli/lakes/203024_right.png,,,,0,39,39,24,1,,,,,
,,,,,,,$7680687802,2020-07-13_16h15.29.339,fisher_task,2020.1.3,Win32,60,-0.155555488,-0.305555568,1,0,0,1.76385,scale,,,,,,0.302267034,0.244948974,0.2468,0.2,stimuli/lakes/606085_left.png,stimuli/lakes/606085_right.png,,,,0,40,40,85,1,,,,,
,,,,,,,$7680687802,2020-07-13_16h15.29.339,fisher_task,2020.1.3,Win32,60,-0.177777767,-0.370370383,1,0,0,3.493695,scale,,,,,,0.302267034,0.244948974,0.2468,0.2,stimuli/lakes/6080114_left.png,stimuli/lakes/6080114_right.png,,,,0,41,41,114,1,,,,,
,,,,,,,$7680687802,2020-07-13_16h15.29.339,fisher_task,2020.1.3,Win32,60,0.175925942,-0.35277779,1,0,0,1.530645,scale,,,,,,0.21373507,0.173205081,0.326485712,0.264575131,stimuli/lakes/303025_left.png,stimuli/lakes/303025_right.png,,,,0,42,42,25,1,,,,,
,,,,,,,$7680687802,2020-07-13_16h15.29.339,fisher_task,2020.1.3,Win32,60,-0.04722221,-0.233333401,1,0,0,2.14637,scale,,,,,,0.3702,0.3,0.1234,0.1,stimuli/lakes/904058_left.png,stimuli/lakes/904058_right.png,,,,0,43,43,58,1,,,,,
,,,,,,,$7680687802,2020-07-13_16h15.29.339,fisher_task,2020.1.3,Win32,60,0.123148163,-0.275925937,1,0,0,1.596885,scale,,,,,,0.326485712,0.264575131,0.21373507,0.173205081,stimuli/lakes/702019_left.png,stimuli/lakes/702019_right.png,,,space,0,44,44,19,1,1.80072,,,,
,,,,,,,$7680687802,2020-07-13_16h15.29.339,fisher_task,2020.1.3,Win32,60,0.081481496,-0.253703715,1,0,0,2.44569,scale,,,,,,0.349027907,0.282842712,0.174513954,0.141421356,stimuli/lakes/803039_left.png,stimuli/lakes/803039_right.png,,,,0,45,45,39,1,,,,,
,,,,,,,$7680687802,2020-07-13_16h15.29.339,fisher_task,2020.1.3,Win32,60,0.045370384,-0.236111122,1,0,0,3.5605,scale,,,,,,0.326485712,0.264575131,0.21373507,0.173205081,stimuli/lakes/704056_left.png,stimuli/lakes/704056_right.png,,,,0,46,46,56,1,,,,,
,,,,,,,$7680687802,2020-07-13_16h15.29.339,fisher_task,2020.1.3,Win32,60,-0.171296286,-0.359259272,1,0,0,3.610605,scale,,,,,,0.21373507,0.173205081,0.326485712,0.264575131,stimuli/lakes/3090121_left.png,stimuli/lakes/3090121_right.png,,,,0,47,47,121,1,,,,,
,,,,,,,$7680687802,2020-07-13_16h15.29.339,fisher_task,2020.1.3,Win32,60,0.062037051,-0.241666678,1,0,0,2.246395,scale,,,,,,0.3702,0.3,0.1234,0.1,stimuli/lakes/903031_left.png,stimuli/lakes/903031_right.png,,,,0,48,48,31,1,,,,,
,,,,,,,$7680687802,2020-07-13_16h15.29.339,fisher_task,2020.1.3,Win32,60,-0.181481471,-0.371296309,1,0,0,1.979785,scale,,,,,,0.2468,0.2,0.302267034,0.244948974,stimuli/lakes/4080112_left.png,stimuli/lakes/4080112_right.png,,,,0,49,49,112,1,,,,,
,,,,,,,$7680687802,2020-07-13_16h15.29.339,fisher_task,2020.1.3,Win32,60,0.183333349,-0.409259329,1,0,0,1.563115,scale,,,,,,0.174513954,0.141421356,0.349027907,0.282842712,stimuli/lakes/203033_left.png,stimuli/lakes/203033_right.png,,,,0,50,50,33,1,,,,,
,,,,,,,$7680687802,2020-07-13_16h15.29.339,fisher_task,2020.1.3,Win32,60,-0.056481469,-0.235185196,1,0,0,2.827785,scale,,,,,,0.2468,0.2,0.302267034,0.244948974,stimuli/lakes/406074_left.png,stimuli/lakes/406074_right.png,,,,0,51,51,74,1,,,,,
,,,,,,,$7680687802,2020-07-13_16h15.29.339,fisher_task,2020.1.3,Win32,60,-0.177777767,-0.375000013,1,0,0,1.630755,scale,,,,,,0.3702,0.3,0.1234,0.1,stimuli/lakes/906088_left.png,stimuli/lakes/906088_right.png,,,,0,52,52,88,1,,,,,
,,,,,,,$7680687802,2020-07-13_16h15.29.339,fisher_task,2020.1.3,Win32,60,-0.162962952,-0.331481494,1,0,0,1.29716,scale,,,,,,0.349027907,0.282842712,0.174513954,0.141421356,stimuli/lakes/806078_left.png,stimuli/lakes/806078_right.png,,,,0,53,53,78,1,,,,,
,,,,,,,$7680687802,2020-07-13_16h15.29.339,fisher_task,2020.1.3,Win32,60,0.052777848,-0.24351853,1,0,0,2.528755,scale,,,,,,0.21373507,0.173205081,0.326485712,0.264575131,stimuli/lakes/305062_left.png,stimuli/lakes/305062_right.png,,,,0,54,54,62,1,,,,,
,,,,,,,$7680687802,2020-07-13_16h15.29.339,fisher_task,2020.1.3,Win32,60,0.187037053,-0.35740742,1,0,0,1.43005,scale,,,,,,0.174513954,0.141421356,0.349027907,0.282842712,stimuli/lakes/202011_left.png,stimuli/lakes/202011_right.png,,,,0,55,55,11,1,,,,,
,,,,,,,$7680687802,2020-07-13_16h15.29.339,fisher_task,2020.1.3,Win32,60,0.140740756,-0.306481493,1,0,0,1.54728,scale,,,,,,0.21373507,0.173205081,0.326485712,0.264575131,stimuli/lakes/304052_left.png,stimuli/lakes/304052_right.png,,,,0,56,56,52,1,,,,,
,,,,,,,$7680687802,2020-07-13_16h15.29.339,fisher_task,2020.1.3,Win32,60,0.100000015,-0.265740809,1,0,0,1.647475,scale,,,,,,0.2468,0.2,0.302267034,0.244948974,stimuli/lakes/404053_left.png,stimuli/lakes/404053_right.png,,,,0,57,57,53,1,,,,,
,,,,,,,$7680687802,2020-07-13_16h15.29.339,fisher_task,2020.1.3,Win32,60,0.162962979,-0.339814884,1,0,0,0.998175,scale,,,,,,0.1234,0.1,0.3702,0.3,stimuli/lakes/103032_left.png,stimuli/lakes/103032_right.png,,,,0,58,58,32,1,,,,,
,,,,,,,$7680687802,2020-07-13_16h15.29.339,fisher_task,2020.1.3,Win32,60,-0.037037024,-0.219444512,1,0,0,3.24465,scale,,,,,,0.1234,0.1,0.3702,0.3,stimuli/lakes/106071_left.png,stimuli/lakes/106071_right.png,,,,0,59,59,71,1,,,,,
,,,,,,,$7680687802,2020-07-13_16h15.29.339,fisher_task,2020.1.3,Win32,60,-0.174074007,-0.377777791,1,0,0,1.59724,scale,,,,,,0.326485712,0.264575131,0.21373507,0.173205081,stimuli/lakes/7080116_left.png,stimuli/lakes/7080116_right.png,,,,0,60,60,116,1,,,,,
,,,,,,,$7680687802,2020-07-13_16h15.29.339,fisher_task,2020.1.3,Win32,60,-0.173148137,-0.341666679,1,0,0,1.413805,scale,,,,,,0.349027907,0.282842712,0.174513954,0.141421356,stimuli/lakes/807096_left.png,stimuli/lakes/807096_right.png,,,,0,61,61,96,1,,,,,
,,,,,,,$7680687802,2020-07-13_16h15.29.339,fisher_task,2020.1.3,Win32,60,-0.177777767,-0.345370383,1,0,0,1.79665,scale,,,,,,0.275930788,0.223606798,0.275930788,0.223606798,stimuli/lakes/5070102_left.png,stimuli/lakes/5070102_right.png,,,,0,62,62,102,1,,,,,
,,,,,,,$7680687802,2020-07-13_16h15.29.339,fisher_task,2020.1.3,Win32,60,0.115740756,-0.271296308,1,0,0,3.01174,scale,,,,,,0.3702,0.3,0.1234,0.1,stimuli/lakes/901010_left.png,stimuli/lakes/901010_right.png,,,,0,63,63,10,1,,,,,
,,,,,,,$7680687802,2020-07-13_16h15.29.339,fisher_task,2020.1.3,Win32,60,-0.135185174,-0.287962975,1,0,0,1.514755,scale,,,,,,0.302267034,0.244948974,0.2468,0.2,stimuli/lakes/6070103_left.png,stimuli/lakes/6070103_right.png,,,,0,64,64,103,1,,,,,
,,,,,,,$7680687802,2020-07-13_16h15.29.339,fisher_task,2020.1.3,Win32,60,0.096296311,-0.262037048,1,0,0,1.89708,scale,,,,,,0.174513954,0.141421356,0.349027907,0.282842712,stimuli/lakes/205060_left.png,stimuli/lakes/205060_right.png,,,,0,65,65,60,1,,,,,
,,,,,,,$7680687802,2020-07-13_16h15.29.339,fisher_task,2020.1.3,Win32,60,-0.038888876,-0.228703771,1,0,0,2.47884,scale,,,,,,0.1234,0.1,0.3702,0.3,stimuli/lakes/107098_left.png,stimuli/lakes/107098_right.png,,,space,0,66,66,98,1,1.763675,,,,
,,,,,,,$7680687802,2020-07-13_16h15.29.339,fisher_task,2020.1.3,Win32,60,0.142592608,-0.297222234,1,0,0,2.246595,scale,,,,,,0.302267034,0.244948974,0.2468,0.2,stimuli/lakes/60106_left.png,stimuli/lakes/60106_right.png,,,,0,67,67,6,1,,,,,
,,,,,,,$7680687802,2020-07-13_16h15.29.339,fisher_task,2020.1.3,Win32,60,0.179629646,-0.371296309,1,0,0,1.91256,scale,,,,,,0.302267034,0.244948974,0.2468,0.2,stimuli/lakes/60105_left.png,stimuli/lakes/60105_right.png,,,,0,68,68,5,1,,,,,
,,,,,,,$7680687802,2020-07-13_16h15.29.339,fisher_task,2020.1.3,Win32,60,-0.177777767,-0.35740742,1,0,0,1.79746,scale,,,,,,0.2468,0.2,0.302267034,0.244948974,stimuli/lakes/4080111_left.png,stimuli/lakes/4080111_right.png,,,,0,69,69,111,1,,,,,
,,,,,,,$7680687802,2020-07-13_16h15.29.339,fisher_task,2020.1.3,Win32,60,0.147222238,-0.335185254,1,0,0,2.71206,scale,,,,,,0.1234,0.1,0.3702,0.3,stimuli/lakes/104050_left.png,stimuli/lakes/104050_right.png,,,,0,70,70,50,1,,,,,
,,,,,,,$7680687802,2020-07-13_16h15.29.339,fisher_task,2020.1.3,Win32,60,-0.155555488,-0.328703716,1,0,0,1.44665,scale,,,,,,0.302267034,0.244948974,0.2468,0.2,stimuli/lakes/607094_left.png,stimuli/lakes/607094_right.png,,,,0,71,71,94,1,,,,,
,,,,,,,$7680687802,2020-07-13_16h15.29.339,fisher_task,2020.1.3,Win32,60,0.138888904,-0.314814827,1,0,0,3.92708,scale,,,,,,0.326485712,0.264575131,0.21373507,0.173205081,stimuli/lakes/70108_left.png,stimuli/lakes/70108_right.png,,,,0,72,72,8,1,,,,,
,,,,,,,$7680687802,2020-07-13_16h15.29.339,fisher_task,2020.1.3,Win32,60,0.151851867,-0.320370383,1,0,0,1.74608,scale,,,,,,0.302267034,0.244948974,0.2468,0.2,stimuli/lakes/602017_left.png,stimuli/lakes/602017_right.png,,,,0,73,73,17,1,,,,,
,,,,,,,$7680687802,2020-07-13_16h15.29.339,fisher_task,2020.1.3,Win32,60,-0.038888876,-0.230555566,1,0,0,3.52763,scale,,,,,,0.1234,0.1,0.3702,0.3,stimuli/lakes/107089_left.png,stimuli/lakes/107089_right.png,,,,0,74,74,89,1,,,,,
,,,,,,,$7680687802,2020-07-13_16h15.29.339,fisher_task,2020.1.3,Win32,60,0.164814831,-0.337962975,1,0,0,1.81353,scale,,,,,,0.2468,0.2,0.302267034,0.244948974,stimuli/lakes/403026_left.png,stimuli/lakes/403026_right.png,,,,0,75,75,26,1,,,,,
,,,,,,,$7680687802,2020-07-13_16h15.29.339,fisher_task,2020.1.3,Win32,60,-0.124074063,-0.266666678,1,0,0,1.7468,scale,,,,,,0.275930788,0.223606798,0.275930788,0.223606798,stimuli/lakes/506084_left.png,stimuli/lakes/506084_right.png,,,,0,76,76,84,1,,,,,
,,,,,,,$7680687802,2020-07-13_16h15.29.339,fisher_task,2020.1.3,Win32,60,0.02500007,-0.222222233,1,0,0,2.229075,scale,,,,,,0.349027907,0.282842712,0.174513954,0.141421356,stimuli/lakes/804057_left.png,stimuli/lakes/804057_right.png,,,,0,77,77,57,1,,,,,
,,,,,,,$7680687802,2020-07-13_16h15.29.339,fisher_task,2020.1.3,Win32,60,-0.109259191,-0.253703715,1,0,0,2.59555,scale,,,,,,0.275930788,0.223606798,0.275930788,0.223606798,stimuli/lakes/506075_left.png,stimuli/lakes/506075_right.png,,,,0,78,78,75,1,,,,,
,,,,,,,$7680687802,2020-07-13_16h15.29.339,fisher_task,2020.1.3,Win32,60,0.01203705,-0.225000011,1,0,0,1.54738,scale,,,,,,0.302267034,0.244948974,0.2468,0.2,stimuli/lakes/603028_left.png,stimuli/lakes/603028_right.png,,,,0,79,79,28,1,,,,,
,,,,,,,$7680687802,2020-07-13_16h15.29.339,fisher_task,2020.1.3,Win32,60,-0.09722221,-0.250000011,1,0,0,2.42878,scale,,,,,,0.174513954,0.141421356,0.349027907,0.282842712,stimuli/lakes/2080108_left.png,stimuli/lakes/2080108_right.png,,,,0,80,80,108,1,,,,,
,,,,,,,$7680687802,2020-07-13_16h15.29.339,fisher_task,2020.1.3,Win32,60,-0.011111098,-0.219444512,1,0,0,2.295925,scale,,,,,,0.21373507,0.173205081,0.326485712,0.264575131,stimuli/lakes/3070100_left.png,stimuli/lakes/3070100_right.png,,,,0,81,81,100,1,,,,,
,,,,,,,$7680687802,2020-07-13_16h15.29.339,fisher_task,2020.1.3,Win32,60,0.117592608,-0.282407419,1,0,0,1.46405,scale,,,,,,0.2468,0.2,0.302267034,0.244948974,stimuli/lakes/402015_left.png,stimuli/lakes/402015_right.png,,,,0,82,82,15,1,,,,,
,,,,,,,$7680687802,2020-07-13_16h15.29.339,fisher_task,2020.1.3,Win32,60,-0.181481471,-0.386111181,1,0,0,1.447265,scale,,,,,,0.302267034,0.244948974,0.2468,0.2,stimuli/lakes/6090126_left.png,stimuli/lakes/6090126_right.png,,,,0,83,83,126,1,,,,,
,,,,,,,$7680687802,2020-07-13_16h15.29.339,fisher_task,2020.1.3,Win32,60,0.045370384,-0.229629641,1,0,0,3.627045,scale,,,,,,0.302267034,0.244948974,0.2468,0.2,stimuli/lakes/604055_left.png,stimuli/lakes/604055_right.png,,,,0,84,84,55,1,,,,,
,,,,,,,$7680687802,2020-07-13_16h15.29.339,fisher_task,2020.1.3,Win32,60,-0.006481468,-0.222222233,1,0,0,2.395735,scale,,,,,,0.326485712,0.264575131,0.21373507,0.173205081,stimuli/lakes/704047_left.png,stimuli/lakes/704047_right.png,,,,0,85,85,47,1,,,,,
,,,,,,,$7680687802,2020-07-13_16h15.29.339,fisher_task,2020.1.3,Win32,60,0.162962979,-0.33703705,1,0,0,1.513985,scale,,,,,,0.21373507,0.173205081,0.326485712,0.264575131,stimuli/lakes/30100_left.png,stimuli/lakes/30100_right.png,,,,0,86,86,0,1,,,,,
,,,,,,,$7680687802,2020-07-13_16h15.29.339,fisher_task,2020.1.3,Win32,60,0.177777794,-0.376851921,1,0,0,1.347825,scale,,,,,,0.21373507,0.173205081,0.326485712,0.264575131,stimuli/lakes/302013_left.png,stimuli/lakes/302013_right.png,,,,0,87,87,13,1,,,,,
,,,,,,,$7680687802,2020-07-13_16h15.29.339,fisher_task,2020.1.3,Win32,60,0.004629643,-0.227777789,1,0,0,2.229575,scale,,,,,,0.174513954,0.141421356,0.349027907,0.282842712,stimuli/lakes/207090_left.png,stimuli/lakes/207090_right.png,,,space,0,88,88,90,1,1.661615,,,,
,,,,,,,$7680687802,2020-07-13_16h15.29.339,fisher_task,2020.1.3,Win32,60,-0.19074073,-0.403703717,1,0,0,1.363915,scale,,,,,,0.3702,0.3,0.1234,0.1,stimuli/lakes/907097_left.png,stimuli/lakes/907097_right.png,,,,0,89,89,97,1,,,,,
,,,,,,,$7680687802,2020-07-13_16h15.29.339,fisher_task,2020.1.3,Win32,60,0.054629644,-0.230555566,1,0,0,3.177685,scale,,,,,,0.1234,0.1,0.3702,0.3,stimuli/lakes/106080_left.png,stimuli/lakes/106080_right.png,,,,0,90,90,80,1,,,,,
,,,,,,,$7680687802,2020-07-13_16h15.29.339,fisher_task,2020.1.3,Win32,60,-0.147222211,-0.39537044,1,0,0,3.877085,scale,,,,,,0.275930788,0.223606798,0.275930788,0.223606798,stimuli/lakes/5080113_left.png,stimuli/lakes/5080113_right.png,,,,0,91,91,113,1,,,,,
,,,,,,,$7680687802,2020-07-13_16h15.29.339,fisher_task,2020.1.3,Win32,60,-0.137036969,-0.296296308,1,0,0,1.34761,scale,,,,,,0.2468,0.2,0.302267034,0.244948974,stimuli/lakes/406083_left.png,stimuli/lakes/406083_right.png,,,,0,92,92,83,1,,,,,
,,,,,,,$7680687802,2020-07-13_16h15.29.339,fisher_task,2020.1.3,Win32,60,-0.186111101,-0.405555569,1,0,0,1.413995,scale,,,,,,0.2468,0.2,0.302267034,0.244948974,stimuli/lakes/4090124_left.png,stimuli/lakes/4090124_right.png,,,,0,93,93,124,1,,,,,
,,,,,,,$7680687802,2020-07-13_16h15.29.339,fisher_task,2020.1.3,Win32,60,-0.162962952,-0.341666679,1,0,0,1.29779,scale,,,,,,0.3702,0.3,0.1234,0.1,stimuli/lakes/906079_left.png,stimuli/lakes/906079_right.png,,,,0,94,94,79,1,,,,,
,,,,,,,$7680687802,2020-07-13_16h15.29.339,fisher_task,2020.1.3,Win32,60,0.059259273,-0.2388889,1,0,0,3.61084,scale,,,,,,0.326485712,0.264575131,0.21373507,0.173205081,stimuli/lakes/703029_left.png,stimuli/lakes/703029_right.png,,,,0,95,95,29,1,,,,,
,,,,,,,$7680687802,2020-07-13_16h15.29.339,fisher_task,2020.1.3,Win32,60,0.058333347,-0.235185196,1,0,0,2.845315,scale,,,,,,0.21373507,0.173205081,0.326485712,0.264575131,stimuli/lakes/305061_left.png,stimuli/lakes/305061_right.png,,,,0,96,96,61,1,,,,,
,,,,,,,$7680687802,2020-07-13_16h15.29.339,fisher_task,2020.1.3,Win32,60,0.104629644,-0.283333345,1,0,0,1.480525,scale,,,,,,0.275930788,0.223606798,0.275930788,0.223606798,stimuli/lakes/503027_left.png,stimuli/lakes/503027_right.png,,,,0,97,97,27,1,,,,,
,,,,,,,$7680687802,2020-07-13_16h15.29.339,fisher_task,2020.1.3,Win32,60,0.141666682,-0.311111123,1,0,0,1.24698,scale,,,,,,0.21373507,0.173205081,0.326485712,0.264575131,stimuli/lakes/304043_left.png,stimuli/lakes/304043_right.png,,,,0,98,98,43,1,,,,,
,,,,,,,$7680687802,2020-07-13_16h15.29.339,fisher_task,2020.1.3,Win32,60,-0.159259248,-0.322222234,1,0,0,1.4314,scale,,,,,,0.2468,0.2,0.302267034,0.244948974,stimuli/lakes/4070101_left.png,stimuli/lakes/4070101_right.png,,,,0,99,99,101,1,,,,,
,,,,,,,$7680687802,2020-07-13_16h15.29.339,fisher_task,2020.1.3,Win32,60,-0.176851841,-0.405555569,1,0,0,1.396615,scale,,,,,,0.302267034,0.244948974,0.2468,0.2,stimuli/lakes/6090127_left.png,stimuli/lakes/6090127_right.png,,,,0,100,100,127,1,,,,,
,,,,,,,$7680687802,2020-07-13_16h15.29.339,fisher_task,2020.1.3,Win32,60,0.176851868,-0.399074087,1,0,0,0.998265,scale,,,,,,0.21373507,0.173205081,0.326485712,0.264575131,stimuli/lakes/30101_left.png,stimuli/lakes/30101_right.png,,,,0,101,101,1,1,,,,,
,,,,,,,$7680687802,2020-07-13_16h15.29.339,fisher_task,2020.1.3,Win32,60,-0.002777708,-0.23425927,1,0,0,1.713445,scale,,,,,,0.349027907,0.282842712,0.174513954,0.141421356,stimuli/lakes/804048_left.png,stimuli/lakes/804048_right.png,,,,0,102,102,48,1,,,,,
,,,,,,,$7680687802,2020-07-13_16h15.29.339,fisher_task,2020.1.3,Win32,60,-0.103703692,-0.256481549,1,0,0,2.0458,scale,,,,,,0.1234,0.1,0.3702,0.3,stimuli/lakes/1080107_left.png,stimuli/lakes/1080107_right.png,,,,0,103,103,107,1,,,,,
,,,,,,,$7680687802,2020-07-13_16h15.29.339,fisher_task,2020.1.3,Win32,60,-0.10648147,-0.265740809,1,0,0,2.063135,scale,,,,,,0.275930788,0.223606798,0.275930788,0.223606798,stimuli/lakes/507093_left.png,stimuli/lakes/507093_right.png,,,,0,104,104,93,1,,,,,
,,,,,,,$7680687802,2020-07-13_16h15.29.339,fisher_task,2020.1.3,Win32,60,-0.137962952,-0.286111123,1,0,0,2.396065,scale,,,,,,0.302267034,0.244948974,0.2468,0.2,stimuli/lakes/606076_left.png,stimuli/lakes/606076_right.png,,,,0,105,105,76,1,,,,,
,,,,,,,$7680687802,2020-07-13_16h15.29.339,fisher_task,2020.1.3,Win32,60,0.161111127,-0.375925939,1,0,0,1.214985,scale,,,,,,0.2468,0.2,0.302267034,0.244948974,stimuli/lakes/40102_left.png,stimuli/lakes/40102_right.png,,,,0,106,106,2,1,,,,,
,,,,,,,$7680687802,2020-07-13_16h15.29.339,fisher_task,2020.1.3,Win32,60,0.106481496,-0.26851853,1,0,0,2.345985,scale,,,,,,0.349027907,0.282842712,0.174513954,0.141421356,stimuli/lakes/802021_left.png,stimuli/lakes/802021_right.png,,,,0,107,107,21,1,,,,,
,,,,,,,$7680687802,2020-07-13_16h15.29.339,fisher_task,2020.1.3,Win32,60,-0.183333266,-0.414814828,1,0,0,1.379485,scale,,,,,,0.326485712,0.264575131,0.21373507,0.173205081,stimuli/lakes/7090128_left.png,stimuli/lakes/7090128_right.png,,,,0,108,108,128,1,,,,,
,,,,,,,$7680687802,2020-07-13_16h15.29.339,fisher_task,2020.1.3,Win32,60,0.05092594,-0.229629641,1,0,0,3.061645,scale,,,,,,0.349027907,0.282842712,0.174513954,0.141421356,stimuli/lakes/803030_left.png,stimuli/lakes/803030_right.png,,,,0,109,109,30,1,,,,,
,,,,,,,$7680687802,2020-07-13_16h15.29.339,fisher_task,2020.1.3,Win32,60,0.171296312,-0.358333403,1,0,0,1.630455,scale,,,,,,0.2468,0.2,0.302267034,0.244948974,stimuli/lakes/40103_left.png,stimuli/lakes/40103_right.png,,,space,0,110,110,3,1,1.674085,,,,
,,,,,,,$7680687802,2020-07-13_16h15.29.339,fisher_task,2020.1.3,Win32,60,-0.103703692,-0.262037048,1,0,0,1.928875,scale,,,,,,0.2468,0.2,0.302267034,0.244948974,stimuli/lakes/407092_left.png,stimuli/lakes/407092_right.png,,,,0,111,111,92,1,,,,,
,,,,,,,$7680687802,2020-07-13_16h15.29.339,fisher_task,2020.1.3,Win32,60,-0.175925915,-0.402777791,1,0,0,1.264545,scale,,,,,,0.326485712,0.264575131,0.21373507,0.173205081,stimuli/lakes/7090129_left.png,stimuli/lakes/7090129_right.png,,,,0,112,112,129,1,,,,,
,,,,,,,$7680687802,2020-07-13_16h15.29.339,fisher_task,2020.1.3,Win32,60,0.162037053,-0.32777779,1,0,0,1.181075,scale,,,,,,0.174513954,0.141421356,0.349027907,0.282842712,stimuli/lakes/204051_left.png,stimuli/lakes/204051_right.png,,,,0,113,113,51,1,,,,,
,,,,,,,$7680687802,2020-07-13_16h15.29.339,fisher_task,2020.1.3,Win32,60,0.163888905,-0.342592605,1,0,0,1.580285,scale,,,,,,0.275930788,0.223606798,0.275930788,0.223606798,stimuli/lakes/50104_left.png,stimuli/lakes/50104_right.png,,,,0,114,114,4,1,,,,,
,,,,,,,$7680687802,2020-07-13_16h15.29.339,fisher_task,2020.1.3,Win32,60,0.168518534,-0.334259272,1,0,0,2.4796,scale,,,,,,0.326485712,0.264575131,0.21373507,0.173205081,stimuli/lakes/70107_left.png,stimuli/lakes/70107_right.png,,,,0,115,115,7,1,,,,,
,,,,,,,$7680687802,2020-07-13_16h15.29.339,fisher_task,2020.1.3,Win32,60,-0.176851841,-0.377777791,1,0,0,1.47976,scale,,,,,,0.349027907,0.282842712,0.174513954,0.141421356,stimuli/lakes/806087_left.png,stimuli/lakes/806087_right.png,,,,0,116,116,87,1,,,,,
,,,,,,,$7680687802,2020-07-13_16h15.29.339,fisher_task,2020.1.3,Win32,60,-0.163888878,-0.345370383,1,0,0,1.39743,scale,,,,,,0.3702,0.3,0.1234,0.1,stimuli/lakes/9070106_left.png,stimuli/lakes/9070106_right.png,,,,0,117,117,106,1,,,,,
,,,,,,,$7680687802,2020-07-13_16h15.29.339,fisher_task,2020.1.3,Win32,60,-0.169444377,-0.370370383,1,0,0,1.21448,scale,,,,,,0.349027907,0.282842712,0.174513954,0.141421356,stimuli/lakes/8070105_left.png,stimuli/lakes/8070105_right.png,,,,0,118,118,105,1,,,,,
,,,,,,,$7680687802,2020-07-13_16h15.29.339,fisher_task,2020.1.3,Win32,60,0.001851922,-0.225000011,1,0,0,3.06182,scale,,,,,,0.2468,0.2,0.302267034,0.244948974,stimuli/lakes/405063_left.png,stimuli/lakes/405063_right.png,,,,0,119,119,63,1,,,,,
,,,,,,,$7680687802,2020-07-13_16h15.29.339,fisher_task,2020.1.3,Win32,60,-0.036111098,-0.233333401,1,0,0,2.412495,scale,,,,,,0.21373507,0.173205081,0.326485712,0.264575131,stimuli/lakes/3080110_left.png,stimuli/lakes/3080110_right.png,,,,0,120,120,110,1,,,,,
,,,,,,,$7680687802,2020-07-13_16h15.29.339,fisher_task,2020.1.3,Win32,60,0.127777793,-0.282407419,1,0,0,1.58055,scale,,,,,,0.326485712,0.264575131,0.21373507,0.173205081,stimuli/lakes/702020_left.png,stimuli/lakes/702020_right.png,,,,0,121,121,20,1,,,,,
,,,,,,,$7680687802,2020-07-13_16h15.29.339,fisher_task,2020.1.3,Win32,60,-0.176851841,-0.384259272,1,0,0,1.61405,scale,,,,,,0.326485712,0.264575131,0.21373507,0.173205081,stimuli/lakes/7080117_left.png,stimuli/lakes/7080117_right.png,,,,0,122,122,117,1,,,,,
,,,,,,,$7680687802,2020-07-13_16h15.29.339,fisher_task,2020.1.3,Win32,60,0.070370385,-0.245370381,1,0,0,3.02699,scale,,,,,,0.3702,0.3,0.1234,0.1,stimuli/lakes/902022_left.png,stimuli/lakes/902022_right.png,,,,0,123,123,22,1,,,,,
,,,,,,,$7680687802,2020-07-13_16h15.29.339,fisher_task,2020.1.3,Win32,60,0.154629645,-0.311111123,1,0,0,1.264695,scale,,,,,,0.2468,0.2,0.302267034,0.244948974,stimuli/lakes/404044_left.png,stimuli/lakes/404044_right.png,,,,0,124,124,44,1,,,,,
,,,,,,,$7680687802,2020-07-13_16h15.29.339,fisher_task,2020.1.3,Win32,60,0.137962978,-0.300000012,1,0,0,1.13143,scale,,,,,,0.2468,0.2,0.302267034,0.244948974,stimuli/lakes/403035_left.png,stimuli/lakes/403035_right.png,,,,0,125,125,35,1,,,,,
,,,,,,,$7680687802,2020-07-13_16h15.29.339,fisher_task,2020.1.3,Win32,60,-0.062962894,-0.236111122,1,0,0,2.695745,scale,,,,,,0.174513954,0.141421356,0.349027907,0.282842712,stimuli/lakes/207099_left.png,stimuli/lakes/207099_right.png,,,,0,126,126,99,1,,,,,
,,,,,,,$7680687802,2020-07-13_16h15.29.339,fisher_task,2020.1.3,Win32,60,-0.164814748,-0.328703716,1,0,0,1.92937,scale,,,,,,0.349027907,0.282842712,0.174513954,0.141421356,stimuli/lakes/805069_left.png,stimuli/lakes/805069_right.png,,,,0,127,127,69,1,,,,,
,,,,,,,$7680687802,2020-07-13_16h15.29.339,fisher_task,2020.1.3,Win32,60,-0.153703693,-0.300925938,1,0,0,1.11331,scale,,,,,,0.326485712,0.264575131,0.21373507,0.173205081,stimuli/lakes/706086_left.png,stimuli/lakes/706086_right.png,,,,0,128,128,86,1,,,,,
,,,,,,,$7680687802,2020-07-13_16h15.29.339,fisher_task,2020.1.3,Win32,60,0.048148219,-0.232407418,1,0,0,2.04634,scale,,,,,,0.174513954,0.141421356,0.349027907,0.282842712,stimuli/lakes/206081_left.png,stimuli/lakes/206081_right.png,,,,0,129,129,81,1,,,,,
,,,,,,,$7680687802,2020-07-13_16h15.29.339,fisher_task,2020.1.3,Win32,60,,,,,,,,,,,,,,,,,,,,,,,,,,,,space,9.668375,space,37.307315
