keySpace.keys,instructions.thisRepN,instructions.thisTrialN,instructions.thisN,instructions.thisIndex,instructions.ran,participant,date,expName,psychopyVersion,OS,frameRate,mouse.x,mouse.y,mouse.leftButton,mouse.midButton,mouse.rightButton,mouse.time,mouse.clicked_name,training.thisRepN,training.thisTrialN,training.thisN,training.thisIndex,training.ran,widthBasketLeft,heightBasketLeft,widthBasketRight,heightBasketRight,leftLake,rightLake,space2.keys,space2.rt,space1.keys,trials.thisRepN,trials.thisTrialN,trials.thisN,trials.thisIndex,trials.ran,space1.rt,finalSpace1.keys,finalSpace1.rt,finalSpace2.keys,finalSpace2.rt
,0,0,0,0,1,$7039780129,2020-07-13_19h37.14.408,fisher_task,2020.1.3,Win32,60,,,,,,,,,,,,,,,,,,,,,,,,,,,,,,,
,,,,,,$7039780129,2020-07-13_19h37.14.408,fisher_task,2020.1.3,Win32,60,0.180989583,-0.397135417,1,0,0,5.80236,scale,0,0,0,0,1,0.275930788,0.223606798,0.275930788,0.223606798,stimuli/training/20_left.png,stimuli/training/20_right.png,,,,,,,,,,,,,
,,,,,,$7039780129,2020-07-13_19h37.14.408,fisher_task,2020.1.3,Win32,60,-0.158854167,-0.41796875,1,0,0,2.1718,scale,0,1,1,1,1,0.275930788,0.223606798,0.275930788,0.223606798,stimuli/training/80_left.png,stimuli/training/80_right.png,,,,,,,,,,,,,
,,,,,,$7039780129,2020-07-13_19h37.14.408,fisher_task,2020.1.3,Win32,60,0.141927083,-0.334635417,1,0,0,3.14925,scale,0,2,2,2,1,0.174513954,0.141421356,0.349027907,0.282842712,stimuli/training/50_left.png,stimuli/training/50_right.png,,,,,,,,,,,,,
,,,,,,$7039780129,2020-07-13_19h37.14.408,fisher_task,2020.1.3,Win32,60,-0.010416667,-0.260416667,1,0,0,2.784935,scale,0,3,3,3,1,0.349027907,0.282842712,0.174513954,0.141421356,stimuli/training/50_left.png,stimuli/training/50_right.png,,,,,,,,,,,,,
,,,,,,$7039780129,2020-07-13_19h37.14.408,fisher_task,2020.1.3,Win32,60,0.154947917,-0.352864583,1,0,0,2.884245,scale,0,4,4,4,1,0.275930788,0.223606798,0.275930788,0.223606798,stimuli/training/50_left.png,stimuli/training/50_right.png,,,,,,,,,,,,,
,,,,,,$7039780129,2020-07-13_19h37.14.408,fisher_task,2020.1.3,Win32,60,0.149739583,-0.420572917,1,0,0,3.51401,scale,0,5,5,5,1,0.174513954,0.141421356,0.349027907,0.282842712,stimuli/training/20_left.png,stimuli/training/20_right.png,,,,,,,,,,,,,
,,,,,,$7039780129,2020-07-13_19h37.14.408,fisher_task,2020.1.3,Win32,60,-0.15625,-0.416666667,1,0,0,2.966885,scale,0,6,6,6,1,0.349027907,0.282842712,0.174513954,0.141421356,stimuli/training/80_left.png,stimuli/training/80_right.png,,,,,,,,,,,,,
,,,,,,$7039780129,2020-07-13_19h37.14.408,fisher_task,2020.1.3,Win32,60,0.162760417,-0.40625,1,0,0,2.918335,scale,0,7,7,7,1,0.1234,0.1,0.3702,0.3,stimuli/training/30_left.png,stimuli/training/30_right.png,,,,,,,,,,,,,
,,,,,,$7039780129,2020-07-13_19h37.14.408,fisher_task,2020.1.3,Win32,60,-0.158854167,-0.419270833,1,0,0,2.501685,scale,0,8,8,8,1,0.3702,0.3,0.1234,0.1,stimuli/training/70_left.png,stimuli/training/70_right.png,,,,,,,,,,,,,
,,,,,,$7039780129,2020-07-13_19h37.14.408,fisher_task,2020.1.3,Win32,60,-0.173177083,-0.423177083,1,0,0,2.21997,scale,0,9,9,9,1,0.326485712,0.264575131,0.21373507,0.173205081,stimuli/training/90_left.png,stimuli/training/90_right.png,,,,,,,,,,,,,
,,,,,,$7039780129,2020-07-13_19h37.14.408,fisher_task,2020.1.3,Win32,60,0.141927083,-0.37109375,1,0,0,2.81678,scale,0,10,10,10,1,0.21373507,0.173205081,0.326485712,0.264575131,stimuli/training/10_left.png,stimuli/training/10_right.png,,,,,,,,,,,,,
,,,,,,$7039780129,2020-07-13_19h37.14.408,fisher_task,2020.1.3,Win32,60,-0.162760417,-0.3984375,1,0,0,2.055175,scale,,,,,,0.275930788,0.223606798,0.275930788,0.223606798,stimuli/lakes/5090125_left.png,stimuli/lakes/5090125_right.png,space,20.883995,,0,0,0,125,1,,,,,
,,,,,,$7039780129,2020-07-13_19h37.14.408,fisher_task,2020.1.3,Win32,60,-0.104166667,-0.294270833,1,0,0,3.413865,scale,,,,,,0.326485712,0.264575131,0.21373507,0.173205081,stimuli/lakes/706086_left.png,stimuli/lakes/706086_right.png,,,,0,1,1,86,1,,,,,
,,,,,,$7039780129,2020-07-13_19h37.14.408,fisher_task,2020.1.3,Win32,60,-0.149739583,-0.361979167,1,0,0,2.10371,scale,,,,,,0.326485712,0.264575131,0.21373507,0.173205081,stimuli/lakes/7070104_left.png,stimuli/lakes/7070104_right.png,,,,0,2,2,104,1,,,,,
,,,,,,$7039780129,2020-07-13_19h37.14.408,fisher_task,2020.1.3,Win32,60,-0.084635417,-0.286458333,1,0,0,2.30393,scale,,,,,,0.3702,0.3,0.1234,0.1,stimuli/lakes/906079_left.png,stimuli/lakes/906079_right.png,,,,0,3,3,79,1,,,,,
,,,,,,$7039780129,2020-07-13_19h37.14.408,fisher_task,2020.1.3,Win32,60,0.161458333,-0.350260417,1,0,0,3.43153,scale,,,,,,0.21373507,0.173205081,0.326485712,0.264575131,stimuli/lakes/304043_left.png,stimuli/lakes/304043_right.png,,,,0,4,4,43,1,,,,,
,,,,,,$7039780129,2020-07-13_19h37.14.408,fisher_task,2020.1.3,Win32,60,-0.001302083,-0.260416667,1,0,0,4.425925,scale,,,,,,0.349027907,0.282842712,0.174513954,0.141421356,stimuli/lakes/803030_left.png,stimuli/lakes/803030_right.png,,,,0,5,5,30,1,,,,,
,,,,,,$7039780129,2020-07-13_19h37.14.408,fisher_task,2020.1.3,Win32,60,0.083333333,-0.26953125,1,0,0,3.99411,scale,,,,,,0.174513954,0.141421356,0.349027907,0.282842712,stimuli/lakes/207099_left.png,stimuli/lakes/207099_right.png,,,,0,6,6,99,1,,,,,
,,,,,,$7039780129,2020-07-13_19h37.14.408,fisher_task,2020.1.3,Win32,60,-0.1171875,-0.302083333,1,0,0,3.083035,scale,,,,,,0.3702,0.3,0.1234,0.1,stimuli/lakes/904049_left.png,stimuli/lakes/904049_right.png,,,,0,7,7,49,1,,,,,
,,,,,,$7039780129,2020-07-13_19h37.14.408,fisher_task,2020.1.3,Win32,60,-0.123697917,-0.3125,1,0,0,5.586565,scale,,,,,,0.326485712,0.264575131,0.21373507,0.173205081,stimuli/lakes/705067_left.png,stimuli/lakes/705067_right.png,,,,0,8,8,67,1,,,,,
,,,,,,$7039780129,2020-07-13_19h37.14.408,fisher_task,2020.1.3,Win32,60,-0.087239583,-0.28515625,1,0,0,4.57503,scale,,,,,,0.326485712,0.264575131,0.21373507,0.173205081,stimuli/lakes/703038_left.png,stimuli/lakes/703038_right.png,,,,0,9,9,38,1,,,,,
,,,,,,$7039780129,2020-07-13_19h37.14.408,fisher_task,2020.1.3,Win32,60,-0.045572917,-0.256510417,1,0,0,3.595595,scale,,,,,,0.326485712,0.264575131,0.21373507,0.173205081,stimuli/lakes/70107_left.png,stimuli/lakes/70107_right.png,,,,0,10,10,7,1,,,,,
,,,,,,$7039780129,2020-07-13_19h37.14.408,fisher_task,2020.1.3,Win32,60,0.048177083,-0.260416667,1,0,0,6.132425,scale,,,,,,0.326485712,0.264575131,0.21373507,0.173205081,stimuli/lakes/70108_left.png,stimuli/lakes/70108_right.png,,,,0,11,11,8,1,,,,,
,,,,,,$7039780129,2020-07-13_19h37.14.408,fisher_task,2020.1.3,Win32,60,-0.078125,-0.2734375,1,0,0,3.680235,scale,,,,,,0.326485712,0.264575131,0.21373507,0.173205081,stimuli/lakes/702020_left.png,stimuli/lakes/702020_right.png,,,,0,12,12,20,1,,,,,
,,,,,,$7039780129,2020-07-13_19h37.14.408,fisher_task,2020.1.3,Win32,60,-0.162760417,-0.424479167,1,0,0,2.4515,scale,,,,,,0.326485712,0.264575131,0.21373507,0.173205081,stimuli/lakes/7090129_left.png,stimuli/lakes/7090129_right.png,,,,0,13,13,129,1,,,,,
,,,,,,$7039780129,2020-07-13_19h37.14.408,fisher_task,2020.1.3,Win32,60,0.076822917,-0.272135417,1,0,0,4.24294,scale,,,,,,0.1234,0.1,0.3702,0.3,stimuli/lakes/1080107_left.png,stimuli/lakes/1080107_right.png,,,,0,14,14,107,1,,,,,
,,,,,,$7039780129,2020-07-13_19h37.14.408,fisher_task,2020.1.3,Win32,60,-0.122395833,-0.299479167,1,0,0,4.01191,scale,,,,,,0.275930788,0.223606798,0.275930788,0.223606798,stimuli/lakes/507093_left.png,stimuli/lakes/507093_right.png,,,,0,15,15,93,1,,,,,
,,,,,,$7039780129,2020-07-13_19h37.14.408,fisher_task,2020.1.3,Win32,60,0.127604167,-0.315104167,1,0,0,3.464275,scale,,,,,,0.275930788,0.223606798,0.275930788,0.223606798,stimuli/lakes/504054_left.png,stimuli/lakes/504054_right.png,,,,0,16,16,54,1,,,,,
,,,,,,$7039780129,2020-07-13_19h37.14.408,fisher_task,2020.1.3,Win32,60,0.165364583,-0.412760417,1,0,0,2.71603,scale,,,,,,0.2468,0.2,0.302267034,0.244948974,stimuli/lakes/40102_left.png,stimuli/lakes/40102_right.png,,,,0,17,17,2,1,,,,,
,,,,,,$7039780129,2020-07-13_19h37.14.408,fisher_task,2020.1.3,Win32,60,0.0625,-0.265625,1,0,0,4.19408,scale,,,,,,0.2468,0.2,0.302267034,0.244948974,stimuli/lakes/4070101_left.png,stimuli/lakes/4070101_right.png,,,,0,18,18,101,1,,,,,
,,,,,,$7039780129,2020-07-13_19h37.14.408,fisher_task,2020.1.3,Win32,60,-0.16796875,-0.430989583,1,0,0,1.88968,scale,,,,,,0.326485712,0.264575131,0.21373507,0.173205081,stimuli/lakes/707095_left.png,stimuli/lakes/707095_right.png,,,,0,19,19,95,1,,,,,
,,,,,,$7039780129,2020-07-13_19h37.14.408,fisher_task,2020.1.3,Win32,60,0.106770833,-0.278645833,1,0,0,3.414225,scale,,,,,,0.2468,0.2,0.302267034,0.244948974,stimuli/lakes/407092_left.png,stimuli/lakes/407092_right.png,,,,0,20,20,92,1,,,,,
,,,,,,$7039780129,2020-07-13_19h37.14.408,fisher_task,2020.1.3,Win32,60,0.161458333,-0.3671875,1,0,0,2.75144,scale,,,,,,0.21373507,0.173205081,0.326485712,0.264575131,stimuli/lakes/305062_left.png,stimuli/lakes/305062_right.png,,,,0,21,21,62,1,,,,,
,,,,,,$7039780129,2020-07-13_19h37.14.408,fisher_task,2020.1.3,Win32,60,0.07421875,-0.260416667,1,0,0,2.900075,scale,,,,,,0.174513954,0.141421356,0.349027907,0.282842712,stimuli/lakes/206081_left.png,stimuli/lakes/206081_right.png,,,space,0,22,22,81,1,85.43104,,,,
,,,,,,$7039780129,2020-07-13_19h37.14.408,fisher_task,2020.1.3,Win32,60,0.15234375,-0.333333333,1,0,0,4.277005,scale,,,,,,0.21373507,0.173205081,0.326485712,0.264575131,stimuli/lakes/306073_left.png,stimuli/lakes/306073_right.png,,,,0,23,23,73,1,,,,,
,,,,,,$7039780129,2020-07-13_19h37.14.408,fisher_task,2020.1.3,Win32,60,0.119791667,-0.282552083,1,0,0,3.58044,scale,,,,,,0.275930788,0.223606798,0.275930788,0.223606798,stimuli/lakes/504045_left.png,stimuli/lakes/504045_right.png,,,,0,24,24,45,1,,,,,
,,,,,,$7039780129,2020-07-13_19h37.14.408,fisher_task,2020.1.3,Win32,60,0.161458333,-0.35546875,1,0,0,2.519205,scale,,,,,,0.1234,0.1,0.3702,0.3,stimuli/lakes/106080_left.png,stimuli/lakes/106080_right.png,,,,0,25,25,80,1,,,,,
,,,,,,$7039780129,2020-07-13_19h37.14.408,fisher_task,2020.1.3,Win32,60,-0.083333333,-0.264322917,1,0,0,2.60167,scale,,,,,,0.302267034,0.244948974,0.2468,0.2,stimuli/lakes/603028_left.png,stimuli/lakes/603028_right.png,,,,0,26,26,28,1,,,,,
,,,,,,$7039780129,2020-07-13_19h37.14.408,fisher_task,2020.1.3,Win32,60,-0.173177083,-0.416666667,1,0,0,2.20467,scale,,,,,,0.349027907,0.282842712,0.174513954,0.141421356,stimuli/lakes/807096_left.png,stimuli/lakes/807096_right.png,,,,0,27,27,96,1,,,,,
,,,,,,$7039780129,2020-07-13_19h37.14.408,fisher_task,2020.1.3,Win32,60,0.1015625,-0.28515625,1,0,0,3.165945,scale,,,,,,0.2468,0.2,0.302267034,0.244948974,stimuli/lakes/405064_left.png,stimuli/lakes/405064_right.png,,,,0,28,28,64,1,,,,,
,,,,,,$7039780129,2020-07-13_19h37.14.408,fisher_task,2020.1.3,Win32,60,0.16796875,-0.36328125,1,0,0,4.374765,scale,,,,,,0.1234,0.1,0.3702,0.3,stimuli/lakes/104041_left.png,stimuli/lakes/104041_right.png,,,,0,29,29,41,1,,,,,
,,,,,,$7039780129,2020-07-13_19h37.14.408,fisher_task,2020.1.3,Win32,60,-0.106770833,-0.294270833,1,0,0,3.74597,scale,,,,,,0.349027907,0.282842712,0.174513954,0.141421356,stimuli/lakes/805069_left.png,stimuli/lakes/805069_right.png,,,,0,30,30,69,1,,,,,
,,,,,,$7039780129,2020-07-13_19h37.14.408,fisher_task,2020.1.3,Win32,60,0.166666667,-0.4140625,1,0,0,2.650805,scale,,,,,,0.174513954,0.141421356,0.349027907,0.282842712,stimuli/lakes/202011_left.png,stimuli/lakes/202011_right.png,,,,0,31,31,11,1,,,,,
,,,,,,$7039780129,2020-07-13_19h37.14.408,fisher_task,2020.1.3,Win32,60,0.162760417,-0.372395833,1,0,0,4.55948,scale,,,,,,0.2468,0.2,0.302267034,0.244948974,stimuli/lakes/403035_left.png,stimuli/lakes/403035_right.png,,,,0,32,32,35,1,,,,,
,,,,,,$7039780129,2020-07-13_19h37.14.408,fisher_task,2020.1.3,Win32,60,-0.162760417,-0.415364583,1,0,0,2.053705,scale,,,,,,0.302267034,0.244948974,0.2468,0.2,stimuli/lakes/6080115_left.png,stimuli/lakes/6080115_right.png,,,,0,33,33,115,1,,,,,
,,,,,,$7039780129,2020-07-13_19h37.14.408,fisher_task,2020.1.3,Win32,60,0.169270833,-0.39453125,1,0,0,1.989585,scale,,,,,,0.21373507,0.173205081,0.326485712,0.264575131,stimuli/lakes/30100_left.png,stimuli/lakes/30100_right.png,,,,0,34,34,0,1,,,,,
,,,,,,$7039780129,2020-07-13_19h37.14.408,fisher_task,2020.1.3,Win32,60,-0.170572917,-0.408854167,1,0,0,2.570315,scale,,,,,,0.326485712,0.264575131,0.21373507,0.173205081,stimuli/lakes/7090128_left.png,stimuli/lakes/7090128_right.png,,,,0,35,35,128,1,,,,,
,,,,,,$7039780129,2020-07-13_19h37.14.408,fisher_task,2020.1.3,Win32,60,0.130208333,-0.298177083,1,0,0,2.35225,scale,,,,,,0.2468,0.2,0.302267034,0.244948974,stimuli/lakes/406074_left.png,stimuli/lakes/406074_right.png,,,,0,36,36,74,1,,,,,
,,,,,,$7039780129,2020-07-13_19h37.14.408,fisher_task,2020.1.3,Win32,60,-0.001302083,-0.248697917,1,0,0,5.78437,scale,,,,,,0.302267034,0.244948974,0.2468,0.2,stimuli/lakes/602017_left.png,stimuli/lakes/602017_right.png,,,,0,37,37,17,1,,,,,
,,,,,,$7039780129,2020-07-13_19h37.14.408,fisher_task,2020.1.3,Win32,60,0.015625,-0.247395833,1,0,0,6.632075,scale,,,,,,0.349027907,0.282842712,0.174513954,0.141421356,stimuli/lakes/80109_left.png,stimuli/lakes/80109_right.png,,,,0,38,38,9,1,,,,,
,,,,,,$7039780129,2020-07-13_19h37.14.408,fisher_task,2020.1.3,Win32,60,0.106770833,-0.282552083,1,0,0,7.425705,scale,,,,,,0.1234,0.1,0.3702,0.3,stimuli/lakes/106071_left.png,stimuli/lakes/106071_right.png,,,,0,39,39,71,1,,,,,
,,,,,,$7039780129,2020-07-13_19h37.14.408,fisher_task,2020.1.3,Win32,60,-0.169270833,-0.41015625,1,0,0,4.29264,scale,,,,,,0.326485712,0.264575131,0.21373507,0.173205081,stimuli/lakes/7080117_left.png,stimuli/lakes/7080117_right.png,,,,0,40,40,117,1,,,,,
,,,,,,$7039780129,2020-07-13_19h37.14.408,fisher_task,2020.1.3,Win32,60,0.162760417,-0.415364583,1,0,0,2.104805,scale,,,,,,0.1234,0.1,0.3702,0.3,stimuli/lakes/103023_left.png,stimuli/lakes/103023_right.png,,,,0,41,41,23,1,,,,,
,,,,,,$7039780129,2020-07-13_19h37.14.408,fisher_task,2020.1.3,Win32,60,0.134114583,-0.311197917,1,0,0,5.03831,scale,,,,,,0.275930788,0.223606798,0.275930788,0.223606798,stimuli/lakes/503036_left.png,stimuli/lakes/503036_right.png,,,,0,42,42,36,1,,,,,
,,,,,,$7039780129,2020-07-13_19h37.14.408,fisher_task,2020.1.3,Win32,60,-0.104166667,-0.259114583,1,0,0,7.42559,scale,,,,,,0.349027907,0.282842712,0.174513954,0.141421356,stimuli/lakes/804048_left.png,stimuli/lakes/804048_right.png,,,,0,43,43,48,1,,,,,
,,,,,,$7039780129,2020-07-13_19h37.14.408,fisher_task,2020.1.3,Win32,60,-0.16015625,-0.365885417,1,0,0,2.12005,scale,,,,,,0.302267034,0.244948974,0.2468,0.2,stimuli/lakes/6070103_left.png,stimuli/lakes/6070103_right.png,,,space,0,44,44,103,1,466.92381,,,,
,,,,,,$7039780129,2020-07-13_19h37.14.408,fisher_task,2020.1.3,Win32,60,-0.147135417,-0.333333333,1,0,0,3.19956,scale,,,,,,0.3702,0.3,0.1234,0.1,stimuli/lakes/9070106_left.png,stimuli/lakes/9070106_right.png,,,,0,45,45,106,1,,,,,
,,,,,,$7039780129,2020-07-13_19h37.14.408,fisher_task,2020.1.3,Win32,60,0.123697917,-0.305989583,1,0,0,2.86545,scale,,,,,,0.174513954,0.141421356,0.349027907,0.282842712,stimuli/lakes/204042_left.png,stimuli/lakes/204042_right.png,,,,0,46,46,42,1,,,,,
,,,,,,$7039780129,2020-07-13_19h37.14.408,fisher_task,2020.1.3,Win32,60,0.08984375,-0.25390625,1,0,0,3.381325,scale,,,,,,0.21373507,0.173205081,0.326485712,0.264575131,stimuli/lakes/3070100_left.png,stimuli/lakes/3070100_right.png,,,,0,47,47,100,1,,,,,
,,,,,,$7039780129,2020-07-13_19h37.14.408,fisher_task,2020.1.3,Win32,60,0.171875,-0.37890625,1,0,0,4.27581,scale,,,,,,0.2468,0.2,0.302267034,0.244948974,stimuli/lakes/403026_left.png,stimuli/lakes/403026_right.png,,,,0,48,48,26,1,,,,,
,,,,,,$7039780129,2020-07-13_19h37.14.408,fisher_task,2020.1.3,Win32,60,0.162760417,-0.34375,1,0,0,2.419885,scale,,,,,,0.275930788,0.223606798,0.275930788,0.223606798,stimuli/lakes/50104_left.png,stimuli/lakes/50104_right.png,,,,0,49,49,4,1,,,,,
,,,,,,$7039780129,2020-07-13_19h37.14.408,fisher_task,2020.1.3,Win32,60,0.140625,-0.303385417,1,0,0,1.790095,scale,,,,,,0.21373507,0.173205081,0.326485712,0.264575131,stimuli/lakes/304052_left.png,stimuli/lakes/304052_right.png,,,,0,50,50,52,1,,,,,
,,,,,,$7039780129,2020-07-13_19h37.14.408,fisher_task,2020.1.3,Win32,60,0.166666667,-0.33984375,1,0,0,2.23673,scale,,,,,,0.1234,0.1,0.3702,0.3,stimuli/lakes/105059_left.png,stimuli/lakes/105059_right.png,,,,0,51,51,59,1,,,,,
,,,,,,$7039780129,2020-07-13_19h37.14.408,fisher_task,2020.1.3,Win32,60,0.076822917,-0.2421875,1,0,0,3.28153,scale,,,,,,0.1234,0.1,0.3702,0.3,stimuli/lakes/107098_left.png,stimuli/lakes/107098_right.png,,,,0,52,52,98,1,,,,,
,,,,,,$7039780129,2020-07-13_19h37.14.408,fisher_task,2020.1.3,Win32,60,0.08203125,-0.25390625,1,0,0,3.03371,scale,,,,,,0.174513954,0.141421356,0.349027907,0.282842712,stimuli/lakes/206072_left.png,stimuli/lakes/206072_right.png,,,,0,53,53,72,1,,,,,
,,,,,,$7039780129,2020-07-13_19h37.14.408,fisher_task,2020.1.3,Win32,60,-0.080729167,-0.243489583,1,0,0,3.01685,scale,,,,,,0.349027907,0.282842712,0.174513954,0.141421356,stimuli/lakes/803039_left.png,stimuli/lakes/803039_right.png,,,,0,54,54,39,1,,,,,
,,,,,,$7039780129,2020-07-13_19h37.14.408,fisher_task,2020.1.3,Win32,60,0.002604167,-0.236979167,1,0,0,3.16557,scale,,,,,,0.174513954,0.141421356,0.349027907,0.282842712,stimuli/lakes/2080108_left.png,stimuli/lakes/2080108_right.png,,,,0,55,55,108,1,,,,,
,,,,,,$7039780129,2020-07-13_19h37.14.408,fisher_task,2020.1.3,Win32,60,0.087239583,-0.25390625,1,0,0,7.706125,scale,,,,,,0.1234,0.1,0.3702,0.3,stimuli/lakes/107089_left.png,stimuli/lakes/107089_right.png,,,,0,56,56,89,1,,,,,
,,,,,,$7039780129,2020-07-13_19h37.14.408,fisher_task,2020.1.3,Win32,60,0.006510417,-0.2421875,1,0,0,2.48621,scale,,,,,,0.326485712,0.264575131,0.21373507,0.173205081,stimuli/lakes/702019_left.png,stimuli/lakes/702019_right.png,,,,0,57,57,19,1,,,,,
,,,,,,$7039780129,2020-07-13_19h37.14.408,fisher_task,2020.1.3,Win32,60,0.1328125,-0.290364583,1,0,0,2.40392,scale,,,,,,0.2468,0.2,0.302267034,0.244948974,stimuli/lakes/402015_left.png,stimuli/lakes/402015_right.png,,,,0,58,58,15,1,,,,,
,,,,,,$7039780129,2020-07-13_19h37.14.408,fisher_task,2020.1.3,Win32,60,0.14453125,-0.291666667,1,0,0,2.00553,scale,,,,,,0.275930788,0.223606798,0.275930788,0.223606798,stimuli/lakes/503027_left.png,stimuli/lakes/503027_right.png,,,,0,59,59,27,1,,,,,
,,,,,,$7039780129,2020-07-13_19h37.14.408,fisher_task,2020.1.3,Win32,60,-0.16796875,-0.350260417,1,0,0,3.298255,scale,,,,,,0.326485712,0.264575131,0.21373507,0.173205081,stimuli/lakes/7080116_left.png,stimuli/lakes/7080116_right.png,,,,0,60,60,116,1,,,,,
,,,,,,$7039780129,2020-07-13_19h37.14.408,fisher_task,2020.1.3,Win32,60,-0.174479167,-0.359375,1,0,0,1.98872,scale,,,,,,0.349027907,0.282842712,0.174513954,0.141421356,stimuli/lakes/8080118_left.png,stimuli/lakes/8080118_right.png,,,,0,61,61,118,1,,,,,
,,,,,,$7039780129,2020-07-13_19h37.14.408,fisher_task,2020.1.3,Win32,60,0.161458333,-0.319010417,1,0,0,2.00543,scale,,,,,,0.2468,0.2,0.302267034,0.244948974,stimuli/lakes/402014_left.png,stimuli/lakes/402014_right.png,,,,0,62,62,14,1,,,,,
,,,,,,$7039780129,2020-07-13_19h37.14.408,fisher_task,2020.1.3,Win32,60,0.06640625,-0.244791667,1,0,0,7.36113,scale,,,,,,0.302267034,0.244948974,0.2468,0.2,stimuli/lakes/60105_left.png,stimuli/lakes/60105_right.png,,,,0,63,63,5,1,,,,,
,,,,,,$7039780129,2020-07-13_19h37.14.408,fisher_task,2020.1.3,Win32,60,-0.048177083,-0.236979167,1,0,0,3.580475,scale,,,,,,0.302267034,0.244948974,0.2468,0.2,stimuli/lakes/604055_left.png,stimuli/lakes/604055_right.png,,,,0,64,64,55,1,,,,,
,,,,,,$7039780129,2020-07-13_19h37.14.408,fisher_task,2020.1.3,Win32,60,-0.14453125,-0.298177083,1,0,0,2.53619,scale,,,,,,0.302267034,0.244948974,0.2468,0.2,stimuli/lakes/6090127_left.png,stimuli/lakes/6090127_right.png,,,,0,65,65,127,1,,,,,
,,,,,,$7039780129,2020-07-13_19h37.14.408,fisher_task,2020.1.3,Win32,60,0.104166667,-0.264322917,1,0,0,2.004465,scale,,,,,,0.2468,0.2,0.302267034,0.244948974,stimuli/lakes/404044_left.png,stimuli/lakes/404044_right.png,,,space,0,66,66,44,1,3.99472,,,,
,,,,,,$7039780129,2020-07-13_19h37.14.408,fisher_task,2020.1.3,Win32,60,-0.067708333,-0.25,1,0,0,3.04974,scale,,,,,,0.174513954,0.141421356,0.349027907,0.282842712,stimuli/lakes/2090120_left.png,stimuli/lakes/2090120_right.png,,,,0,67,67,120,1,,,,,
,,,,,,$7039780129,2020-07-13_19h37.14.408,fisher_task,2020.1.3,Win32,60,-0.009114583,-0.243489583,1,0,0,3.3149,scale,,,,,,0.2468,0.2,0.302267034,0.244948974,stimuli/lakes/4090123_left.png,stimuli/lakes/4090123_right.png,,,,0,68,68,123,1,,,,,
,,,,,,$7039780129,2020-07-13_19h37.14.408,fisher_task,2020.1.3,Win32,60,-0.076822917,-0.25,1,0,0,2.10561,scale,,,,,,0.21373507,0.173205081,0.326485712,0.264575131,stimuli/lakes/3090122_left.png,stimuli/lakes/3090122_right.png,,,,0,69,69,122,1,,,,,
,,,,,,$7039780129,2020-07-13_19h37.14.408,fisher_task,2020.1.3,Win32,60,-0.139322917,-0.2890625,1,0,0,3.21544,scale,,,,,,0.302267034,0.244948974,0.2468,0.2,stimuli/lakes/605066_left.png,stimuli/lakes/605066_right.png,,,,0,70,70,66,1,,,,,
,,,,,,$7039780129,2020-07-13_19h37.14.408,fisher_task,2020.1.3,Win32,60,-0.166666667,-0.328125,1,0,0,3.033345,scale,,,,,,0.349027907,0.282842712,0.174513954,0.141421356,stimuli/lakes/806078_left.png,stimuli/lakes/806078_right.png,,,,0,71,71,78,1,,,,,
,,,,,,$7039780129,2020-07-13_19h37.14.408,fisher_task,2020.1.3,Win32,60,-0.052083333,-0.240885417,1,0,0,2.93311,scale,,,,,,0.349027907,0.282842712,0.174513954,0.141421356,stimuli/lakes/802021_left.png,stimuli/lakes/802021_right.png,,,,0,72,72,21,1,,,,,
,,,,,,$7039780129,2020-07-13_19h37.14.408,fisher_task,2020.1.3,Win32,60,0.135416667,-0.290364583,1,0,0,3.16702,scale,,,,,,0.2468,0.2,0.302267034,0.244948974,stimuli/lakes/404053_left.png,stimuli/lakes/404053_right.png,,,,0,73,73,53,1,,,,,
,,,,,,$7039780129,2020-07-13_19h37.14.408,fisher_task,2020.1.3,Win32,60,-0.095052083,-0.251302083,1,0,0,3.19939,scale,,,,,,0.2468,0.2,0.302267034,0.244948974,stimuli/lakes/4090124_left.png,stimuli/lakes/4090124_right.png,,,,0,74,74,124,1,,,,,
,,,,,,$7039780129,2020-07-13_19h37.14.408,fisher_task,2020.1.3,Win32,60,-0.005208333,-0.240885417,1,0,0,2.68521,scale,,,,,,0.326485712,0.264575131,0.21373507,0.173205081,stimuli/lakes/703029_left.png,stimuli/lakes/703029_right.png,,,,0,75,75,29,1,,,,,
,,,,,,$7039780129,2020-07-13_19h37.14.408,fisher_task,2020.1.3,Win32,60,-0.154947917,-0.313802083,1,0,0,2.71701,scale,,,,,,0.3702,0.3,0.1234,0.1,stimuli/lakes/906088_left.png,stimuli/lakes/906088_right.png,,,,0,76,76,88,1,,,,,
,,,,,,$7039780129,2020-07-13_19h37.14.408,fisher_task,2020.1.3,Win32,60,-0.095052083,-0.256510417,1,0,0,3.000155,scale,,,,,,0.326485712,0.264575131,0.21373507,0.173205081,stimuli/lakes/704047_left.png,stimuli/lakes/704047_right.png,,,,0,77,77,47,1,,,,,
,,,,,,$7039780129,2020-07-13_19h37.14.408,fisher_task,2020.1.3,Win32,60,0.109375,-0.264322917,1,0,0,3.281785,scale,,,,,,0.302267034,0.244948974,0.2468,0.2,stimuli/lakes/602018_left.png,stimuli/lakes/602018_right.png,,,,0,78,78,18,1,,,,,
,,,,,,$7039780129,2020-07-13_19h37.14.408,fisher_task,2020.1.3,Win32,60,-0.151041667,-0.294270833,1,0,0,3.21524,scale,,,,,,0.302267034,0.244948974,0.2468,0.2,stimuli/lakes/606076_left.png,stimuli/lakes/606076_right.png,,,,0,79,79,76,1,,,,,
,,,,,,$7039780129,2020-07-13_19h37.14.408,fisher_task,2020.1.3,Win32,60,0.104166667,-0.26171875,1,0,0,2.40375,scale,,,,,,0.275930788,0.223606798,0.275930788,0.223606798,stimuli/lakes/502016_left.png,stimuli/lakes/502016_right.png,,,,0,80,80,16,1,,,,,
,,,,,,$7039780129,2020-07-13_19h37.14.408,fisher_task,2020.1.3,Win32,60,-0.14453125,-0.2890625,1,0,0,2.17181,scale,,,,,,0.302267034,0.244948974,0.2468,0.2,stimuli/lakes/6090126_left.png,stimuli/lakes/6090126_right.png,,,,0,81,81,126,1,,,,,
,,,,,,$7039780129,2020-07-13_19h37.14.408,fisher_task,2020.1.3,Win32,60,0.001302083,-0.2421875,1,0,0,4.02605,scale,,,,,,0.21373507,0.173205081,0.326485712,0.264575131,stimuli/lakes/3080110_left.png,stimuli/lakes/3080110_right.png,,,,0,82,82,110,1,,,,,
,,,,,,$7039780129,2020-07-13_19h37.14.408,fisher_task,2020.1.3,Win32,60,-0.126302083,-0.270833333,1,0,0,2.9339,scale,,,,,,0.326485712,0.264575131,0.21373507,0.173205081,stimuli/lakes/704056_left.png,stimuli/lakes/704056_right.png,,,,0,83,83,56,1,,,,,
,,,,,,$7039780129,2020-07-13_19h37.14.408,fisher_task,2020.1.3,Win32,60,0.162760417,-0.342447917,1,0,0,1.773655,scale,,,,,,0.21373507,0.173205081,0.326485712,0.264575131,stimuli/lakes/302012_left.png,stimuli/lakes/302012_right.png,,,,0,84,84,12,1,,,,,
,,,,,,$7039780129,2020-07-13_19h37.14.408,fisher_task,2020.1.3,Win32,60,0.177083333,-0.399739583,1,0,0,1.59118,scale,,,,,,0.21373507,0.173205081,0.326485712,0.264575131,stimuli/lakes/30101_left.png,stimuli/lakes/30101_right.png,,,,0,85,85,1,1,,,,,
,,,,,,$7039780129,2020-07-13_19h37.14.408,fisher_task,2020.1.3,Win32,60,-0.145833333,-0.299479167,1,0,0,2.02263,scale,,,,,,0.349027907,0.282842712,0.174513954,0.141421356,stimuli/lakes/806087_left.png,stimuli/lakes/806087_right.png,,,,0,86,86,87,1,,,,,
,,,,,,$7039780129,2020-07-13_19h37.14.408,fisher_task,2020.1.3,Win32,60,0.157552083,-0.319010417,1,0,0,2.76641,scale,,,,,,0.174513954,0.141421356,0.349027907,0.282842712,stimuli/lakes/205060_left.png,stimuli/lakes/205060_right.png,,,,0,87,87,60,1,,,,,
,,,,,,$7039780129,2020-07-13_19h37.14.408,fisher_task,2020.1.3,Win32,60,-0.09375,-0.251302083,1,0,0,3.912185,scale,,,,,,0.3702,0.3,0.1234,0.1,stimuli/lakes/902022_left.png,stimuli/lakes/902022_right.png,,,space,0,88,88,22,1,3.264085,,,,
,,,,,,$7039780129,2020-07-13_19h37.14.408,fisher_task,2020.1.3,Win32,60,-0.102864583,-0.25390625,1,0,0,5.58664,scale,,,,,,0.349027907,0.282842712,0.174513954,0.141421356,stimuli/lakes/804057_left.png,stimuli/lakes/804057_right.png,,,,0,89,89,57,1,,,,,
,,,,,,$7039780129,2020-07-13_19h37.14.408,fisher_task,2020.1.3,Win32,60,0.092447917,-0.24609375,1,0,0,2.766945,scale,,,,,,0.2468,0.2,0.302267034,0.244948974,stimuli/lakes/406083_left.png,stimuli/lakes/406083_right.png,,,,0,90,90,83,1,,,,,
,,,,,,$7039780129,2020-07-13_19h37.14.408,fisher_task,2020.1.3,Win32,60,0.080729167,-0.247395833,1,0,0,2.121675,scale,,,,,,0.174513954,0.141421356,0.349027907,0.282842712,stimuli/lakes/207090_left.png,stimuli/lakes/207090_right.png,,,,0,91,91,90,1,,,,,
,,,,,,$7039780129,2020-07-13_19h37.14.408,fisher_task,2020.1.3,Win32,60,-0.134114583,-0.27734375,1,0,0,5.503865,scale,,,,,,0.302267034,0.244948974,0.2468,0.2,stimuli/lakes/607094_left.png,stimuli/lakes/607094_right.png,,,,0,92,92,94,1,,,,,
,,,,,,$7039780129,2020-07-13_19h37.14.408,fisher_task,2020.1.3,Win32,60,-0.098958333,-0.25,1,0,0,2.46876,scale,,,,,,0.302267034,0.244948974,0.2468,0.2,stimuli/lakes/604046_left.png,stimuli/lakes/604046_right.png,,,,0,93,93,46,1,,,,,
,,,,,,$7039780129,2020-07-13_19h37.14.408,fisher_task,2020.1.3,Win32,60,0.134114583,-0.291666667,1,0,0,2.78425,scale,,,,,,0.21373507,0.173205081,0.326485712,0.264575131,stimuli/lakes/305061_left.png,stimuli/lakes/305061_right.png,,,,0,94,94,61,1,,,,,
,,,,,,$7039780129,2020-07-13_19h37.14.408,fisher_task,2020.1.3,Win32,60,0.0078125,-0.25,1,0,0,3.398085,scale,,,,,,0.21373507,0.173205081,0.326485712,0.264575131,stimuli/lakes/307091_left.png,stimuli/lakes/307091_right.png,,,,0,95,95,91,1,,,,,
,,,,,,$7039780129,2020-07-13_19h37.14.408,fisher_task,2020.1.3,Win32,60,0.1640625,-0.313802083,1,0,0,7.442085,scale,,,,,,0.1234,0.1,0.3702,0.3,stimuli/lakes/104050_left.png,stimuli/lakes/104050_right.png,,,,0,96,96,50,1,,,,,
,,,,,,$7039780129,2020-07-13_19h37.14.408,fisher_task,2020.1.3,Win32,60,-0.00390625,-0.256510417,1,0,0,1.95652,scale,,,,,,0.2468,0.2,0.302267034,0.244948974,stimuli/lakes/4080111_left.png,stimuli/lakes/4080111_right.png,,,,0,97,97,111,1,,,,,
,,,,,,$7039780129,2020-07-13_19h37.14.408,fisher_task,2020.1.3,Win32,60,-0.104166667,-0.251302083,1,0,0,3.396925,scale,,,,,,0.3702,0.3,0.1234,0.1,stimuli/lakes/903040_left.png,stimuli/lakes/903040_right.png,,,,0,98,98,40,1,,,,,
,,,,,,$7039780129,2020-07-13_19h37.14.408,fisher_task,2020.1.3,Win32,60,-0.15234375,-0.299479167,1,0,0,3.59649,scale,,,,,,0.326485712,0.264575131,0.21373507,0.173205081,stimuli/lakes/705068_left.png,stimuli/lakes/705068_right.png,,,,0,99,99,68,1,,,,,
,,,,,,$7039780129,2020-07-13_19h37.14.408,fisher_task,2020.1.3,Win32,60,0.141927083,-0.283854167,1,0,0,5.519535,scale,,,,,,0.302267034,0.244948974,0.2468,0.2,stimuli/lakes/60106_left.png,stimuli/lakes/60106_right.png,,,,0,100,100,6,1,,,,,
,,,,,,$7039780129,2020-07-13_19h37.14.408,fisher_task,2020.1.3,Win32,60,-0.178385417,-0.377604167,1,0,0,3.28309,scale,,,,,,0.3702,0.3,0.1234,0.1,stimuli/lakes/907097_left.png,stimuli/lakes/907097_right.png,,,,0,101,101,97,1,,,,,
,,,,,,$7039780129,2020-07-13_19h37.14.408,fisher_task,2020.1.3,Win32,60,-0.036458333,-0.234375,1,0,0,3.99548,scale,,,,,,0.2468,0.2,0.302267034,0.244948974,stimuli/lakes/4080112_left.png,stimuli/lakes/4080112_right.png,,,,0,102,102,112,1,,,,,
,,,,,,$7039780129,2020-07-13_19h37.14.408,fisher_task,2020.1.3,Win32,60,0.162760417,-0.322916667,1,0,0,3.297645,scale,,,,,,0.174513954,0.141421356,0.349027907,0.282842712,stimuli/lakes/204051_left.png,stimuli/lakes/204051_right.png,,,,0,103,103,51,1,,,,,
,,,,,,$7039780129,2020-07-13_19h37.14.408,fisher_task,2020.1.3,Win32,60,-0.096354167,-0.25,1,0,0,5.95059,scale,,,,,,0.1234,0.1,0.3702,0.3,stimuli/lakes/1090119_left.png,stimuli/lakes/1090119_right.png,,,,0,104,104,119,1,,,,,
,,,,,,$7039780129,2020-07-13_19h37.14.408,fisher_task,2020.1.3,Win32,60,0.0546875,-0.229166667,1,0,0,5.501845,scale,,,,,,0.302267034,0.244948974,0.2468,0.2,stimuli/lakes/603037_left.png,stimuli/lakes/603037_right.png,,,,0,105,105,37,1,,,,,
,,,,,,$7039780129,2020-07-13_19h37.14.408,fisher_task,2020.1.3,Win32,60,0.045572917,-0.2421875,1,0,0,3.381515,scale,,,,,,0.21373507,0.173205081,0.326485712,0.264575131,stimuli/lakes/3080109_left.png,stimuli/lakes/3080109_right.png,,,,0,106,106,109,1,,,,,
,,,,,,$7039780129,2020-07-13_19h37.14.408,fisher_task,2020.1.3,Win32,60,0.123697917,-0.266927083,1,0,0,3.89425,scale,,,,,,0.2468,0.2,0.302267034,0.244948974,stimuli/lakes/40103_left.png,stimuli/lakes/40103_right.png,,,,0,107,107,3,1,,,,,
,,,,,,$7039780129,2020-07-13_19h37.14.408,fisher_task,2020.1.3,Win32,60,-0.126302083,-0.270833333,1,0,0,5.07305,scale,,,,,,0.275930788,0.223606798,0.275930788,0.223606798,stimuli/lakes/5070102_left.png,stimuli/lakes/5070102_right.png,,,,0,108,108,102,1,,,,,
,,,,,,$7039780129,2020-07-13_19h37.14.408,fisher_task,2020.1.3,Win32,60,-0.170572917,-0.3359375,1,0,0,5.585825,scale,,,,,,0.3702,0.3,0.1234,0.1,stimuli/lakes/905070_left.png,stimuli/lakes/905070_right.png,,,,0,109,109,70,1,,,,,
,,,,,,$7039780129,2020-07-13_19h37.14.408,fisher_task,2020.1.3,Win32,60,0.125,-0.27734375,1,0,0,1.95611,scale,,,,,,0.21373507,0.173205081,0.326485712,0.264575131,stimuli/lakes/303025_left.png,stimuli/lakes/303025_right.png,,,space,0,110,110,25,1,15.15376,,,,
,,,,,,$7039780129,2020-07-13_19h37.14.408,fisher_task,2020.1.3,Win32,60,0.16796875,-0.34375,1,0,0,2.50235,scale,,,,,,0.21373507,0.173205081,0.326485712,0.264575131,stimuli/lakes/302013_left.png,stimuli/lakes/302013_right.png,,,,0,111,111,13,1,,,,,
,,,,,,$7039780129,2020-07-13_19h37.14.408,fisher_task,2020.1.3,Win32,60,-0.141927083,-0.287760417,1,0,0,2.984175,scale,,,,,,0.275930788,0.223606798,0.275930788,0.223606798,stimuli/lakes/506075_left.png,stimuli/lakes/506075_right.png,,,,0,112,112,75,1,,,,,
,,,,,,$7039780129,2020-07-13_19h37.14.408,fisher_task,2020.1.3,Win32,60,-0.1171875,-0.264322917,1,0,0,2.41911,scale,,,,,,0.3702,0.3,0.1234,0.1,stimuli/lakes/904058_left.png,stimuli/lakes/904058_right.png,,,,0,113,113,58,1,,,,,
,,,,,,$7039780129,2020-07-13_19h37.14.408,fisher_task,2020.1.3,Win32,60,-0.130208333,-0.274739583,1,0,0,2.337325,scale,,,,,,0.302267034,0.244948974,0.2468,0.2,stimuli/lakes/605065_left.png,stimuli/lakes/605065_right.png,,,,0,114,114,65,1,,,,,
,,,,,,$7039780129,2020-07-13_19h37.14.408,fisher_task,2020.1.3,Win32,60,-0.182291667,-0.377604167,1,0,0,2.32006,scale,,,,,,0.349027907,0.282842712,0.174513954,0.141421356,stimuli/lakes/8070105_left.png,stimuli/lakes/8070105_right.png,,,,0,115,115,105,1,,,,,
,,,,,,$7039780129,2020-07-13_19h37.14.408,fisher_task,2020.1.3,Win32,60,-0.177083333,-0.389322917,1,0,0,2.568825,scale,,,,,,0.326485712,0.264575131,0.21373507,0.173205081,stimuli/lakes/706077_left.png,stimuli/lakes/706077_right.png,,,,0,116,116,77,1,,,,,
,,,,,,$7039780129,2020-07-13_19h37.14.408,fisher_task,2020.1.3,Win32,60,0.171875,-0.423177083,1,0,0,2.8183,scale,,,,,,0.1234,0.1,0.3702,0.3,stimuli/lakes/103032_left.png,stimuli/lakes/103032_right.png,,,,0,117,117,32,1,,,,,
,,,,,,$7039780129,2020-07-13_19h37.14.408,fisher_task,2020.1.3,Win32,60,-0.072916667,-0.235677083,1,0,0,3.016025,scale,,,,,,0.3702,0.3,0.1234,0.1,stimuli/lakes/903031_left.png,stimuli/lakes/903031_right.png,,,,0,118,118,31,1,,,,,
,,,,,,$7039780129,2020-07-13_19h37.14.408,fisher_task,2020.1.3,Win32,60,0.0625,-0.23828125,1,0,0,5.487815,scale,,,,,,0.3702,0.3,0.1234,0.1,stimuli/lakes/901010_left.png,stimuli/lakes/901010_right.png,,,,0,119,119,10,1,,,,,
,,,,,,$7039780129,2020-07-13_19h37.14.408,fisher_task,2020.1.3,Win32,60,-0.1171875,-0.263020833,1,0,0,5.635725,scale,,,,,,0.275930788,0.223606798,0.275930788,0.223606798,stimuli/lakes/506084_left.png,stimuli/lakes/506084_right.png,,,,0,120,120,84,1,,,,,
,,,,,,$7039780129,2020-07-13_19h37.14.408,fisher_task,2020.1.3,Win32,60,0.135416667,-0.287760417,1,0,0,6.562945,scale,,,,,,0.174513954,0.141421356,0.349027907,0.282842712,stimuli/lakes/203033_left.png,stimuli/lakes/203033_right.png,,,,0,121,121,33,1,,,,,
,,,,,,$7039780129,2020-07-13_19h37.14.408,fisher_task,2020.1.3,Win32,60,0.15625,-0.317708333,1,0,0,3.480975,scale,,,,,,0.174513954,0.141421356,0.349027907,0.282842712,stimuli/lakes/203024_left.png,stimuli/lakes/203024_right.png,,,,0,122,122,24,1,,,,,
,,,,,,$7039780129,2020-07-13_19h37.14.408,fisher_task,2020.1.3,Win32,60,-0.170572917,-0.33984375,1,0,0,2.170885,scale,,,,,,0.302267034,0.244948974,0.2468,0.2,stimuli/lakes/6080114_left.png,stimuli/lakes/6080114_right.png,,,,0,123,123,114,1,,,,,
,,,,,,$7039780129,2020-07-13_19h37.14.408,fisher_task,2020.1.3,Win32,60,-0.17578125,-0.354166667,1,0,0,2.303785,scale,,,,,,0.302267034,0.244948974,0.2468,0.2,stimuli/lakes/606085_left.png,stimuli/lakes/606085_right.png,,,,0,124,124,85,1,,,,,
,,,,,,$7039780129,2020-07-13_19h37.14.408,fisher_task,2020.1.3,Win32,60,-0.001302083,-0.256510417,1,0,0,7.193905,scale,,,,,,0.2468,0.2,0.302267034,0.244948974,stimuli/lakes/405063_left.png,stimuli/lakes/405063_right.png,,,,0,125,125,63,1,,,,,
,,,,,,$7039780129,2020-07-13_19h37.14.408,fisher_task,2020.1.3,Win32,60,-0.110677083,-0.260416667,1,0,0,4.706865,scale,,,,,,0.21373507,0.173205081,0.326485712,0.264575131,stimuli/lakes/3090121_left.png,stimuli/lakes/3090121_right.png,,,,0,126,126,121,1,,,,,
,,,,,,$7039780129,2020-07-13_19h37.14.408,fisher_task,2020.1.3,Win32,60,0.131510417,-0.290364583,1,0,0,2.17264,scale,,,,,,0.21373507,0.173205081,0.326485712,0.264575131,stimuli/lakes/303034_left.png,stimuli/lakes/303034_right.png,,,,0,127,127,34,1,,,,,
,,,,,,$7039780129,2020-07-13_19h37.14.408,fisher_task,2020.1.3,Win32,60,-0.126302083,-0.27734375,1,0,0,2.61946,scale,,,,,,0.275930788,0.223606798,0.275930788,0.223606798,stimuli/lakes/5080113_left.png,stimuli/lakes/5080113_right.png,,,,0,128,128,113,1,,,,,
,,,,,,$7039780129,2020-07-13_19h37.14.408,fisher_task,2020.1.3,Win32,60,0.108072917,-0.27734375,1,0,0,4.45753,scale,,,,,,0.21373507,0.173205081,0.326485712,0.264575131,stimuli/lakes/306082_left.png,stimuli/lakes/306082_right.png,,,,0,129,129,82,1,,,,,
,,,,,,$7039780129,2020-07-13_19h37.14.408,fisher_task,2020.1.3,Win32,60,,,,,,,,,,,,,,,,,,,,,,,,,,,,space,21.364695,space,54.845085
