keySpace.keys,keySpace.rt,instructions.thisRepN,instructions.thisTrialN,instructions.thisN,instructions.thisIndex,instructions.ran,participant,date,expName,psychopyVersion,OS,frameRate,mouse.x,mouse.y,mouse.leftButton,mouse.midButton,mouse.rightButton,mouse.time,mouse.clicked_name,training.thisRepN,training.thisTrialN,training.thisN,training.thisIndex,training.ran,widthBasketLeft,heightBasketLeft,widthBasketRight,heightBasketRight,leftLake,rightLake,space2.keys,space2.rt,space1.keys,trials.thisRepN,trials.thisTrialN,trials.thisN,trials.thisIndex,trials.ran,space1.rt,finalSpace1.keys,finalSpace1.rt,finalSpace2.keys,finalSpace2.rt
space,13.839,0,0,0,0,1,$4513741381,2020-07-14_12h38.18.585,fisher_task,2020.1.3,Win32,60,,,,,,,,,,,,,,,,,,,,,,,,,,,,,,,
,,1,0,1,0,1,$4513741381,2020-07-14_12h38.18.585,fisher_task,2020.1.3,Win32,60,,,,,,,,,,,,,,,,,,,,,,,,,,,,,,,
,,,,,,,$4513741381,2020-07-14_12h38.18.585,fisher_task,2020.1.3,Win32,60,0.186419753,-0.433333333,1,0,0,5.815,scale,0,0,0,0,1,0.275930788,0.223606798,0.275930788,0.223606798,stimuli/training/20_left.png,stimuli/training/20_right.png,,,,,,,,,,,,,
,,,,,,,$4513741381,2020-07-14_12h38.18.585,fisher_task,2020.1.3,Win32,60,-0.164197531,-0.430864198,1,0,0,6.68,scale,0,1,1,1,1,0.275930788,0.223606798,0.275930788,0.223606798,stimuli/training/80_left.png,stimuli/training/80_right.png,,,,,,,,,,,,,
,,,,,,,$4513741381,2020-07-14_12h38.18.585,fisher_task,2020.1.3,Win32,60,0.160493827,-0.428395062,1,0,0,4.692,scale,0,2,2,2,1,0.174513954,0.141421356,0.349027907,0.282842712,stimuli/training/50_left.png,stimuli/training/50_right.png,,,,,,,,,,,,,
,,,,,,,$4513741381,2020-07-14_12h38.18.585,fisher_task,2020.1.3,Win32,60,-0.127160494,-0.328395062,1,0,0,9.34,scale,0,3,3,3,1,0.349027907,0.282842712,0.174513954,0.141421356,stimuli/training/50_left.png,stimuli/training/50_right.png,,,,,,,,,,,,,
,,,,,,,$4513741381,2020-07-14_12h38.18.585,fisher_task,2020.1.3,Win32,60,0.00617284,-0.248148148,1,0,0,5.131,scale,0,4,4,4,1,0.275930788,0.223606798,0.275930788,0.223606798,stimuli/training/50_left.png,stimuli/training/50_right.png,,,,,,,,,,,,,
,,,,,,,$4513741381,2020-07-14_12h38.18.585,fisher_task,2020.1.3,Win32,60,0.154320988,-0.428395062,1,0,0,3.655,scale,0,5,5,5,1,0.174513954,0.141421356,0.349027907,0.282842712,stimuli/training/20_left.png,stimuli/training/20_right.png,,,,,,,,,,,,,
,,,,,,,$4513741381,2020-07-14_12h38.18.585,fisher_task,2020.1.3,Win32,60,-0.140740741,-0.435802469,1,0,0,3.05,scale,0,6,6,6,1,0.349027907,0.282842712,0.174513954,0.141421356,stimuli/training/80_left.png,stimuli/training/80_right.png,,,,,,,,,,,,,
,,,,,,,$4513741381,2020-07-14_12h38.18.585,fisher_task,2020.1.3,Win32,60,0.159259259,-0.432098765,1,0,0,3.449,scale,0,7,7,7,1,0.1234,0.1,0.3702,0.3,stimuli/training/30_left.png,stimuli/training/30_right.png,,,,,,,,,,,,,
,,,,,,,$4513741381,2020-07-14_12h38.18.585,fisher_task,2020.1.3,Win32,60,-0.143209877,-0.433333333,1,0,0,2.958,scale,0,8,8,8,1,0.3702,0.3,0.1234,0.1,stimuli/training/70_left.png,stimuli/training/70_right.png,,,,,,,,,,,,,
,,,,,,,$4513741381,2020-07-14_12h38.18.585,fisher_task,2020.1.3,Win32,60,-0.143209877,-0.434567901,1,0,0,1.839,scale,0,9,9,9,1,0.326485712,0.264575131,0.21373507,0.173205081,stimuli/training/90_left.png,stimuli/training/90_right.png,,,,,,,,,,,,,
,,,,,,,$4513741381,2020-07-14_12h38.18.585,fisher_task,2020.1.3,Win32,60,0.128395062,-0.438271605,1,0,0,2.085,scale,0,10,10,10,1,0.21373507,0.173205081,0.326485712,0.264575131,stimuli/training/10_left.png,stimuli/training/10_right.png,,,,,,,,,,,,,
,,,,,,,$4513741381,2020-07-14_12h38.18.585,fisher_task,2020.1.3,Win32,60,0.135802469,-0.359259259,1,0,0,5.505,scale,,,,,,0.1234,0.1,0.3702,0.3,stimuli/lakes/105059_left.png,stimuli/lakes/105059_right.png,space,13.471,,0,0,0,59,1,,,,,
,,,,,,,$4513741381,2020-07-14_12h38.18.585,fisher_task,2020.1.3,Win32,60,-0.15308642,-0.422222222,1,0,0,4.711,scale,,,,,,0.326485712,0.264575131,0.21373507,0.173205081,stimuli/lakes/706086_left.png,stimuli/lakes/706086_right.png,,,,0,1,1,86,1,,,,,
,,,,,,,$4513741381,2020-07-14_12h38.18.585,fisher_task,2020.1.3,Win32,60,0.1,-0.296296296,1,0,0,5.174,scale,,,,,,0.275930788,0.223606798,0.275930788,0.223606798,stimuli/lakes/503027_left.png,stimuli/lakes/503027_right.png,,,,0,2,2,27,1,,,,,
,,,,,,,$4513741381,2020-07-14_12h38.18.585,fisher_task,2020.1.3,Win32,60,-0.079012346,-0.271604938,1,0,0,5.802,scale,,,,,,0.349027907,0.282842712,0.174513954,0.141421356,stimuli/lakes/803039_left.png,stimuli/lakes/803039_right.png,,,,0,3,3,39,1,,,,,
,,,,,,,$4513741381,2020-07-14_12h38.18.585,fisher_task,2020.1.3,Win32,60,0.117283951,-0.296296296,1,0,0,3.986,scale,,,,,,0.275930788,0.223606798,0.275930788,0.223606798,stimuli/lakes/504054_left.png,stimuli/lakes/504054_right.png,,,,0,4,4,54,1,,,,,
,,,,,,,$4513741381,2020-07-14_12h38.18.585,fisher_task,2020.1.3,Win32,60,-0.087654321,-0.272839506,1,0,0,9.538,scale,,,,,,0.21373507,0.173205081,0.326485712,0.264575131,stimuli/lakes/305062_left.png,stimuli/lakes/305062_right.png,,,,0,5,5,62,1,,,,,
,,,,,,,$4513741381,2020-07-14_12h38.18.585,fisher_task,2020.1.3,Win32,60,-0.159259259,-0.420987654,1,0,0,2.986,scale,,,,,,0.275930788,0.223606798,0.275930788,0.223606798,stimuli/lakes/5090125_left.png,stimuli/lakes/5090125_right.png,,,,0,6,6,125,1,,,,,
,,,,,,,$4513741381,2020-07-14_12h38.18.585,fisher_task,2020.1.3,Win32,60,0.088888889,-0.288888889,1,0,0,4.022,scale,,,,,,0.2468,0.2,0.302267034,0.244948974,stimuli/lakes/40102_left.png,stimuli/lakes/40102_right.png,,,,0,7,7,2,1,,,,,
,,,,,,,$4513741381,2020-07-14_12h38.18.585,fisher_task,2020.1.3,Win32,60,-0.164197531,-0.425925926,1,0,0,2.919,scale,,,,,,0.302267034,0.244948974,0.2468,0.2,stimuli/lakes/6080115_left.png,stimuli/lakes/6080115_right.png,,,,0,8,8,115,1,,,,,
,,,,,,,$4513741381,2020-07-14_12h38.18.585,fisher_task,2020.1.3,Win32,60,0.150617284,-0.435802469,1,0,0,2.826,scale,,,,,,0.1234,0.1,0.3702,0.3,stimuli/lakes/107089_left.png,stimuli/lakes/107089_right.png,,,,0,9,9,89,1,,,,,
,,,,,,,$4513741381,2020-07-14_12h38.18.585,fisher_task,2020.1.3,Win32,60,0.149382716,-0.397530864,1,0,0,3.29,scale,,,,,,0.174513954,0.141421356,0.349027907,0.282842712,stimuli/lakes/206072_left.png,stimuli/lakes/206072_right.png,,,,0,10,10,72,1,,,,,
,,,,,,,$4513741381,2020-07-14_12h38.18.585,fisher_task,2020.1.3,Win32,60,0.149382716,-0.397530864,1,0,0,1.492,scale,,,,,,0.21373507,0.173205081,0.326485712,0.264575131,stimuli/lakes/302013_left.png,stimuli/lakes/302013_right.png,,,,0,11,11,13,1,,,,,
,,,,,,,$4513741381,2020-07-14_12h38.18.585,fisher_task,2020.1.3,Win32,60,-0.149382716,-0.355555556,1,0,0,4.706,scale,,,,,,0.302267034,0.244948974,0.2468,0.2,stimuli/lakes/6070103_left.png,stimuli/lakes/6070103_right.png,,,,0,12,12,103,1,,,,,
,,,,,,,$4513741381,2020-07-14_12h38.18.585,fisher_task,2020.1.3,Win32,60,0.002469136,-0.250617284,1,0,0,3.862,scale,,,,,,0.275930788,0.223606798,0.275930788,0.223606798,stimuli/lakes/506084_left.png,stimuli/lakes/506084_right.png,,,,0,13,13,84,1,,,,,
,,,,,,,$4513741381,2020-07-14_12h38.18.585,fisher_task,2020.1.3,Win32,60,0.091358025,-0.27037037,1,0,0,6.908,scale,,,,,,0.326485712,0.264575131,0.21373507,0.173205081,stimuli/lakes/70108_left.png,stimuli/lakes/70108_right.png,,,,0,14,14,8,1,,,,,
,,,,,,,$4513741381,2020-07-14_12h38.18.585,fisher_task,2020.1.3,Win32,60,-0.066666667,-0.265432099,1,0,0,3.568,scale,,,,,,0.2468,0.2,0.302267034,0.244948974,stimuli/lakes/4080111_left.png,stimuli/lakes/4080111_right.png,,,,0,15,15,111,1,,,,,
,,,,,,,$4513741381,2020-07-14_12h38.18.585,fisher_task,2020.1.3,Win32,60,0.145679012,-0.340740741,1,0,0,4.007,scale,,,,,,0.2468,0.2,0.302267034,0.244948974,stimuli/lakes/403035_left.png,stimuli/lakes/403035_right.png,,,,0,16,16,35,1,,,,,
,,,,,,,$4513741381,2020-07-14_12h38.18.585,fisher_task,2020.1.3,Win32,60,0.166666667,-0.403703704,1,0,0,2.824,scale,,,,,,0.174513954,0.141421356,0.349027907,0.282842712,stimuli/lakes/203024_left.png,stimuli/lakes/203024_right.png,,,,0,17,17,24,1,,,,,
,,,,,,,$4513741381,2020-07-14_12h38.18.585,fisher_task,2020.1.3,Win32,60,0.149382716,-0.361728395,1,0,0,1.759,scale,,,,,,0.21373507,0.173205081,0.326485712,0.264575131,stimuli/lakes/303034_left.png,stimuli/lakes/303034_right.png,,,,0,18,18,34,1,,,,,
,,,,,,,$4513741381,2020-07-14_12h38.18.585,fisher_task,2020.1.3,Win32,60,-0.148148148,-0.395061728,1,0,0,2.496,scale,,,,,,0.349027907,0.282842712,0.174513954,0.141421356,stimuli/lakes/802021_left.png,stimuli/lakes/802021_right.png,,,,0,19,19,21,1,,,,,
,,,,,,,$4513741381,2020-07-14_12h38.18.585,fisher_task,2020.1.3,Win32,60,0.17037037,-0.419753086,1,0,0,2.882,scale,,,,,,0.2468,0.2,0.302267034,0.244948974,stimuli/lakes/40103_left.png,stimuli/lakes/40103_right.png,,,,0,20,20,3,1,,,,,
,,,,,,,$4513741381,2020-07-14_12h38.18.585,fisher_task,2020.1.3,Win32,60,-0.160493827,-0.396296296,1,0,0,3.235,scale,,,,,,0.326485712,0.264575131,0.21373507,0.173205081,stimuli/lakes/706077_left.png,stimuli/lakes/706077_right.png,,,,0,21,21,77,1,,,,,
,,,,,,,$4513741381,2020-07-14_12h38.18.585,fisher_task,2020.1.3,Win32,60,-0.149382716,-0.358024691,1,0,0,3.508,scale,,,,,,0.302267034,0.244948974,0.2468,0.2,stimuli/lakes/605065_left.png,stimuli/lakes/605065_right.png,,,space,0,22,22,65,1,8.813,,,,
,,,,,,,$4513741381,2020-07-14_12h38.18.585,fisher_task,2020.1.3,Win32,60,-0.138271605,-0.333333333,1,0,0,2.058,scale,,,,,,0.326485712,0.264575131,0.21373507,0.173205081,stimuli/lakes/705068_left.png,stimuli/lakes/705068_right.png,,,,0,23,23,68,1,,,,,
,,,,,,,$4513741381,2020-07-14_12h38.18.585,fisher_task,2020.1.3,Win32,60,-0.166666667,-0.416049383,1,0,0,3.209,scale,,,,,,0.3702,0.3,0.1234,0.1,stimuli/lakes/907097_left.png,stimuli/lakes/907097_right.png,,,,0,24,24,97,1,,,,,
,,,,,,,$4513741381,2020-07-14_12h38.18.585,fisher_task,2020.1.3,Win32,60,-0.171604938,-0.422222222,1,0,0,2.101,scale,,,,,,0.3702,0.3,0.1234,0.1,stimuli/lakes/903040_left.png,stimuli/lakes/903040_right.png,,,,0,25,25,40,1,,,,,
,,,,,,,$4513741381,2020-07-14_12h38.18.585,fisher_task,2020.1.3,Win32,60,-0.1,-0.285185185,1,0,0,3.432,scale,,,,,,0.326485712,0.264575131,0.21373507,0.173205081,stimuli/lakes/702020_left.png,stimuli/lakes/702020_right.png,,,,0,26,26,20,1,,,,,
,,,,,,,$4513741381,2020-07-14_12h38.18.585,fisher_task,2020.1.3,Win32,60,0.104938272,-0.308641975,1,0,0,3.255,scale,,,,,,0.21373507,0.173205081,0.326485712,0.264575131,stimuli/lakes/3090121_left.png,stimuli/lakes/3090121_right.png,,,,0,27,27,121,1,,,,,
,,,,,,,$4513741381,2020-07-14_12h38.18.585,fisher_task,2020.1.3,Win32,60,0.161728395,-0.427160494,1,0,0,1.71,scale,,,,,,0.1234,0.1,0.3702,0.3,stimuli/lakes/107098_left.png,stimuli/lakes/107098_right.png,,,,0,28,28,98,1,,,,,
,,,,,,,$4513741381,2020-07-14_12h38.18.585,fisher_task,2020.1.3,Win32,60,-0.067901235,-0.267901235,1,0,0,2.681,scale,,,,,,0.302267034,0.244948974,0.2468,0.2,stimuli/lakes/60105_left.png,stimuli/lakes/60105_right.png,,,,0,29,29,5,1,,,,,
,,,,,,,$4513741381,2020-07-14_12h38.18.585,fisher_task,2020.1.3,Win32,60,0.154320988,-0.386419753,1,0,0,2.803,scale,,,,,,0.174513954,0.141421356,0.349027907,0.282842712,stimuli/lakes/204051_left.png,stimuli/lakes/204051_right.png,,,,0,30,30,51,1,,,,,
,,,,,,,$4513741381,2020-07-14_12h38.18.585,fisher_task,2020.1.3,Win32,60,-0.12345679,-0.332098765,1,0,0,2.492,scale,,,,,,0.302267034,0.244948974,0.2468,0.2,stimuli/lakes/603028_left.png,stimuli/lakes/603028_right.png,,,,0,31,31,28,1,,,,,
,,,,,,,$4513741381,2020-07-14_12h38.18.585,fisher_task,2020.1.3,Win32,60,-0.102469136,-0.302469136,1,0,0,3.254,scale,,,,,,0.349027907,0.282842712,0.174513954,0.141421356,stimuli/lakes/80109_left.png,stimuli/lakes/80109_right.png,,,,0,32,32,9,1,,,,,
,,,,,,,$4513741381,2020-07-14_12h38.18.585,fisher_task,2020.1.3,Win32,60,-0.122222222,-0.32345679,1,0,0,1.824,scale,,,,,,0.326485712,0.264575131,0.21373507,0.173205081,stimuli/lakes/7080117_left.png,stimuli/lakes/7080117_right.png,,,,0,33,33,117,1,,,,,
,,,,,,,$4513741381,2020-07-14_12h38.18.585,fisher_task,2020.1.3,Win32,60,-0.154320988,-0.409876543,1,0,0,2.256,scale,,,,,,0.349027907,0.282842712,0.174513954,0.141421356,stimuli/lakes/8080118_left.png,stimuli/lakes/8080118_right.png,,,,0,34,34,118,1,,,,,
,,,,,,,$4513741381,2020-07-14_12h38.18.585,fisher_task,2020.1.3,Win32,60,-0.154320988,-0.409876543,1,0,0,1.751,scale,,,,,,0.349027907,0.282842712,0.174513954,0.141421356,stimuli/lakes/806087_left.png,stimuli/lakes/806087_right.png,,,,0,35,35,87,1,,,,,
,,,,,,,$4513741381,2020-07-14_12h38.18.585,fisher_task,2020.1.3,Win32,60,0.164197531,-0.395061728,1,0,0,1.993,scale,,,,,,0.21373507,0.173205081,0.326485712,0.264575131,stimuli/lakes/307091_left.png,stimuli/lakes/307091_right.png,,,,0,36,36,91,1,,,,,
,,,,,,,$4513741381,2020-07-14_12h38.18.585,fisher_task,2020.1.3,Win32,60,-0.141975309,-0.34691358,1,0,0,3.28,scale,,,,,,0.349027907,0.282842712,0.174513954,0.141421356,stimuli/lakes/804048_left.png,stimuli/lakes/804048_right.png,,,,0,37,37,48,1,,,,,
,,,,,,,$4513741381,2020-07-14_12h38.18.585,fisher_task,2020.1.3,Win32,60,-0.151851852,-0.398765432,1,0,0,1.573,scale,,,,,,0.3702,0.3,0.1234,0.1,stimuli/lakes/906079_left.png,stimuli/lakes/906079_right.png,,,,0,38,38,79,1,,,,,
,,,,,,,$4513741381,2020-07-14_12h38.18.585,fisher_task,2020.1.3,Win32,60,-0.160493827,-0.422222222,1,0,0,1.271,scale,,,,,,0.3702,0.3,0.1234,0.1,stimuli/lakes/905070_left.png,stimuli/lakes/905070_right.png,,,,0,39,39,70,1,,,,,
,,,,,,,$4513741381,2020-07-14_12h38.18.585,fisher_task,2020.1.3,Win32,60,-0.013580247,-0.234567901,1,0,0,1.705,scale,,,,,,0.275930788,0.223606798,0.275930788,0.223606798,stimuli/lakes/507093_left.png,stimuli/lakes/507093_right.png,,,,0,40,40,93,1,,,,,
,,,,,,,$4513741381,2020-07-14_12h38.18.585,fisher_task,2020.1.3,Win32,60,0.096296296,-0.292592593,1,0,0,1.733,scale,,,,,,0.21373507,0.173205081,0.326485712,0.264575131,stimuli/lakes/3090122_left.png,stimuli/lakes/3090122_right.png,,,,0,41,41,122,1,,,,,
,,,,,,,$4513741381,2020-07-14_12h38.18.585,fisher_task,2020.1.3,Win32,60,-0.008641975,-0.250617284,1,0,0,1.525,scale,,,,,,0.275930788,0.223606798,0.275930788,0.223606798,stimuli/lakes/5080113_left.png,stimuli/lakes/5080113_right.png,,,,0,42,42,113,1,,,,,
,,,,,,,$4513741381,2020-07-14_12h38.18.585,fisher_task,2020.1.3,Win32,60,0.098765432,-0.311111111,1,0,0,1.378,scale,,,,,,0.21373507,0.173205081,0.326485712,0.264575131,stimuli/lakes/305061_left.png,stimuli/lakes/305061_right.png,,,,0,43,43,61,1,,,,,
,,,,,,,$4513741381,2020-07-14_12h38.18.585,fisher_task,2020.1.3,Win32,60,0.138271605,-0.343209877,1,0,0,1.956,scale,,,,,,0.21373507,0.173205081,0.326485712,0.264575131,stimuli/lakes/306073_left.png,stimuli/lakes/306073_right.png,,,space,0,44,44,73,1,4.719,,,,
,,,,,,,$4513741381,2020-07-14_12h38.18.585,fisher_task,2020.1.3,Win32,60,0.164197531,-0.386419753,1,0,0,1.302,scale,,,,,,0.1234,0.1,0.3702,0.3,stimuli/lakes/104041_left.png,stimuli/lakes/104041_right.png,,,,0,45,45,41,1,,,,,
,,,,,,,$4513741381,2020-07-14_12h38.18.585,fisher_task,2020.1.3,Win32,60,-0.071604938,-0.266666667,1,0,0,2.357,scale,,,,,,0.302267034,0.244948974,0.2468,0.2,stimuli/lakes/605066_left.png,stimuli/lakes/605066_right.png,,,,0,46,46,66,1,,,,,
,,,,,,,$4513741381,2020-07-14_12h38.18.585,fisher_task,2020.1.3,Win32,60,0.117283951,-0.296296296,1,0,0,1.664,scale,,,,,,0.21373507,0.173205081,0.326485712,0.264575131,stimuli/lakes/303025_left.png,stimuli/lakes/303025_right.png,,,,0,47,47,25,1,,,,,
,,,,,,,$4513741381,2020-07-14_12h38.18.585,fisher_task,2020.1.3,Win32,60,0.077777778,-0.260493827,1,0,0,1.654,scale,,,,,,0.2468,0.2,0.302267034,0.244948974,stimuli/lakes/4090124_left.png,stimuli/lakes/4090124_right.png,,,,0,48,48,124,1,,,,,
,,,,,,,$4513741381,2020-07-14_12h38.18.585,fisher_task,2020.1.3,Win32,60,0.072839506,-0.260493827,1,0,0,1.463,scale,,,,,,0.2468,0.2,0.302267034,0.244948974,stimuli/lakes/404044_left.png,stimuli/lakes/404044_right.png,,,,0,49,49,44,1,,,,,
,,,,,,,$4513741381,2020-07-14_12h38.18.585,fisher_task,2020.1.3,Win32,60,-0.149382716,-0.374074074,1,0,0,1.75,scale,,,,,,0.349027907,0.282842712,0.174513954,0.141421356,stimuli/lakes/807096_left.png,stimuli/lakes/807096_right.png,,,,0,50,50,96,1,,,,,
,,,,,,,$4513741381,2020-07-14_12h38.18.585,fisher_task,2020.1.3,Win32,60,-0.149382716,-0.374074074,1,0,0,0.883,scale,,,,,,0.326485712,0.264575131,0.21373507,0.173205081,stimuli/lakes/703029_left.png,stimuli/lakes/703029_right.png,,,,0,51,51,29,1,,,,,
,,,,,,,$4513741381,2020-07-14_12h38.18.585,fisher_task,2020.1.3,Win32,60,-0.085185185,-0.261728395,1,0,0,1.25,scale,,,,,,0.302267034,0.244948974,0.2468,0.2,stimuli/lakes/6090127_left.png,stimuli/lakes/6090127_right.png,,,,0,52,52,127,1,,,,,
,,,,,,,$4513741381,2020-07-14_12h38.18.585,fisher_task,2020.1.3,Win32,60,0.038271605,-0.250617284,1,0,0,1.873,scale,,,,,,0.2468,0.2,0.302267034,0.244948974,stimuli/lakes/405064_left.png,stimuli/lakes/405064_right.png,,,,0,53,53,64,1,,,,,
,,,,,,,$4513741381,2020-07-14_12h38.18.585,fisher_task,2020.1.3,Win32,60,-0.086419753,-0.280246914,1,0,0,1.247,scale,,,,,,0.326485712,0.264575131,0.21373507,0.173205081,stimuli/lakes/704047_left.png,stimuli/lakes/704047_right.png,,,,0,54,54,47,1,,,,,
,,,,,,,$4513741381,2020-07-14_12h38.18.585,fisher_task,2020.1.3,Win32,60,-0.119753086,-0.308641975,1,0,0,1.415,scale,,,,,,0.3702,0.3,0.1234,0.1,stimuli/lakes/903031_left.png,stimuli/lakes/903031_right.png,,,,0,55,55,31,1,,,,,
,,,,,,,$4513741381,2020-07-14_12h38.18.585,fisher_task,2020.1.3,Win32,60,0.066666667,-0.261728395,1,0,0,1.491,scale,,,,,,0.2468,0.2,0.302267034,0.244948974,stimuli/lakes/404053_left.png,stimuli/lakes/404053_right.png,,,,0,56,56,53,1,,,,,
,,,,,,,$4513741381,2020-07-14_12h38.18.585,fisher_task,2020.1.3,Win32,60,-0.004938272,-0.24691358,1,0,0,1.241,scale,,,,,,0.275930788,0.223606798,0.275930788,0.223606798,stimuli/lakes/503036_left.png,stimuli/lakes/503036_right.png,,,,0,57,57,36,1,,,,,
,,,,,,,$4513741381,2020-07-14_12h38.18.585,fisher_task,2020.1.3,Win32,60,0.161728395,-0.402469136,1,0,0,1.318,scale,,,,,,0.1234,0.1,0.3702,0.3,stimuli/lakes/103032_left.png,stimuli/lakes/103032_right.png,,,,0,58,58,32,1,,,,,
,,,,,,,$4513741381,2020-07-14_12h38.18.585,fisher_task,2020.1.3,Win32,60,0.140740741,-0.355555556,1,0,0,1.016,scale,,,,,,0.174513954,0.141421356,0.349027907,0.282842712,stimuli/lakes/207090_left.png,stimuli/lakes/207090_right.png,,,,0,59,59,90,1,,,,,
,,,,,,,$4513741381,2020-07-14_12h38.18.585,fisher_task,2020.1.3,Win32,60,-0.080246914,-0.27654321,1,0,0,1.382,scale,,,,,,0.302267034,0.244948974,0.2468,0.2,stimuli/lakes/603037_left.png,stimuli/lakes/603037_right.png,,,,0,60,60,37,1,,,,,
,,,,,,,$4513741381,2020-07-14_12h38.18.585,fisher_task,2020.1.3,Win32,60,-0.074074074,-0.275308642,1,0,0,1.09,scale,,,,,,0.326485712,0.264575131,0.21373507,0.173205081,stimuli/lakes/7090128_left.png,stimuli/lakes/7090128_right.png,,,,0,61,61,128,1,,,,,
,,,,,,,$4513741381,2020-07-14_12h38.18.585,fisher_task,2020.1.3,Win32,60,0.087654321,-0.261728395,1,0,0,1.774,scale,,,,,,0.2468,0.2,0.302267034,0.244948974,stimuli/lakes/406074_left.png,stimuli/lakes/406074_right.png,,,,0,62,62,74,1,,,,,
,,,,,,,$4513741381,2020-07-14_12h38.18.585,fisher_task,2020.1.3,Win32,60,0.107407407,-0.288888889,1,0,0,1.304,scale,,,,,,0.174513954,0.141421356,0.349027907,0.282842712,stimuli/lakes/2080108_left.png,stimuli/lakes/2080108_right.png,,,,0,63,63,108,1,,,,,
,,,,,,,$4513741381,2020-07-14_12h38.18.585,fisher_task,2020.1.3,Win32,60,0.107407407,-0.288888889,1,0,0,0.774,scale,,,,,,0.21373507,0.173205081,0.326485712,0.264575131,stimuli/lakes/30100_left.png,stimuli/lakes/30100_right.png,,,,0,64,64,0,1,,,,,
,,,,,,,$4513741381,2020-07-14_12h38.18.585,fisher_task,2020.1.3,Win32,60,0.028395062,-0.261728395,1,0,0,1.208,scale,,,,,,0.2468,0.2,0.302267034,0.244948974,stimuli/lakes/402015_left.png,stimuli/lakes/402015_right.png,,,,0,65,65,15,1,,,,,
,,,,,,,$4513741381,2020-07-14_12h38.18.585,fisher_task,2020.1.3,Win32,60,0.12962963,-0.319753086,1,0,0,1.699,scale,,,,,,0.1234,0.1,0.3702,0.3,stimuli/lakes/106071_left.png,stimuli/lakes/106071_right.png,,,space,0,66,66,71,1,4.269,,,,
,,,,,,,$4513741381,2020-07-14_12h38.18.585,fisher_task,2020.1.3,Win32,60,-0.12962963,-0.316049383,1,0,0,1.253,scale,,,,,,0.326485712,0.264575131,0.21373507,0.173205081,stimuli/lakes/70107_left.png,stimuli/lakes/70107_right.png,,,,0,67,67,7,1,,,,,
,,,,,,,$4513741381,2020-07-14_12h38.18.585,fisher_task,2020.1.3,Win32,60,-0.12962963,-0.316049383,1,0,0,0.92,scale,,,,,,0.349027907,0.282842712,0.174513954,0.141421356,stimuli/lakes/8070105_left.png,stimuli/lakes/8070105_right.png,,,,0,68,68,105,1,,,,,
,,,,,,,$4513741381,2020-07-14_12h38.18.585,fisher_task,2020.1.3,Win32,60,0.171604938,-0.4,1,0,0,1.181,scale,,,,,,0.1234,0.1,0.3702,0.3,stimuli/lakes/1090119_left.png,stimuli/lakes/1090119_right.png,,,,0,69,69,119,1,,,,,
,,,,,,,$4513741381,2020-07-14_12h38.18.585,fisher_task,2020.1.3,Win32,60,0.059259259,-0.269135802,1,0,0,1.185,scale,,,,,,0.2468,0.2,0.302267034,0.244948974,stimuli/lakes/402014_left.png,stimuli/lakes/402014_right.png,,,,0,70,70,14,1,,,,,
,,,,,,,$4513741381,2020-07-14_12h38.18.585,fisher_task,2020.1.3,Win32,60,-0.161728395,-0.419753086,1,0,0,1.09,scale,,,,,,0.3702,0.3,0.1234,0.1,stimuli/lakes/904058_left.png,stimuli/lakes/904058_right.png,,,,0,71,71,58,1,,,,,
,,,,,,,$4513741381,2020-07-14_12h38.18.585,fisher_task,2020.1.3,Win32,60,-0.14691358,-0.362962963,1,0,0,1.03,scale,,,,,,0.349027907,0.282842712,0.174513954,0.141421356,stimuli/lakes/806078_left.png,stimuli/lakes/806078_right.png,,,,0,72,72,78,1,,,,,
,,,,,,,$4513741381,2020-07-14_12h38.18.585,fisher_task,2020.1.3,Win32,60,0.133333333,-0.322222222,1,0,0,1.794,scale,,,,,,0.174513954,0.141421356,0.349027907,0.282842712,stimuli/lakes/205060_left.png,stimuli/lakes/205060_right.png,,,,0,73,73,60,1,,,,,
,,,,,,,$4513741381,2020-07-14_12h38.18.585,fisher_task,2020.1.3,Win32,60,-0.12345679,-0.314814815,1,0,0,1.642,scale,,,,,,0.3702,0.3,0.1234,0.1,stimuli/lakes/901010_left.png,stimuli/lakes/901010_right.png,,,,0,74,74,10,1,,,,,
,,,,,,,$4513741381,2020-07-14_12h38.18.585,fisher_task,2020.1.3,Win32,60,0.088888889,-0.260493827,1,0,0,1.135,scale,,,,,,0.174513954,0.141421356,0.349027907,0.282842712,stimuli/lakes/202011_left.png,stimuli/lakes/202011_right.png,,,,0,75,75,11,1,,,,,
,,,,,,,$4513741381,2020-07-14_12h38.18.585,fisher_task,2020.1.3,Win32,60,0.088888889,-0.260493827,1,0,0,0.938,scale,,,,,,0.174513954,0.141421356,0.349027907,0.282842712,stimuli/lakes/204042_left.png,stimuli/lakes/204042_right.png,,,,0,76,76,42,1,,,,,
,,,,,,,$4513741381,2020-07-14_12h38.18.585,fisher_task,2020.1.3,Win32,60,-0.00617284,-0.249382716,1,0,0,1.242,scale,,,,,,0.2468,0.2,0.302267034,0.244948974,stimuli/lakes/405063_left.png,stimuli/lakes/405063_right.png,,,,0,77,77,63,1,,,,,
,,,,,,,$4513741381,2020-07-14_12h38.18.585,fisher_task,2020.1.3,Win32,60,0.081481481,-0.265432099,1,0,0,1.312,scale,,,,,,0.21373507,0.173205081,0.326485712,0.264575131,stimuli/lakes/30101_left.png,stimuli/lakes/30101_right.png,,,,0,78,78,1,1,,,,,
,,,,,,,$4513741381,2020-07-14_12h38.18.585,fisher_task,2020.1.3,Win32,60,-0.091358025,-0.272839506,1,0,0,1.173,scale,,,,,,0.302267034,0.244948974,0.2468,0.2,stimuli/lakes/606076_left.png,stimuli/lakes/606076_right.png,,,,0,79,79,76,1,,,,,
,,,,,,,$4513741381,2020-07-14_12h38.18.585,fisher_task,2020.1.3,Win32,60,-0.088888889,-0.272839506,1,0,0,0.832,scale,,,,,,0.302267034,0.244948974,0.2468,0.2,stimuli/lakes/60106_left.png,stimuli/lakes/60106_right.png,,,,0,80,80,6,1,,,,,
,,,,,,,$4513741381,2020-07-14_12h38.18.585,fisher_task,2020.1.3,Win32,60,-0.05308642,-0.264197531,1,0,0,1.016,scale,,,,,,0.302267034,0.244948974,0.2468,0.2,stimuli/lakes/604046_left.png,stimuli/lakes/604046_right.png,,,,0,81,81,46,1,,,,,
,,,,,,,$4513741381,2020-07-14_12h38.18.585,fisher_task,2020.1.3,Win32,60,-0.091358025,-0.281481481,1,0,0,1.004,scale,,,,,,0.326485712,0.264575131,0.21373507,0.173205081,stimuli/lakes/703038_left.png,stimuli/lakes/703038_right.png,,,,0,82,82,38,1,,,,,
,,,,,,,$4513741381,2020-07-14_12h38.18.585,fisher_task,2020.1.3,Win32,60,-0.090123457,-0.281481481,1,0,0,0.745,scale,,,,,,0.326485712,0.264575131,0.21373507,0.173205081,stimuli/lakes/7080116_left.png,stimuli/lakes/7080116_right.png,,,,0,83,83,116,1,,,,,
,,,,,,,$4513741381,2020-07-14_12h38.18.585,fisher_task,2020.1.3,Win32,60,-0.060493827,-0.264197531,1,0,0,1.03,scale,,,,,,0.302267034,0.244948974,0.2468,0.2,stimuli/lakes/604055_left.png,stimuli/lakes/604055_right.png,,,,0,84,84,55,1,,,,,
,,,,,,,$4513741381,2020-07-14_12h38.18.585,fisher_task,2020.1.3,Win32,60,-0.145679012,-0.360493827,1,0,0,1.013,scale,,,,,,0.3702,0.3,0.1234,0.1,stimuli/lakes/906088_left.png,stimuli/lakes/906088_right.png,,,,0,85,85,88,1,,,,,
,,,,,,,$4513741381,2020-07-14_12h38.18.585,fisher_task,2020.1.3,Win32,60,0.085185185,-0.261728395,1,0,0,1.452,scale,,,,,,0.2468,0.2,0.302267034,0.244948974,stimuli/lakes/4080112_left.png,stimuli/lakes/4080112_right.png,,,,0,86,86,112,1,,,,,
,,,,,,,$4513741381,2020-07-14_12h38.18.585,fisher_task,2020.1.3,Win32,60,0.085185185,-0.261728395,1,0,0,0.729,scale,,,,,,0.21373507,0.173205081,0.326485712,0.264575131,stimuli/lakes/3080109_left.png,stimuli/lakes/3080109_right.png,,,,0,87,87,109,1,,,,,
,,,,,,,$4513741381,2020-07-14_12h38.18.585,fisher_task,2020.1.3,Win32,60,0.113580247,-0.297530864,1,0,0,1.257,scale,,,,,,0.21373507,0.173205081,0.326485712,0.264575131,stimuli/lakes/3070100_left.png,stimuli/lakes/3070100_right.png,,,space,0,88,88,100,1,3.827,,,,
,,,,,,,$4513741381,2020-07-14_12h38.18.585,fisher_task,2020.1.3,Win32,60,-0.02345679,-0.254320988,1,0,0,0.913,scale,,,,,,0.275930788,0.223606798,0.275930788,0.223606798,stimuli/lakes/50104_left.png,stimuli/lakes/50104_right.png,,,,0,89,89,4,1,,,,,
,,,,,,,$4513741381,2020-07-14_12h38.18.585,fisher_task,2020.1.3,Win32,60,-0.080246914,-0.282716049,1,0,0,0.674,scale,,,,,,0.302267034,0.244948974,0.2468,0.2,stimuli/lakes/6090126_left.png,stimuli/lakes/6090126_right.png,,,,0,90,90,126,1,,,,,
,,,,,,,$4513741381,2020-07-14_12h38.18.585,fisher_task,2020.1.3,Win32,60,0.07037037,-0.25308642,1,0,0,0.651,scale,,,,,,0.2468,0.2,0.302267034,0.244948974,stimuli/lakes/4090123_left.png,stimuli/lakes/4090123_right.png,,,,0,91,91,123,1,,,,,
,,,,,,,$4513741381,2020-07-14_12h38.18.585,fisher_task,2020.1.3,Win32,60,-0.045679012,-0.264197531,1,0,0,0.707,scale,,,,,,0.302267034,0.244948974,0.2468,0.2,stimuli/lakes/606085_left.png,stimuli/lakes/606085_right.png,,,,0,92,92,85,1,,,,,
,,,,,,,$4513741381,2020-07-14_12h38.18.585,fisher_task,2020.1.3,Win32,60,-0.074074074,-0.271604938,1,0,0,0.744,scale,,,,,,0.326485712,0.264575131,0.21373507,0.173205081,stimuli/lakes/704056_left.png,stimuli/lakes/704056_right.png,,,,0,93,93,56,1,,,,,
,,,,,,,$4513741381,2020-07-14_12h38.18.585,fisher_task,2020.1.3,Win32,60,0.112345679,-0.3,1,0,0,0.961,scale,,,,,,0.174513954,0.141421356,0.349027907,0.282842712,stimuli/lakes/206081_left.png,stimuli/lakes/206081_right.png,,,,0,94,94,81,1,,,,,
,,,,,,,$4513741381,2020-07-14_12h38.18.585,fisher_task,2020.1.3,Win32,60,-0.09382716,-0.281481481,1,0,0,1.347,scale,,,,,,0.302267034,0.244948974,0.2468,0.2,stimuli/lakes/607094_left.png,stimuli/lakes/607094_right.png,,,,0,95,95,94,1,,,,,
,,,,,,,$4513741381,2020-07-14_12h38.18.585,fisher_task,2020.1.3,Win32,60,0.164197531,-0.386419753,1,0,0,1.331,scale,,,,,,0.1234,0.1,0.3702,0.3,stimuli/lakes/106080_left.png,stimuli/lakes/106080_right.png,,,,0,96,96,80,1,,,,,
,,,,,,,$4513741381,2020-07-14_12h38.18.585,fisher_task,2020.1.3,Win32,60,-0.144444444,-0.407407407,1,0,0,1.223,scale,,,,,,0.3702,0.3,0.1234,0.1,stimuli/lakes/9070106_left.png,stimuli/lakes/9070106_right.png,,,,0,97,97,106,1,,,,,
,,,,,,,$4513741381,2020-07-14_12h38.18.585,fisher_task,2020.1.3,Win32,60,0.172839506,-0.396296296,1,0,0,1.382,scale,,,,,,0.1234,0.1,0.3702,0.3,stimuli/lakes/104050_left.png,stimuli/lakes/104050_right.png,,,,0,98,98,50,1,,,,,
,,,,,,,$4513741381,2020-07-14_12h38.18.585,fisher_task,2020.1.3,Win32,60,0.077777778,-0.272839506,1,0,0,1.23,scale,,,,,,0.2468,0.2,0.302267034,0.244948974,stimuli/lakes/403026_left.png,stimuli/lakes/403026_right.png,,,,0,99,99,26,1,,,,,
,,,,,,,$4513741381,2020-07-14_12h38.18.585,fisher_task,2020.1.3,Win32,60,-0.122222222,-0.312345679,1,0,0,0.992,scale,,,,,,0.349027907,0.282842712,0.174513954,0.141421356,stimuli/lakes/804057_left.png,stimuli/lakes/804057_right.png,,,,0,100,100,57,1,,,,,
,,,,,,,$4513741381,2020-07-14_12h38.18.585,fisher_task,2020.1.3,Win32,60,0.025925926,-0.272839506,1,0,0,1.127,scale,,,,,,0.2468,0.2,0.302267034,0.244948974,stimuli/lakes/406083_left.png,stimuli/lakes/406083_right.png,,,,0,101,101,83,1,,,,,
,,,,,,,$4513741381,2020-07-14_12h38.18.585,fisher_task,2020.1.3,Win32,60,-0.087654321,-0.277777778,1,0,0,0.921,scale,,,,,,0.326485712,0.264575131,0.21373507,0.173205081,stimuli/lakes/7070104_left.png,stimuli/lakes/7070104_right.png,,,,0,102,102,104,1,,,,,
,,,,,,,$4513741381,2020-07-14_12h38.18.585,fisher_task,2020.1.3,Win32,60,0.044444444,-0.266666667,1,0,0,1.201,scale,,,,,,0.2468,0.2,0.302267034,0.244948974,stimuli/lakes/407092_left.png,stimuli/lakes/407092_right.png,,,,0,103,103,92,1,,,,,
,,,,,,,$4513741381,2020-07-14_12h38.18.585,fisher_task,2020.1.3,Win32,60,0.044444444,-0.265432099,1,0,0,1.133,scale,,,,,,0.21373507,0.173205081,0.326485712,0.264575131,stimuli/lakes/302012_left.png,stimuli/lakes/302012_right.png,,,,0,104,104,12,1,,,,,
,,,,,,,$4513741381,2020-07-14_12h38.18.585,fisher_task,2020.1.3,Win32,60,-0.104938272,-0.298765432,1,0,0,0.875,scale,,,,,,0.326485712,0.264575131,0.21373507,0.173205081,stimuli/lakes/705067_left.png,stimuli/lakes/705067_right.png,,,,0,105,105,67,1,,,,,
,,,,,,,$4513741381,2020-07-14_12h38.18.585,fisher_task,2020.1.3,Win32,60,-0.104938272,-0.298765432,1,0,0,0.673,scale,,,,,,0.326485712,0.264575131,0.21373507,0.173205081,stimuli/lakes/7090129_left.png,stimuli/lakes/7090129_right.png,,,,0,106,106,129,1,,,,,
,,,,,,,$4513741381,2020-07-14_12h38.18.585,fisher_task,2020.1.3,Win32,60,-0.104938272,-0.298765432,1,0,0,1.647,scale,,,,,,0.326485712,0.264575131,0.21373507,0.173205081,stimuli/lakes/707095_left.png,stimuli/lakes/707095_right.png,,,,0,107,107,95,1,,,,,
,,,,,,,$4513741381,2020-07-14_12h38.18.585,fisher_task,2020.1.3,Win32,60,0.164197531,-0.354320988,1,0,0,1.09,scale,,,,,,0.174513954,0.141421356,0.349027907,0.282842712,stimuli/lakes/207099_left.png,stimuli/lakes/207099_right.png,,,,0,108,108,99,1,,,,,
,,,,,,,$4513741381,2020-07-14_12h38.18.585,fisher_task,2020.1.3,Win32,60,0.122222222,-0.311111111,1,0,0,1.059,scale,,,,,,0.21373507,0.173205081,0.326485712,0.264575131,stimuli/lakes/304052_left.png,stimuli/lakes/304052_right.png,,,,0,109,109,52,1,,,,,
,,,,,,,$4513741381,2020-07-14_12h38.18.585,fisher_task,2020.1.3,Win32,60,-0.162962963,-0.379012346,1,0,0,1.599,scale,,,,,,0.3702,0.3,0.1234,0.1,stimuli/lakes/902022_left.png,stimuli/lakes/902022_right.png,,,space,0,110,110,22,1,3.421,,,,
,,,,,,,$4513741381,2020-07-14_12h38.18.585,fisher_task,2020.1.3,Win32,60,-0.139506173,-0.34691358,1,0,0,0.892,scale,,,,,,0.349027907,0.282842712,0.174513954,0.141421356,stimuli/lakes/805069_left.png,stimuli/lakes/805069_right.png,,,,0,111,111,69,1,,,,,
,,,,,,,$4513741381,2020-07-14_12h38.18.585,fisher_task,2020.1.3,Win32,60,0.117283951,-0.30617284,1,0,0,1.167,scale,,,,,,0.21373507,0.173205081,0.326485712,0.264575131,stimuli/lakes/306082_left.png,stimuli/lakes/306082_right.png,,,,0,112,112,82,1,,,,,
,,,,,,,$4513741381,2020-07-14_12h38.18.585,fisher_task,2020.1.3,Win32,60,-0.167901235,-0.401234568,1,0,0,1.205,scale,,,,,,0.3702,0.3,0.1234,0.1,stimuli/lakes/904049_left.png,stimuli/lakes/904049_right.png,,,,0,113,113,49,1,,,,,
,,,,,,,$4513741381,2020-07-14_12h38.18.585,fisher_task,2020.1.3,Win32,60,0.134567901,-0.295061728,1,0,0,1.015,scale,,,,,,0.174513954,0.141421356,0.349027907,0.282842712,stimuli/lakes/203033_left.png,stimuli/lakes/203033_right.png,,,,0,114,114,33,1,,,,,
,,,,,,,$4513741381,2020-07-14_12h38.18.585,fisher_task,2020.1.3,Win32,60,-0.024691358,-0.25308642,1,0,0,0.902,scale,,,,,,0.275930788,0.223606798,0.275930788,0.223606798,stimuli/lakes/504045_left.png,stimuli/lakes/504045_right.png,,,,0,115,115,45,1,,,,,
,,,,,,,$4513741381,2020-07-14_12h38.18.585,fisher_task,2020.1.3,Win32,60,0.118518519,-0.298765432,1,0,0,0.956,scale,,,,,,0.174513954,0.141421356,0.349027907,0.282842712,stimuli/lakes/2090120_left.png,stimuli/lakes/2090120_right.png,,,,0,116,116,120,1,,,,,
,,,,,,,$4513741381,2020-07-14_12h38.18.585,fisher_task,2020.1.3,Win32,60,0.004938272,-0.25308642,1,0,0,0.947,scale,,,,,,0.275930788,0.223606798,0.275930788,0.223606798,stimuli/lakes/5070102_left.png,stimuli/lakes/5070102_right.png,,,,0,117,117,102,1,,,,,
,,,,,,,$4513741381,2020-07-14_12h38.18.585,fisher_task,2020.1.3,Win32,60,0.166666667,-0.382716049,1,0,0,0.889,scale,,,,,,0.1234,0.1,0.3702,0.3,stimuli/lakes/103023_left.png,stimuli/lakes/103023_right.png,,,,0,118,118,23,1,,,,,
,,,,,,,$4513741381,2020-07-14_12h38.18.585,fisher_task,2020.1.3,Win32,60,-0.085185185,-0.277777778,1,0,0,1.092,scale,,,,,,0.302267034,0.244948974,0.2468,0.2,stimuli/lakes/602018_left.png,stimuli/lakes/602018_right.png,,,,0,119,119,18,1,,,,,
,,,,,,,$4513741381,2020-07-14_12h38.18.585,fisher_task,2020.1.3,Win32,60,0.028395062,-0.254320988,1,0,0,1.081,scale,,,,,,0.2468,0.2,0.302267034,0.244948974,stimuli/lakes/4070101_left.png,stimuli/lakes/4070101_right.png,,,,0,120,120,101,1,,,,,
,,,,,,,$4513741381,2020-07-14_12h38.18.585,fisher_task,2020.1.3,Win32,60,0.069135802,-0.256790123,1,0,0,0.752,scale,,,,,,0.21373507,0.173205081,0.326485712,0.264575131,stimuli/lakes/3080110_left.png,stimuli/lakes/3080110_right.png,,,,0,121,121,110,1,,,,,
,,,,,,,$4513741381,2020-07-14_12h38.18.585,fisher_task,2020.1.3,Win32,60,-0.156790123,-0.35308642,1,0,0,0.875,scale,,,,,,0.349027907,0.282842712,0.174513954,0.141421356,stimuli/lakes/803030_left.png,stimuli/lakes/803030_right.png,,,,0,122,122,30,1,,,,,
,,,,,,,$4513741381,2020-07-14_12h38.18.585,fisher_task,2020.1.3,Win32,60,0,-0.272839506,1,0,0,0.881,scale,,,,,,0.275930788,0.223606798,0.275930788,0.223606798,stimuli/lakes/502016_left.png,stimuli/lakes/502016_right.png,,,,0,123,123,16,1,,,,,
,,,,,,,$4513741381,2020-07-14_12h38.18.585,fisher_task,2020.1.3,Win32,60,0,-0.272839506,1,0,0,0.699,scale,,,,,,0.275930788,0.223606798,0.275930788,0.223606798,stimuli/lakes/506075_left.png,stimuli/lakes/506075_right.png,,,,0,124,124,75,1,,,,,
,,,,,,,$4513741381,2020-07-14_12h38.18.585,fisher_task,2020.1.3,Win32,60,-0.086419753,-0.295061728,1,0,0,1.02,scale,,,,,,0.302267034,0.244948974,0.2468,0.2,stimuli/lakes/6080114_left.png,stimuli/lakes/6080114_right.png,,,,0,125,125,114,1,,,,,
,,,,,,,$4513741381,2020-07-14_12h38.18.585,fisher_task,2020.1.3,Win32,60,-0.107407407,-0.295061728,1,0,0,0.765,scale,,,,,,0.326485712,0.264575131,0.21373507,0.173205081,stimuli/lakes/702019_left.png,stimuli/lakes/702019_right.png,,,,0,126,126,19,1,,,,,
,,,,,,,$4513741381,2020-07-14_12h38.18.585,fisher_task,2020.1.3,Win32,60,0.095061728,-0.27654321,1,0,0,0.934,scale,,,,,,0.21373507,0.173205081,0.326485712,0.264575131,stimuli/lakes/304043_left.png,stimuli/lakes/304043_right.png,,,,0,127,127,43,1,,,,,
,,,,,,,$4513741381,2020-07-14_12h38.18.585,fisher_task,2020.1.3,Win32,60,0.158024691,-0.379012346,1,0,0,1.226,scale,,,,,,0.1234,0.1,0.3702,0.3,stimuli/lakes/1080107_left.png,stimuli/lakes/1080107_right.png,,,,0,128,128,107,1,,,,,
,,,,,,,$4513741381,2020-07-14_12h38.18.585,fisher_task,2020.1.3,Win32,60,-0.138271605,-0.318518519,1,0,0,1.798,scale,,,,,,0.302267034,0.244948974,0.2468,0.2,stimuli/lakes/602017_left.png,stimuli/lakes/602017_right.png,,,,0,129,129,17,1,,,,,
,,,,,,,$4513741381,2020-07-14_12h38.18.585,fisher_task,2020.1.3,Win32,60,,,,,,,,,,,,,,,,,,,,,,,,,,,,space,20.853,space,145.335
