keySpace.keys,instructions.thisRepN,instructions.thisTrialN,instructions.thisN,instructions.thisIndex,instructions.ran,participant,date,expName,psychopyVersion,OS,frameRate,mouse.x,mouse.y,mouse.leftButton,mouse.midButton,mouse.rightButton,mouse.time,mouse.clicked_name,training.thisRepN,training.thisTrialN,training.thisN,training.thisIndex,training.ran,widthBasketLeft,heightBasketLeft,widthBasketRight,heightBasketRight,leftLake,rightLake,space2.keys,space2.rt,space1.keys,trials.thisRepN,trials.thisTrialN,trials.thisN,trials.thisIndex,trials.ran,space1.rt,finalSpace1.keys,finalSpace1.rt,finalSpace2.keys,finalSpace2.rt
,0,0,0,0,1,$3082440236,2020-07-08_00h34.27.928,fisher_task,2020.1.3,Win32,60,,,,,,,,,,,,,,,,,,,,,,,,,,,,,,,
,,,,,,$3082440236,2020-07-08_00h34.27.928,fisher_task,2020.1.3,Win32,60,0.1484375,-0.423177083,1,0,0,4.3489,scale,0,0,0,0,1,0.275930788,0.223606798,0.275930788,0.223606798,stimuli/training/20_left.png,stimuli/training/20_right.png,,,,,,,,,,,,,
,,,,,,$3082440236,2020-07-08_00h34.27.928,fisher_task,2020.1.3,Win32,60,-0.173177083,-0.423177083,1,0,0,1.56684,scale,0,1,1,1,1,0.275930788,0.223606798,0.275930788,0.223606798,stimuli/training/80_left.png,stimuli/training/80_right.png,,,,,,,,,,,,,
,,,,,,$3082440236,2020-07-08_00h34.27.928,fisher_task,2020.1.3,Win32,60,0.1484375,-0.42578125,1,0,0,2.08172,scale,0,2,2,2,1,0.174513954,0.141421356,0.349027907,0.282842712,stimuli/training/50_left.png,stimuli/training/50_right.png,,,,,,,,,,,,,
,,,,,,$3082440236,2020-07-08_00h34.27.928,fisher_task,2020.1.3,Win32,60,0.014322917,-0.263020833,1,0,0,6.23274,scale,0,3,3,3,1,0.349027907,0.282842712,0.174513954,0.141421356,stimuli/training/50_left.png,stimuli/training/50_right.png,,,,,,,,,,,,,
,,,,,,$3082440236,2020-07-08_00h34.27.928,fisher_task,2020.1.3,Win32,60,0.00390625,-0.252604167,1,0,0,3.783065,scale,0,4,4,4,1,0.275930788,0.223606798,0.275930788,0.223606798,stimuli/training/50_left.png,stimuli/training/50_right.png,,,,,,,,,,,,,
,,,,,,$3082440236,2020-07-08_00h34.27.928,fisher_task,2020.1.3,Win32,60,0.1484375,-0.430989583,1,0,0,1.516625,scale,0,5,5,5,1,0.174513954,0.141421356,0.349027907,0.282842712,stimuli/training/20_left.png,stimuli/training/20_right.png,,,,,,,,,,,,,
,,,,,,$3082440236,2020-07-08_00h34.27.928,fisher_task,2020.1.3,Win32,60,-0.154947917,-0.434895833,1,0,0,1.53299,scale,0,6,6,6,1,0.349027907,0.282842712,0.174513954,0.141421356,stimuli/training/80_left.png,stimuli/training/80_right.png,,,,,,,,,,,,,
,,,,,,$3082440236,2020-07-08_00h34.27.928,fisher_task,2020.1.3,Win32,60,0.15234375,-0.42578125,1,0,0,2.01556,scale,0,7,7,7,1,0.1234,0.1,0.3702,0.3,stimuli/training/30_left.png,stimuli/training/30_right.png,,,,,,,,,,,,,
,,,,,,$3082440236,2020-07-08_00h34.27.928,fisher_task,2020.1.3,Win32,60,-0.177083333,-0.436197917,1,0,0,1.785,scale,0,8,8,8,1,0.3702,0.3,0.1234,0.1,stimuli/training/70_left.png,stimuli/training/70_right.png,,,,,,,,,,,,,
,,,,,,$3082440236,2020-07-08_00h34.27.928,fisher_task,2020.1.3,Win32,60,-0.180989583,-0.419270833,1,0,0,2.81497,scale,0,9,9,9,1,0.326485712,0.264575131,0.21373507,0.173205081,stimuli/training/90_left.png,stimuli/training/90_right.png,,,,,,,,,,,,,
,,,,,,$3082440236,2020-07-08_00h34.27.928,fisher_task,2020.1.3,Win32,60,0.15234375,-0.415364583,1,0,0,1.33374,scale,0,10,10,10,1,0.21373507,0.173205081,0.326485712,0.264575131,stimuli/training/10_left.png,stimuli/training/10_right.png,,,,,,,,,,,,,
,,,,,,$3082440236,2020-07-08_00h34.27.928,fisher_task,2020.1.3,Win32,60,0.12890625,-0.359375,1,0,0,2.8997,scale,,,,,,0.21373507,0.173205081,0.326485712,0.264575131,stimuli/lakes/305061_left.png,stimuli/lakes/305061_right.png,space,6.030395,,0,0,0,61,1,,,,,
,,,,,,$3082440236,2020-07-08_00h34.27.928,fisher_task,2020.1.3,Win32,60,0.001302083,-0.251302083,1,0,0,2.832105,scale,,,,,,0.21373507,0.173205081,0.326485712,0.264575131,stimuli/lakes/307091_left.png,stimuli/lakes/307091_right.png,,,,0,1,1,91,1,,,,,
,,,,,,$3082440236,2020-07-08_00h34.27.928,fisher_task,2020.1.3,Win32,60,0.145833333,-0.421875,1,0,0,2.517125,scale,,,,,,0.275930788,0.223606798,0.275930788,0.223606798,stimuli/lakes/50104_left.png,stimuli/lakes/50104_right.png,,,,0,2,2,4,1,,,,,
,,,,,,$3082440236,2020-07-08_00h34.27.928,fisher_task,2020.1.3,Win32,60,0.001302083,-0.278645833,1,0,0,2.083235,scale,,,,,,0.1234,0.1,0.3702,0.3,stimuli/lakes/1090119_left.png,stimuli/lakes/1090119_right.png,,,,0,3,3,119,1,,,,,
,,,,,,$3082440236,2020-07-08_00h34.27.928,fisher_task,2020.1.3,Win32,60,0.154947917,-0.434895833,1,0,0,1.500405,scale,,,,,,0.21373507,0.173205081,0.326485712,0.264575131,stimuli/lakes/30101_left.png,stimuli/lakes/30101_right.png,,,,0,4,4,1,1,,,,,
,,,,,,$3082440236,2020-07-08_00h34.27.928,fisher_task,2020.1.3,Win32,60,-0.095052083,-0.326822917,1,0,0,2.26608,scale,,,,,,0.2468,0.2,0.302267034,0.244948974,stimuli/lakes/407092_left.png,stimuli/lakes/407092_right.png,,,,0,5,5,92,1,,,,,
,,,,,,$3082440236,2020-07-08_00h34.27.928,fisher_task,2020.1.3,Win32,60,0.001302083,-0.252604167,1,0,0,1.981225,scale,,,,,,0.326485712,0.264575131,0.21373507,0.173205081,stimuli/lakes/70108_left.png,stimuli/lakes/70108_right.png,,,,0,6,6,8,1,,,,,
,,,,,,$3082440236,2020-07-08_00h34.27.928,fisher_task,2020.1.3,Win32,60,-0.165364583,-0.424479167,1,0,0,1.44922,scale,,,,,,0.326485712,0.264575131,0.21373507,0.173205081,stimuli/lakes/7090129_left.png,stimuli/lakes/7090129_right.png,,,,0,7,7,129,1,,,,,
,,,,,,$3082440236,2020-07-08_00h34.27.928,fisher_task,2020.1.3,Win32,60,-0.165364583,-0.424479167,1,0,0,1.05041,scale,,,,,,0.349027907,0.282842712,0.174513954,0.141421356,stimuli/lakes/8070105_left.png,stimuli/lakes/8070105_right.png,,,,0,8,8,105,1,,,,,
,,,,,,$3082440236,2020-07-08_00h34.27.928,fisher_task,2020.1.3,Win32,60,-0.165364583,-0.424479167,1,0,0,1.08196,scale,,,,,,0.302267034,0.244948974,0.2468,0.2,stimuli/lakes/607094_left.png,stimuli/lakes/607094_right.png,,,,0,9,9,94,1,,,,,
,,,,,,$3082440236,2020-07-08_00h34.27.928,fisher_task,2020.1.3,Win32,60,0.161458333,-0.428385417,1,0,0,1.50023,scale,,,,,,0.21373507,0.173205081,0.326485712,0.264575131,stimuli/lakes/303034_left.png,stimuli/lakes/303034_right.png,,,,0,10,10,34,1,,,,,
,,,,,,$3082440236,2020-07-08_00h34.27.928,fisher_task,2020.1.3,Win32,60,-0.00390625,-0.274739583,1,0,0,1.48274,scale,,,,,,0.2468,0.2,0.302267034,0.244948974,stimuli/lakes/406074_left.png,stimuli/lakes/406074_right.png,,,,0,11,11,74,1,,,,,
,,,,,,$3082440236,2020-07-08_00h34.27.928,fisher_task,2020.1.3,Win32,60,-0.010416667,-0.266927083,1,0,0,1.66512,scale,,,,,,0.174513954,0.141421356,0.349027907,0.282842712,stimuli/lakes/206081_left.png,stimuli/lakes/206081_right.png,,,,0,12,12,81,1,,,,,
,,,,,,$3082440236,2020-07-08_00h34.27.928,fisher_task,2020.1.3,Win32,60,-0.110677083,-0.32421875,1,0,0,1.966605,scale,,,,,,0.349027907,0.282842712,0.174513954,0.141421356,stimuli/lakes/806087_left.png,stimuli/lakes/806087_right.png,,,,0,13,13,87,1,,,,,
,,,,,,$3082440236,2020-07-08_00h34.27.928,fisher_task,2020.1.3,Win32,60,-0.135416667,-0.334635417,1,0,0,1.866635,scale,,,,,,0.349027907,0.282842712,0.174513954,0.141421356,stimuli/lakes/806078_left.png,stimuli/lakes/806078_right.png,,,,0,14,14,78,1,,,,,
,,,,,,$3082440236,2020-07-08_00h34.27.928,fisher_task,2020.1.3,Win32,60,0.131510417,-0.4296875,1,0,0,1.416375,scale,,,,,,0.21373507,0.173205081,0.326485712,0.264575131,stimuli/lakes/303025_left.png,stimuli/lakes/303025_right.png,,,,0,15,15,25,1,,,,,
,,,,,,$3082440236,2020-07-08_00h34.27.928,fisher_task,2020.1.3,Win32,60,-0.00390625,-0.276041667,1,0,0,1.431825,scale,,,,,,0.174513954,0.141421356,0.349027907,0.282842712,stimuli/lakes/207090_left.png,stimuli/lakes/207090_right.png,,,,0,16,16,90,1,,,,,
,,,,,,$3082440236,2020-07-08_00h34.27.928,fisher_task,2020.1.3,Win32,60,-0.186197917,-0.416666667,1,0,0,2.048515,scale,,,,,,0.302267034,0.244948974,0.2468,0.2,stimuli/lakes/606085_left.png,stimuli/lakes/606085_right.png,,,,0,17,17,85,1,,,,,
,,,,,,$3082440236,2020-07-08_00h34.27.928,fisher_task,2020.1.3,Win32,60,-0.17578125,-0.430989583,1,0,0,2.25018,scale,,,,,,0.326485712,0.264575131,0.21373507,0.173205081,stimuli/lakes/7080116_left.png,stimuli/lakes/7080116_right.png,,,,0,18,18,116,1,,,,,
,,,,,,$3082440236,2020-07-08_00h34.27.928,fisher_task,2020.1.3,Win32,60,0.002604167,-0.279947917,1,0,0,2.334385,scale,,,,,,0.326485712,0.264575131,0.21373507,0.173205081,stimuli/lakes/70107_left.png,stimuli/lakes/70107_right.png,,,,0,19,19,7,1,,,,,
,,,,,,$3082440236,2020-07-08_00h34.27.928,fisher_task,2020.1.3,Win32,60,-0.17578125,-0.421875,1,0,0,2.26681,scale,,,,,,0.326485712,0.264575131,0.21373507,0.173205081,stimuli/lakes/706077_left.png,stimuli/lakes/706077_right.png,,,,0,20,20,77,1,,,,,
,,,,,,$3082440236,2020-07-08_00h34.27.928,fisher_task,2020.1.3,Win32,60,-0.001302083,-0.255208333,1,0,0,1.981395,scale,,,,,,0.326485712,0.264575131,0.21373507,0.173205081,stimuli/lakes/702019_left.png,stimuli/lakes/702019_right.png,,,,0,21,21,19,1,,,,,
,,,,,,$3082440236,2020-07-08_00h34.27.928,fisher_task,2020.1.3,Win32,60,0.153645833,-0.4296875,1,0,0,1.498925,scale,,,,,,0.2468,0.2,0.302267034,0.244948974,stimuli/lakes/40103_left.png,stimuli/lakes/40103_right.png,,,space,0,22,22,3,1,4.581215,,,,
,,,,,,$3082440236,2020-07-08_00h34.27.928,fisher_task,2020.1.3,Win32,60,-0.16796875,-0.427083333,1,0,0,2.349275,scale,,,,,,0.326485712,0.264575131,0.21373507,0.173205081,stimuli/lakes/705067_left.png,stimuli/lakes/705067_right.png,,,,0,23,23,67,1,,,,,
,,,,,,$3082440236,2020-07-08_00h34.27.928,fisher_task,2020.1.3,Win32,60,-0.1328125,-0.31640625,1,0,0,2.916885,scale,,,,,,0.302267034,0.244948974,0.2468,0.2,stimuli/lakes/605065_left.png,stimuli/lakes/605065_right.png,,,,0,24,24,65,1,,,,,
,,,,,,$3082440236,2020-07-08_00h34.27.928,fisher_task,2020.1.3,Win32,60,0.009114583,-0.2734375,1,0,0,4.082575,scale,,,,,,0.349027907,0.282842712,0.174513954,0.141421356,stimuli/lakes/803039_left.png,stimuli/lakes/803039_right.png,,,,0,25,25,39,1,,,,,
,,,,,,$3082440236,2020-07-08_00h34.27.928,fisher_task,2020.1.3,Win32,60,-0.178385417,-0.4296875,1,0,0,2.266935,scale,,,,,,0.349027907,0.282842712,0.174513954,0.141421356,stimuli/lakes/8080118_left.png,stimuli/lakes/8080118_right.png,,,,0,26,26,118,1,,,,,
,,,,,,$3082440236,2020-07-08_00h34.27.928,fisher_task,2020.1.3,Win32,60,-0.178385417,-0.4296875,1,0,0,1.3164,scale,,,,,,0.349027907,0.282842712,0.174513954,0.141421356,stimuli/lakes/807096_left.png,stimuli/lakes/807096_right.png,,,,0,27,27,96,1,,,,,
,,,,,,$3082440236,2020-07-08_00h34.27.928,fisher_task,2020.1.3,Win32,60,-0.006510417,-0.247395833,1,0,0,2.715615,scale,,,,,,0.3702,0.3,0.1234,0.1,stimuli/lakes/903031_left.png,stimuli/lakes/903031_right.png,,,,0,28,28,31,1,,,,,
,,,,,,$3082440236,2020-07-08_00h34.27.928,fisher_task,2020.1.3,Win32,60,0,-0.268229167,1,0,0,2.55072,scale,,,,,,0.1234,0.1,0.3702,0.3,stimuli/lakes/1080107_left.png,stimuli/lakes/1080107_right.png,,,,0,29,29,107,1,,,,,
,,,,,,$3082440236,2020-07-08_00h34.27.928,fisher_task,2020.1.3,Win32,60,-0.17578125,-0.427083333,1,0,0,3.549415,scale,,,,,,0.326485712,0.264575131,0.21373507,0.173205081,stimuli/lakes/706086_left.png,stimuli/lakes/706086_right.png,,,,0,30,30,86,1,,,,,
,,,,,,$3082440236,2020-07-08_00h34.27.928,fisher_task,2020.1.3,Win32,60,0.143229167,-0.4296875,1,0,0,2.115055,scale,,,,,,0.21373507,0.173205081,0.326485712,0.264575131,stimuli/lakes/30100_left.png,stimuli/lakes/30100_right.png,,,,0,31,31,0,1,,,,,
,,,,,,$3082440236,2020-07-08_00h34.27.928,fisher_task,2020.1.3,Win32,60,0.143229167,-0.4296875,1,0,0,1.600315,scale,,,,,,0.275930788,0.223606798,0.275930788,0.223606798,stimuli/lakes/502016_left.png,stimuli/lakes/502016_right.png,,,,0,32,32,16,1,,,,,
,,,,,,$3082440236,2020-07-08_00h34.27.928,fisher_task,2020.1.3,Win32,60,0.123697917,-0.337239583,1,0,0,1.832365,scale,,,,,,0.2468,0.2,0.302267034,0.244948974,stimuli/lakes/403035_left.png,stimuli/lakes/403035_right.png,,,,0,33,33,35,1,,,,,
,,,,,,$3082440236,2020-07-08_00h34.27.928,fisher_task,2020.1.3,Win32,60,0.001302083,-0.263020833,1,0,0,2.89829,scale,,,,,,0.302267034,0.244948974,0.2468,0.2,stimuli/lakes/603028_left.png,stimuli/lakes/603028_right.png,,,,0,34,34,28,1,,,,,
,,,,,,$3082440236,2020-07-08_00h34.27.928,fisher_task,2020.1.3,Win32,60,0.154947917,-0.38671875,1,0,0,2.132955,scale,,,,,,0.275930788,0.223606798,0.275930788,0.223606798,stimuli/lakes/504045_left.png,stimuli/lakes/504045_right.png,,,,0,35,35,45,1,,,,,
,,,,,,$3082440236,2020-07-08_00h34.27.928,fisher_task,2020.1.3,Win32,60,-0.166666667,-0.434895833,1,0,0,1.58312,scale,,,,,,0.3702,0.3,0.1234,0.1,stimuli/lakes/9070106_left.png,stimuli/lakes/9070106_right.png,,,,0,36,36,106,1,,,,,
,,,,,,$3082440236,2020-07-08_00h34.27.928,fisher_task,2020.1.3,Win32,60,-0.078125,-0.278645833,1,0,0,2.34953,scale,,,,,,0.275930788,0.223606798,0.275930788,0.223606798,stimuli/lakes/5080113_left.png,stimuli/lakes/5080113_right.png,,,,0,37,37,113,1,,,,,
,,,,,,$3082440236,2020-07-08_00h34.27.928,fisher_task,2020.1.3,Win32,60,0.157552083,-0.428385417,1,0,0,2.01442,scale,,,,,,0.2468,0.2,0.302267034,0.244948974,stimuli/lakes/40102_left.png,stimuli/lakes/40102_right.png,,,,0,38,38,2,1,,,,,
,,,,,,$3082440236,2020-07-08_00h34.27.928,fisher_task,2020.1.3,Win32,60,-0.170572917,-0.4296875,1,0,0,2.182595,scale,,,,,,0.275930788,0.223606798,0.275930788,0.223606798,stimuli/lakes/5070102_left.png,stimuli/lakes/5070102_right.png,,,,0,39,39,102,1,,,,,
,,,,,,$3082440236,2020-07-08_00h34.27.928,fisher_task,2020.1.3,Win32,60,0.166666667,-0.430989583,1,0,0,2.650145,scale,,,,,,0.275930788,0.223606798,0.275930788,0.223606798,stimuli/lakes/503027_left.png,stimuli/lakes/503027_right.png,,,,0,40,40,27,1,,,,,
,,,,,,$3082440236,2020-07-08_00h34.27.928,fisher_task,2020.1.3,Win32,60,-0.1640625,-0.427083333,1,0,0,1.831635,scale,,,,,,0.326485712,0.264575131,0.21373507,0.173205081,stimuli/lakes/7080117_left.png,stimuli/lakes/7080117_right.png,,,,0,41,41,117,1,,,,,
,,,,,,$3082440236,2020-07-08_00h34.27.928,fisher_task,2020.1.3,Win32,60,0.078125,-0.290364583,1,0,0,2.783445,scale,,,,,,0.21373507,0.173205081,0.326485712,0.264575131,stimuli/lakes/305062_left.png,stimuli/lakes/305062_right.png,,,,0,42,42,62,1,,,,,
,,,,,,$3082440236,2020-07-08_00h34.27.928,fisher_task,2020.1.3,Win32,60,-0.079427083,-0.27734375,1,0,0,4.81597,scale,,,,,,0.349027907,0.282842712,0.174513954,0.141421356,stimuli/lakes/804057_left.png,stimuli/lakes/804057_right.png,,,,0,43,43,57,1,,,,,
,,,,,,$3082440236,2020-07-08_00h34.27.928,fisher_task,2020.1.3,Win32,60,0.088541667,-0.2734375,1,0,0,3.098565,scale,,,,,,0.302267034,0.244948974,0.2468,0.2,stimuli/lakes/603037_left.png,stimuli/lakes/603037_right.png,,,space,0,44,44,37,1,221.8288,,,,
,,,,,,$3082440236,2020-07-08_00h34.27.928,fisher_task,2020.1.3,Win32,60,-0.002604167,-0.225260417,1,0,0,3.582265,scale,,,,,,0.1234,0.1,0.3702,0.3,stimuli/lakes/106080_left.png,stimuli/lakes/106080_right.png,,,,0,45,45,80,1,,,,,
,,,,,,$3082440236,2020-07-08_00h34.27.928,fisher_task,2020.1.3,Win32,60,-0.177083333,-0.43359375,1,0,0,2.11609,scale,,,,,,0.326485712,0.264575131,0.21373507,0.173205081,stimuli/lakes/7090128_left.png,stimuli/lakes/7090128_right.png,,,,0,46,46,128,1,,,,,
,,,,,,$3082440236,2020-07-08_00h34.27.928,fisher_task,2020.1.3,Win32,60,-0.161458333,-0.375,1,0,0,2.065075,scale,,,,,,0.302267034,0.244948974,0.2468,0.2,stimuli/lakes/6080115_left.png,stimuli/lakes/6080115_right.png,,,,0,47,47,115,1,,,,,
,,,,,,$3082440236,2020-07-08_00h34.27.928,fisher_task,2020.1.3,Win32,60,0.109375,-0.329427083,1,0,0,2.84869,scale,,,,,,0.302267034,0.244948974,0.2468,0.2,stimuli/lakes/60106_left.png,stimuli/lakes/60106_right.png,,,,0,48,48,6,1,,,,,
,,,,,,$3082440236,2020-07-08_00h34.27.928,fisher_task,2020.1.3,Win32,60,-0.033854167,-0.286458333,1,0,0,3.4825,scale,,,,,,0.174513954,0.141421356,0.349027907,0.282842712,stimuli/lakes/2090120_left.png,stimuli/lakes/2090120_right.png,,,,0,49,49,120,1,,,,,
,,,,,,$3082440236,2020-07-08_00h34.27.928,fisher_task,2020.1.3,Win32,60,0.147135417,-0.423177083,1,0,0,2.881815,scale,,,,,,0.174513954,0.141421356,0.349027907,0.282842712,stimuli/lakes/204042_left.png,stimuli/lakes/204042_right.png,,,,0,50,50,42,1,,,,,
,,,,,,$3082440236,2020-07-08_00h34.27.928,fisher_task,2020.1.3,Win32,60,0.141927083,-0.34375,1,0,0,1.450665,scale,,,,,,0.275930788,0.223606798,0.275930788,0.223606798,stimuli/lakes/503036_left.png,stimuli/lakes/503036_right.png,,,,0,51,51,36,1,,,,,
,,,,,,$3082440236,2020-07-08_00h34.27.928,fisher_task,2020.1.3,Win32,60,-0.1640625,-0.42578125,1,0,0,2.965615,scale,,,,,,0.326485712,0.264575131,0.21373507,0.173205081,stimuli/lakes/707095_left.png,stimuli/lakes/707095_right.png,,,,0,52,52,95,1,,,,,
,,,,,,$3082440236,2020-07-08_00h34.27.928,fisher_task,2020.1.3,Win32,60,0.032552083,-0.279947917,1,0,0,3.067255,scale,,,,,,0.349027907,0.282842712,0.174513954,0.141421356,stimuli/lakes/80109_left.png,stimuli/lakes/80109_right.png,,,,0,53,53,9,1,,,,,
,,,,,,$3082440236,2020-07-08_00h34.27.928,fisher_task,2020.1.3,Win32,60,0.1640625,-0.423177083,1,0,0,2.699535,scale,,,,,,0.21373507,0.173205081,0.326485712,0.264575131,stimuli/lakes/302013_left.png,stimuli/lakes/302013_right.png,,,,0,54,54,13,1,,,,,
,,,,,,$3082440236,2020-07-08_00h34.27.928,fisher_task,2020.1.3,Win32,60,-0.001302083,-0.270833333,1,0,0,1.850165,scale,,,,,,0.174513954,0.141421356,0.349027907,0.282842712,stimuli/lakes/207099_left.png,stimuli/lakes/207099_right.png,,,,0,55,55,99,1,,,,,
,,,,,,$3082440236,2020-07-08_00h34.27.928,fisher_task,2020.1.3,Win32,60,0.139322917,-0.428385417,1,0,0,3.966065,scale,,,,,,0.2468,0.2,0.302267034,0.244948974,stimuli/lakes/404053_left.png,stimuli/lakes/404053_right.png,,,,0,56,56,53,1,,,,,
,,,,,,$3082440236,2020-07-08_00h34.27.928,fisher_task,2020.1.3,Win32,60,-0.00390625,-0.279947917,1,0,0,5.28215,scale,,,,,,0.3702,0.3,0.1234,0.1,stimuli/lakes/904058_left.png,stimuli/lakes/904058_right.png,,,,0,57,57,58,1,,,,,
,,,,,,$3082440236,2020-07-08_00h34.27.928,fisher_task,2020.1.3,Win32,60,0.002604167,-0.279947917,1,0,0,3.099325,scale,,,,,,0.302267034,0.244948974,0.2468,0.2,stimuli/lakes/604055_left.png,stimuli/lakes/604055_right.png,,,,0,58,58,55,1,,,,,
,,,,,,$3082440236,2020-07-08_00h34.27.928,fisher_task,2020.1.3,Win32,60,-0.1796875,-0.4296875,1,0,0,2.25001,scale,,,,,,0.3702,0.3,0.1234,0.1,stimuli/lakes/906088_left.png,stimuli/lakes/906088_right.png,,,,0,59,59,88,1,,,,,
,,,,,,$3082440236,2020-07-08_00h34.27.928,fisher_task,2020.1.3,Win32,60,-0.1640625,-0.428385417,1,0,0,2.48181,scale,,,,,,0.302267034,0.244948974,0.2468,0.2,stimuli/lakes/6070103_left.png,stimuli/lakes/6070103_right.png,,,,0,60,60,103,1,,,,,
,,,,,,$3082440236,2020-07-08_00h34.27.928,fisher_task,2020.1.3,Win32,60,0.10546875,-0.329427083,1,0,0,1.76616,scale,,,,,,0.275930788,0.223606798,0.275930788,0.223606798,stimuli/lakes/504054_left.png,stimuli/lakes/504054_right.png,,,,0,61,61,54,1,,,,,
,,,,,,$3082440236,2020-07-08_00h34.27.928,fisher_task,2020.1.3,Win32,60,-0.00390625,-0.282552083,1,0,0,2.03292,scale,,,,,,0.21373507,0.173205081,0.326485712,0.264575131,stimuli/lakes/3070100_left.png,stimuli/lakes/3070100_right.png,,,,0,62,62,100,1,,,,,
,,,,,,$3082440236,2020-07-08_00h34.27.928,fisher_task,2020.1.3,Win32,60,0.151041667,-0.424479167,1,0,0,1.46671,scale,,,,,,0.1234,0.1,0.3702,0.3,stimuli/lakes/104041_left.png,stimuli/lakes/104041_right.png,,,,0,63,63,41,1,,,,,
,,,,,,$3082440236,2020-07-08_00h34.27.928,fisher_task,2020.1.3,Win32,60,0.161458333,-0.434895833,1,0,0,1.49943,scale,,,,,,0.174513954,0.141421356,0.349027907,0.282842712,stimuli/lakes/204051_left.png,stimuli/lakes/204051_right.png,,,,0,64,64,51,1,,,,,
,,,,,,$3082440236,2020-07-08_00h34.27.928,fisher_task,2020.1.3,Win32,60,-0.15625,-0.427083333,1,0,0,1.632865,scale,,,,,,0.3702,0.3,0.1234,0.1,stimuli/lakes/906079_left.png,stimuli/lakes/906079_right.png,,,,0,65,65,79,1,,,,,
,,,,,,$3082440236,2020-07-08_00h34.27.928,fisher_task,2020.1.3,Win32,60,0.002604167,-0.240885417,1,0,0,1.565475,scale,,,,,,0.3702,0.3,0.1234,0.1,stimuli/lakes/902022_left.png,stimuli/lakes/902022_right.png,,,space,0,66,66,22,1,218.85186,,,,
,,,,,,$3082440236,2020-07-08_00h34.27.928,fisher_task,2020.1.3,Win32,60,-0.026041667,-0.240885417,1,0,0,4.06674,scale,,,,,,0.1234,0.1,0.3702,0.3,stimuli/lakes/107098_left.png,stimuli/lakes/107098_right.png,,,,0,67,67,98,1,,,,,
,,,,,,$3082440236,2020-07-08_00h34.27.928,fisher_task,2020.1.3,Win32,60,0.036458333,-0.22265625,1,0,0,3.350035,scale,,,,,,0.326485712,0.264575131,0.21373507,0.173205081,stimuli/lakes/704047_left.png,stimuli/lakes/704047_right.png,,,,0,68,68,47,1,,,,,
,,,,,,$3082440236,2020-07-08_00h34.27.928,fisher_task,2020.1.3,Win32,60,0.015625,-0.2421875,1,0,0,3.51624,scale,,,,,,0.326485712,0.264575131,0.21373507,0.173205081,stimuli/lakes/703029_left.png,stimuli/lakes/703029_right.png,,,,0,69,69,29,1,,,,,
,,,,,,$3082440236,2020-07-08_00h34.27.928,fisher_task,2020.1.3,Win32,60,-0.00390625,-0.23828125,1,0,0,4.69941,scale,,,,,,0.349027907,0.282842712,0.174513954,0.141421356,stimuli/lakes/804048_left.png,stimuli/lakes/804048_right.png,,,,0,70,70,48,1,,,,,
,,,,,,$3082440236,2020-07-08_00h34.27.928,fisher_task,2020.1.3,Win32,60,0.157552083,-0.388020833,1,0,0,2.93051,scale,,,,,,0.21373507,0.173205081,0.326485712,0.264575131,stimuli/lakes/304052_left.png,stimuli/lakes/304052_right.png,,,,0,71,71,52,1,,,,,
,,,,,,$3082440236,2020-07-08_00h34.27.928,fisher_task,2020.1.3,Win32,60,-0.03125,-0.227864583,1,0,0,3.60025,scale,,,,,,0.21373507,0.173205081,0.326485712,0.264575131,stimuli/lakes/306073_left.png,stimuli/lakes/306073_right.png,,,,0,72,72,73,1,,,,,
,,,,,,$3082440236,2020-07-08_00h34.27.928,fisher_task,2020.1.3,Win32,60,-0.177083333,-0.423177083,1,0,0,2.649745,scale,,,,,,0.326485712,0.264575131,0.21373507,0.173205081,stimuli/lakes/7070104_left.png,stimuli/lakes/7070104_right.png,,,,0,73,73,104,1,,,,,
,,,,,,$3082440236,2020-07-08_00h34.27.928,fisher_task,2020.1.3,Win32,60,-0.126302083,-0.317708333,1,0,0,3.11566,scale,,,,,,0.302267034,0.244948974,0.2468,0.2,stimuli/lakes/605066_left.png,stimuli/lakes/605066_right.png,,,,0,74,74,66,1,,,,,
,,,,,,$3082440236,2020-07-08_00h34.27.928,fisher_task,2020.1.3,Win32,60,0.108072917,-0.298177083,1,0,0,4.164875,scale,,,,,,0.302267034,0.244948974,0.2468,0.2,stimuli/lakes/602018_left.png,stimuli/lakes/602018_right.png,,,,0,75,75,18,1,,,,,
,,,,,,$3082440236,2020-07-08_00h34.27.928,fisher_task,2020.1.3,Win32,60,-0.053385417,-0.294270833,1,0,0,3.665855,scale,,,,,,0.2468,0.2,0.302267034,0.244948974,stimuli/lakes/4070101_left.png,stimuli/lakes/4070101_right.png,,,,0,76,76,101,1,,,,,
,,,,,,$3082440236,2020-07-08_00h34.27.928,fisher_task,2020.1.3,Win32,60,0.009114583,-0.28125,1,0,0,2.79964,scale,,,,,,0.349027907,0.282842712,0.174513954,0.141421356,stimuli/lakes/803030_left.png,stimuli/lakes/803030_right.png,,,,0,77,77,30,1,,,,,
,,,,,,$3082440236,2020-07-08_00h34.27.928,fisher_task,2020.1.3,Win32,60,-0.12890625,-0.359375,1,0,0,2.547735,scale,,,,,,0.2468,0.2,0.302267034,0.244948974,stimuli/lakes/4090124_left.png,stimuli/lakes/4090124_right.png,,,,0,78,78,124,1,,,,,
,,,,,,$3082440236,2020-07-08_00h34.27.928,fisher_task,2020.1.3,Win32,60,0.16015625,-0.432291667,1,0,0,1.897895,scale,,,,,,0.1234,0.1,0.3702,0.3,stimuli/lakes/103023_left.png,stimuli/lakes/103023_right.png,,,,0,79,79,23,1,,,,,
,,,,,,$3082440236,2020-07-08_00h34.27.928,fisher_task,2020.1.3,Win32,60,0.141927083,-0.372395833,1,0,0,1.96709,scale,,,,,,0.1234,0.1,0.3702,0.3,stimuli/lakes/104050_left.png,stimuli/lakes/104050_right.png,,,,0,80,80,50,1,,,,,
,,,,,,$3082440236,2020-07-08_00h34.27.928,fisher_task,2020.1.3,Win32,60,0.143229167,-0.423177083,1,0,0,1.56486,scale,,,,,,0.1234,0.1,0.3702,0.3,stimuli/lakes/103032_left.png,stimuli/lakes/103032_right.png,,,,0,81,81,32,1,,,,,
,,,,,,$3082440236,2020-07-08_00h34.27.928,fisher_task,2020.1.3,Win32,60,0.12109375,-0.30078125,1,0,0,2.382865,scale,,,,,,0.2468,0.2,0.302267034,0.244948974,stimuli/lakes/405064_left.png,stimuli/lakes/405064_right.png,,,,0,82,82,64,1,,,,,
,,,,,,$3082440236,2020-07-08_00h34.27.928,fisher_task,2020.1.3,Win32,60,-0.005208333,-0.268229167,1,0,0,3.433745,scale,,,,,,0.302267034,0.244948974,0.2468,0.2,stimuli/lakes/602017_left.png,stimuli/lakes/602017_right.png,,,,0,83,83,17,1,,,,,
,,,,,,$3082440236,2020-07-08_00h34.27.928,fisher_task,2020.1.3,Win32,60,0.16796875,-0.428385417,1,0,0,1.46344,scale,,,,,,0.2468,0.2,0.302267034,0.244948974,stimuli/lakes/402014_left.png,stimuli/lakes/402014_right.png,,,,0,84,84,14,1,,,,,
,,,,,,$3082440236,2020-07-08_00h34.27.928,fisher_task,2020.1.3,Win32,60,-0.00390625,-0.2578125,1,0,0,2.249525,scale,,,,,,0.326485712,0.264575131,0.21373507,0.173205081,stimuli/lakes/702020_left.png,stimuli/lakes/702020_right.png,,,,0,85,85,20,1,,,,,
,,,,,,$3082440236,2020-07-08_00h34.27.928,fisher_task,2020.1.3,Win32,60,-0.091145833,-0.315104167,1,0,0,4.93327,scale,,,,,,0.349027907,0.282842712,0.174513954,0.141421356,stimuli/lakes/805069_left.png,stimuli/lakes/805069_right.png,,,,0,86,86,69,1,,,,,
,,,,,,$3082440236,2020-07-08_00h34.27.928,fisher_task,2020.1.3,Win32,60,-0.015625,-0.2421875,1,0,0,2.99934,scale,,,,,,0.2468,0.2,0.302267034,0.244948974,stimuli/lakes/406083_left.png,stimuli/lakes/406083_right.png,,,,0,87,87,83,1,,,,,
,,,,,,$3082440236,2020-07-08_00h34.27.928,fisher_task,2020.1.3,Win32,60,-0.127604167,-0.30859375,1,0,0,1.649475,scale,,,,,,0.275930788,0.223606798,0.275930788,0.223606798,stimuli/lakes/507093_left.png,stimuli/lakes/507093_right.png,,,space,0,88,88,93,1,3.526625,,,,
,,,,,,$3082440236,2020-07-08_00h34.27.928,fisher_task,2020.1.3,Win32,60,0.153645833,-0.369791667,1,0,0,1.66642,scale,,,,,,0.1234,0.1,0.3702,0.3,stimuli/lakes/105059_left.png,stimuli/lakes/105059_right.png,,,,0,89,89,59,1,,,,,
,,,,,,$3082440236,2020-07-08_00h34.27.928,fisher_task,2020.1.3,Win32,60,0.102864583,-0.287760417,1,0,0,1.58176,scale,,,,,,0.2468,0.2,0.302267034,0.244948974,stimuli/lakes/405063_left.png,stimuli/lakes/405063_right.png,,,,0,90,90,63,1,,,,,
,,,,,,$3082440236,2020-07-08_00h34.27.928,fisher_task,2020.1.3,Win32,60,0.110677083,-0.295572917,1,0,0,2.399595,scale,,,,,,0.174513954,0.141421356,0.349027907,0.282842712,stimuli/lakes/205060_left.png,stimuli/lakes/205060_right.png,,,,0,91,91,60,1,,,,,
,,,,,,$3082440236,2020-07-08_00h34.27.928,fisher_task,2020.1.3,Win32,60,-0.001302083,-0.252604167,1,0,0,3.88362,scale,,,,,,0.1234,0.1,0.3702,0.3,stimuli/lakes/107089_left.png,stimuli/lakes/107089_right.png,,,,0,92,92,89,1,,,,,
,,,,,,$3082440236,2020-07-08_00h34.27.928,fisher_task,2020.1.3,Win32,60,-0.018229167,-0.25390625,1,0,0,2.78424,scale,,,,,,0.174513954,0.141421356,0.349027907,0.282842712,stimuli/lakes/206072_left.png,stimuli/lakes/206072_right.png,,,,0,93,93,72,1,,,,,
,,,,,,$3082440236,2020-07-08_00h34.27.928,fisher_task,2020.1.3,Win32,60,0.084635417,-0.268229167,1,0,0,2.6645,scale,,,,,,0.2468,0.2,0.302267034,0.244948974,stimuli/lakes/404044_left.png,stimuli/lakes/404044_right.png,,,,0,94,94,44,1,,,,,
,,,,,,$3082440236,2020-07-08_00h34.27.928,fisher_task,2020.1.3,Win32,60,-0.126302083,-0.33203125,1,0,0,3.26697,scale,,,,,,0.21373507,0.173205081,0.326485712,0.264575131,stimuli/lakes/3090122_left.png,stimuli/lakes/3090122_right.png,,,,0,95,95,122,1,,,,,
,,,,,,$3082440236,2020-07-08_00h34.27.928,fisher_task,2020.1.3,Win32,60,-0.041666667,-0.26953125,1,0,0,5.647525,scale,,,,,,0.21373507,0.173205081,0.326485712,0.264575131,stimuli/lakes/3080109_left.png,stimuli/lakes/3080109_right.png,,,,0,96,96,109,1,,,,,
,,,,,,$3082440236,2020-07-08_00h34.27.928,fisher_task,2020.1.3,Win32,60,0.075520833,-0.278645833,1,0,0,2.31707,scale,,,,,,0.1234,0.1,0.3702,0.3,stimuli/lakes/106071_left.png,stimuli/lakes/106071_right.png,,,,0,97,97,71,1,,,,,
,,,,,,$3082440236,2020-07-08_00h34.27.928,fisher_task,2020.1.3,Win32,60,0.153645833,-0.4140625,1,0,0,2.116215,scale,,,,,,0.174513954,0.141421356,0.349027907,0.282842712,stimuli/lakes/203033_left.png,stimuli/lakes/203033_right.png,,,,0,98,98,33,1,,,,,
,,,,,,$3082440236,2020-07-08_00h34.27.928,fisher_task,2020.1.3,Win32,60,-0.032552083,-0.294270833,1,0,0,2.499505,scale,,,,,,0.3702,0.3,0.1234,0.1,stimuli/lakes/901010_left.png,stimuli/lakes/901010_right.png,,,,0,99,99,10,1,,,,,
,,,,,,$3082440236,2020-07-08_00h34.27.928,fisher_task,2020.1.3,Win32,60,0.002604167,-0.2734375,1,0,0,3.89819,scale,,,,,,0.326485712,0.264575131,0.21373507,0.173205081,stimuli/lakes/704056_left.png,stimuli/lakes/704056_right.png,,,,0,100,100,56,1,,,,,
,,,,,,$3082440236,2020-07-08_00h34.27.928,fisher_task,2020.1.3,Win32,60,-0.143229167,-0.391927083,1,0,0,1.866075,scale,,,,,,0.302267034,0.244948974,0.2468,0.2,stimuli/lakes/6090126_left.png,stimuli/lakes/6090126_right.png,,,,0,101,101,126,1,,,,,
,,,,,,$3082440236,2020-07-08_00h34.27.928,fisher_task,2020.1.3,Win32,60,0.0703125,-0.299479167,1,0,0,4.833955,scale,,,,,,0.349027907,0.282842712,0.174513954,0.141421356,stimuli/lakes/802021_left.png,stimuli/lakes/802021_right.png,,,,0,102,102,21,1,,,,,
,,,,,,$3082440236,2020-07-08_00h34.27.928,fisher_task,2020.1.3,Win32,60,-0.104166667,-0.325520833,1,0,0,2.264235,scale,,,,,,0.3702,0.3,0.1234,0.1,stimuli/lakes/905070_left.png,stimuli/lakes/905070_right.png,,,,0,103,103,70,1,,,,,
,,,,,,$3082440236,2020-07-08_00h34.27.928,fisher_task,2020.1.3,Win32,60,-0.09765625,-0.330729167,1,0,0,3.01603,scale,,,,,,0.2468,0.2,0.302267034,0.244948974,stimuli/lakes/4090123_left.png,stimuli/lakes/4090123_right.png,,,,0,104,104,123,1,,,,,
,,,,,,$3082440236,2020-07-08_00h34.27.928,fisher_task,2020.1.3,Win32,60,0.16015625,-0.40625,1,0,0,2.316455,scale,,,,,,0.2468,0.2,0.302267034,0.244948974,stimuli/lakes/402015_left.png,stimuli/lakes/402015_right.png,,,,0,105,105,15,1,,,,,
,,,,,,$3082440236,2020-07-08_00h34.27.928,fisher_task,2020.1.3,Win32,60,-0.092447917,-0.330729167,1,0,0,1.681825,scale,,,,,,0.326485712,0.264575131,0.21373507,0.173205081,stimuli/lakes/705068_left.png,stimuli/lakes/705068_right.png,,,,0,106,106,68,1,,,,,
,,,,,,$3082440236,2020-07-08_00h34.27.928,fisher_task,2020.1.3,Win32,60,-0.15625,-0.424479167,1,0,0,1.317195,scale,,,,,,0.275930788,0.223606798,0.275930788,0.223606798,stimuli/lakes/5090125_left.png,stimuli/lakes/5090125_right.png,,,,0,107,107,125,1,,,,,
,,,,,,$3082440236,2020-07-08_00h34.27.928,fisher_task,2020.1.3,Win32,60,-0.115885417,-0.321614583,1,0,0,4.316245,scale,,,,,,0.21373507,0.173205081,0.326485712,0.264575131,stimuli/lakes/3090121_left.png,stimuli/lakes/3090121_right.png,,,,0,108,108,121,1,,,,,
,,,,,,$3082440236,2020-07-08_00h34.27.928,fisher_task,2020.1.3,Win32,60,-0.13671875,-0.34765625,1,0,0,2.317495,scale,,,,,,0.3702,0.3,0.1234,0.1,stimuli/lakes/907097_left.png,stimuli/lakes/907097_right.png,,,,0,109,109,97,1,,,,,
,,,,,,$3082440236,2020-07-08_00h34.27.928,fisher_task,2020.1.3,Win32,60,-0.020833333,-0.2734375,1,0,0,3.31714,scale,,,,,,0.174513954,0.141421356,0.349027907,0.282842712,stimuli/lakes/2080108_left.png,stimuli/lakes/2080108_right.png,,,space,0,110,110,108,1,4.215225,,,,
,,,,,,$3082440236,2020-07-08_00h34.27.928,fisher_task,2020.1.3,Win32,60,-0.055989583,-0.270833333,1,0,0,4.04756,scale,,,,,,0.21373507,0.173205081,0.326485712,0.264575131,stimuli/lakes/306082_left.png,stimuli/lakes/306082_right.png,,,,0,111,111,82,1,,,,,
,,,,,,$3082440236,2020-07-08_00h34.27.928,fisher_task,2020.1.3,Win32,60,-0.139322917,-0.325520833,1,0,0,1.532885,scale,,,,,,0.275930788,0.223606798,0.275930788,0.223606798,stimuli/lakes/506084_left.png,stimuli/lakes/506084_right.png,,,,0,112,112,84,1,,,,,
,,,,,,$3082440236,2020-07-08_00h34.27.928,fisher_task,2020.1.3,Win32,60,0.00390625,-0.279947917,1,0,0,2.35037,scale,,,,,,0.2468,0.2,0.302267034,0.244948974,stimuli/lakes/4080111_left.png,stimuli/lakes/4080111_right.png,,,,0,113,113,111,1,,,,,
,,,,,,$3082440236,2020-07-08_00h34.27.928,fisher_task,2020.1.3,Win32,60,-0.087239583,-0.328125,1,0,0,2.515975,scale,,,,,,0.3702,0.3,0.1234,0.1,stimuli/lakes/904049_left.png,stimuli/lakes/904049_right.png,,,,0,114,114,49,1,,,,,
,,,,,,$3082440236,2020-07-08_00h34.27.928,fisher_task,2020.1.3,Win32,60,0.110677083,-0.342447917,1,0,0,1.815515,scale,,,,,,0.2468,0.2,0.302267034,0.244948974,stimuli/lakes/403026_left.png,stimuli/lakes/403026_right.png,,,,0,115,115,26,1,,,,,
,,,,,,$3082440236,2020-07-08_00h34.27.928,fisher_task,2020.1.3,Win32,60,-0.037760417,-0.290364583,1,0,0,2.615215,scale,,,,,,0.275930788,0.223606798,0.275930788,0.223606798,stimuli/lakes/506075_left.png,stimuli/lakes/506075_right.png,,,,0,116,116,75,1,,,,,
,,,,,,$3082440236,2020-07-08_00h34.27.928,fisher_task,2020.1.3,Win32,60,0.134114583,-0.423177083,1,0,0,1.76621,scale,,,,,,0.21373507,0.173205081,0.326485712,0.264575131,stimuli/lakes/302012_left.png,stimuli/lakes/302012_right.png,,,,0,117,117,12,1,,,,,
,,,,,,$3082440236,2020-07-08_00h34.27.928,fisher_task,2020.1.3,Win32,60,0.049479167,-0.266927083,1,0,0,2.732335,scale,,,,,,0.302267034,0.244948974,0.2468,0.2,stimuli/lakes/60105_left.png,stimuli/lakes/60105_right.png,,,,0,118,118,5,1,,,,,
,,,,,,$3082440236,2020-07-08_00h34.27.928,fisher_task,2020.1.3,Win32,60,-0.0078125,-0.28125,1,0,0,3.348165,scale,,,,,,0.3702,0.3,0.1234,0.1,stimuli/lakes/903040_left.png,stimuli/lakes/903040_right.png,,,,0,119,119,40,1,,,,,
,,,,,,$3082440236,2020-07-08_00h34.27.928,fisher_task,2020.1.3,Win32,60,0.15234375,-0.372395833,1,0,0,1.998,scale,,,,,,0.21373507,0.173205081,0.326485712,0.264575131,stimuli/lakes/304043_left.png,stimuli/lakes/304043_right.png,,,,0,120,120,43,1,,,,,
,,,,,,$3082440236,2020-07-08_00h34.27.928,fisher_task,2020.1.3,Win32,60,-0.001302083,-0.252604167,1,0,0,2.650075,scale,,,,,,0.2468,0.2,0.302267034,0.244948974,stimuli/lakes/4080112_left.png,stimuli/lakes/4080112_right.png,,,,0,121,121,112,1,,,,,
,,,,,,$3082440236,2020-07-08_00h34.27.928,fisher_task,2020.1.3,Win32,60,-0.052083333,-0.263020833,1,0,0,2.649495,scale,,,,,,0.21373507,0.173205081,0.326485712,0.264575131,stimuli/lakes/3080110_left.png,stimuli/lakes/3080110_right.png,,,,0,122,122,110,1,,,,,
,,,,,,$3082440236,2020-07-08_00h34.27.928,fisher_task,2020.1.3,Win32,60,0.14453125,-0.36328125,1,0,0,1.683785,scale,,,,,,0.174513954,0.141421356,0.349027907,0.282842712,stimuli/lakes/202011_left.png,stimuli/lakes/202011_right.png,,,,0,123,123,11,1,,,,,
,,,,,,$3082440236,2020-07-08_00h34.27.928,fisher_task,2020.1.3,Win32,60,-0.102864583,-0.295572917,1,0,0,2.965835,scale,,,,,,0.302267034,0.244948974,0.2468,0.2,stimuli/lakes/606076_left.png,stimuli/lakes/606076_right.png,,,,0,124,124,76,1,,,,,
,,,,,,$3082440236,2020-07-08_00h34.27.928,fisher_task,2020.1.3,Win32,60,0.028645833,-0.276041667,1,0,0,2.01578,scale,,,,,,0.302267034,0.244948974,0.2468,0.2,stimuli/lakes/604046_left.png,stimuli/lakes/604046_right.png,,,,0,125,125,46,1,,,,,
,,,,,,$3082440236,2020-07-08_00h34.27.928,fisher_task,2020.1.3,Win32,60,0.141927083,-0.4140625,1,0,0,4.300635,scale,,,,,,0.174513954,0.141421356,0.349027907,0.282842712,stimuli/lakes/203024_left.png,stimuli/lakes/203024_right.png,,,,0,126,126,24,1,,,,,
,,,,,,$3082440236,2020-07-08_00h34.27.928,fisher_task,2020.1.3,Win32,60,-0.165364583,-0.423177083,1,0,0,1.648335,scale,,,,,,0.302267034,0.244948974,0.2468,0.2,stimuli/lakes/6080114_left.png,stimuli/lakes/6080114_right.png,,,,0,127,127,114,1,,,,,
,,,,,,$3082440236,2020-07-08_00h34.27.928,fisher_task,2020.1.3,Win32,60,0.01953125,-0.28515625,1,0,0,3.93269,scale,,,,,,0.326485712,0.264575131,0.21373507,0.173205081,stimuli/lakes/703038_left.png,stimuli/lakes/703038_right.png,,,,0,128,128,38,1,,,,,
,,,,,,$3082440236,2020-07-08_00h34.27.928,fisher_task,2020.1.3,Win32,60,-0.1171875,-0.376302083,1,0,0,2.215665,scale,,,,,,0.302267034,0.244948974,0.2468,0.2,stimuli/lakes/6090127_left.png,stimuli/lakes/6090127_right.png,,,,0,129,129,127,1,,,,,
,,,,,,$3082440236,2020-07-08_00h34.27.928,fisher_task,2020.1.3,Win32,60,,,,,,,,,,,,,,,,,,,,,,,,,,,,space,5.31968,space,31.071095
