keySpace.keys,instructions.thisRepN,instructions.thisTrialN,instructions.thisN,instructions.thisIndex,instructions.ran,participant,date,expName,psychopyVersion,OS,frameRate,mouse.x,mouse.y,mouse.leftButton,mouse.midButton,mouse.rightButton,mouse.time,mouse.clicked_name,training.thisRepN,training.thisTrialN,training.thisN,training.thisIndex,training.ran,widthBasketLeft,heightBasketLeft,widthBasketRight,heightBasketRight,leftLake,rightLake,space2.keys,space2.rt,space1.keys,trials.thisRepN,trials.thisTrialN,trials.thisN,trials.thisIndex,trials.ran,space1.rt,finalSpace1.keys,finalSpace1.rt,finalSpace2.keys,finalSpace2.rt
,0,0,0,0,1,$8507764428,2020-07-14_22h37.34.855,fisher_task,2020.1.3,Win32,60,,,,,,,,,,,,,,,,,,,,,,,,,,,,,,,
,,,,,,$8507764428,2020-07-14_22h37.34.855,fisher_task,2020.1.3,Win32,60,0.150462963,-0.43287037,1,0,0,3.481,scale,0,0,0,0,1,0.275930788,0.223606798,0.275930788,0.223606798,stimuli/training/20_left.png,stimuli/training/20_right.png,,,,,,,,,,,,,
,,,,,,$8507764428,2020-07-14_22h37.34.855,fisher_task,2020.1.3,Win32,60,-0.153935185,-0.415509259,1,0,0,2.447,scale,0,1,1,1,1,0.275930788,0.223606798,0.275930788,0.223606798,stimuli/training/80_left.png,stimuli/training/80_right.png,,,,,,,,,,,,,
,,,,,,$8507764428,2020-07-14_22h37.34.855,fisher_task,2020.1.3,Win32,60,0.166666667,-0.381944444,1,0,0,2.779,scale,0,2,2,2,1,0.174513954,0.141421356,0.349027907,0.282842712,stimuli/training/50_left.png,stimuli/training/50_right.png,,,,,,,,,,,,,
,,,,,,$8507764428,2020-07-14_22h37.34.855,fisher_task,2020.1.3,Win32,60,-0.162037037,-0.377314815,1,0,0,3.312,scale,0,3,3,3,1,0.349027907,0.282842712,0.174513954,0.141421356,stimuli/training/50_left.png,stimuli/training/50_right.png,,,,,,,,,,,,,
,,,,,,$8507764428,2020-07-14_22h37.34.855,fisher_task,2020.1.3,Win32,60,-0.025462963,-0.265046296,1,0,0,4.642,scale,0,4,4,4,1,0.275930788,0.223606798,0.275930788,0.223606798,stimuli/training/50_left.png,stimuli/training/50_right.png,,,,,,,,,,,,,
,,,,,,$8507764428,2020-07-14_22h37.34.855,fisher_task,2020.1.3,Win32,60,0.144675926,-0.425925926,1,0,0,1.996,scale,0,5,5,5,1,0.174513954,0.141421356,0.349027907,0.282842712,stimuli/training/20_left.png,stimuli/training/20_right.png,,,,,,,,,,,,,
,,,,,,$8507764428,2020-07-14_22h37.34.855,fisher_task,2020.1.3,Win32,60,-0.171296296,-0.429398148,1,0,0,2.246,scale,0,6,6,6,1,0.349027907,0.282842712,0.174513954,0.141421356,stimuli/training/80_left.png,stimuli/training/80_right.png,,,,,,,,,,,,,
,,,,,,$8507764428,2020-07-14_22h37.34.855,fisher_task,2020.1.3,Win32,60,0.15162037,-0.423611111,1,0,0,2.146,scale,0,7,7,7,1,0.1234,0.1,0.3702,0.3,stimuli/training/30_left.png,stimuli/training/30_right.png,,,,,,,,,,,,,
,,,,,,$8507764428,2020-07-14_22h37.34.855,fisher_task,2020.1.3,Win32,60,-0.168981481,-0.424768519,1,0,0,1.748,scale,0,8,8,8,1,0.3702,0.3,0.1234,0.1,stimuli/training/70_left.png,stimuli/training/70_right.png,,,,,,,,,,,,,
,,,,,,$8507764428,2020-07-14_22h37.34.855,fisher_task,2020.1.3,Win32,60,-0.157407407,-0.418981481,1,0,0,1.63,scale,0,9,9,9,1,0.326485712,0.264575131,0.21373507,0.173205081,stimuli/training/90_left.png,stimuli/training/90_right.png,,,,,,,,,,,,,
,,,,,,$8507764428,2020-07-14_22h37.34.855,fisher_task,2020.1.3,Win32,60,0.155092593,-0.421296296,1,0,0,1.698,scale,0,10,10,10,1,0.21373507,0.173205081,0.326485712,0.264575131,stimuli/training/10_left.png,stimuli/training/10_right.png,,,,,,,,,,,,,
,,,,,,$8507764428,2020-07-14_22h37.34.855,fisher_task,2020.1.3,Win32,60,0.122685185,-0.320601852,1,0,0,1.962,scale,,,,,,0.2468,0.2,0.302267034,0.244948974,stimuli/lakes/405064_left.png,stimuli/lakes/405064_right.png,space,8.876,,0,0,0,64,1,,,,,
,,,,,,$8507764428,2020-07-14_22h37.34.855,fisher_task,2020.1.3,Win32,60,-0.143518519,-0.428240741,1,0,0,1.597,scale,,,,,,0.275930788,0.223606798,0.275930788,0.223606798,stimuli/lakes/5090125_left.png,stimuli/lakes/5090125_right.png,,,,0,1,1,125,1,,,,,
,,,,,,$8507764428,2020-07-14_22h37.34.855,fisher_task,2020.1.3,Win32,60,-0.181712963,-0.424768519,1,0,0,1.38,scale,,,,,,0.3702,0.3,0.1234,0.1,stimuli/lakes/906079_left.png,stimuli/lakes/906079_right.png,,,,0,2,2,79,1,,,,,
,,,,,,$8507764428,2020-07-14_22h37.34.855,fisher_task,2020.1.3,Win32,60,-0.015046296,-0.263888889,1,0,0,2.862,scale,,,,,,0.2468,0.2,0.302267034,0.244948974,stimuli/lakes/406074_left.png,stimuli/lakes/406074_right.png,,,,0,3,3,74,1,,,,,
,,,,,,$8507764428,2020-07-14_22h37.34.855,fisher_task,2020.1.3,Win32,60,0.112268519,-0.304398148,1,0,0,3.679,scale,,,,,,0.302267034,0.244948974,0.2468,0.2,stimuli/lakes/604046_left.png,stimuli/lakes/604046_right.png,,,,0,4,4,46,1,,,,,
,,,,,,$8507764428,2020-07-14_22h37.34.855,fisher_task,2020.1.3,Win32,60,-0.15162037,-0.336805556,1,0,0,3.547,scale,,,,,,0.349027907,0.282842712,0.174513954,0.141421356,stimuli/lakes/803039_left.png,stimuli/lakes/803039_right.png,,,,0,5,5,39,1,,,,,
,,,,,,$8507764428,2020-07-14_22h37.34.855,fisher_task,2020.1.3,Win32,60,0.145833333,-0.424768519,1,0,0,1.862,scale,,,,,,0.21373507,0.173205081,0.326485712,0.264575131,stimuli/lakes/30100_left.png,stimuli/lakes/30100_right.png,,,,0,6,6,0,1,,,,,
,,,,,,$8507764428,2020-07-14_22h37.34.855,fisher_task,2020.1.3,Win32,60,-0.159722222,-0.43287037,1,0,0,1.813,scale,,,,,,0.349027907,0.282842712,0.174513954,0.141421356,stimuli/lakes/8080118_left.png,stimuli/lakes/8080118_right.png,,,,0,7,7,118,1,,,,,
,,,,,,$8507764428,2020-07-14_22h37.34.855,fisher_task,2020.1.3,Win32,60,-0.179398148,-0.409722222,1,0,0,1.93,scale,,,,,,0.275930788,0.223606798,0.275930788,0.223606798,stimuli/lakes/5080113_left.png,stimuli/lakes/5080113_right.png,,,,0,8,8,113,1,,,,,
,,,,,,$8507764428,2020-07-14_22h37.34.855,fisher_task,2020.1.3,Win32,60,-0.091435185,-0.290509259,1,0,0,2.782,scale,,,,,,0.302267034,0.244948974,0.2468,0.2,stimuli/lakes/60105_left.png,stimuli/lakes/60105_right.png,,,,0,9,9,5,1,,,,,
,,,,,,$8507764428,2020-07-14_22h37.34.855,fisher_task,2020.1.3,Win32,60,-0.091435185,-0.275462963,1,0,0,4.461,scale,,,,,,0.21373507,0.173205081,0.326485712,0.264575131,stimuli/lakes/3080110_left.png,stimuli/lakes/3080110_right.png,,,,0,10,10,110,1,,,,,
,,,,,,$8507764428,2020-07-14_22h37.34.855,fisher_task,2020.1.3,Win32,60,-0.001157407,-0.261574074,1,0,0,2.446,scale,,,,,,0.3702,0.3,0.1234,0.1,stimuli/lakes/901010_left.png,stimuli/lakes/901010_right.png,,,,0,11,11,10,1,,,,,
,,,,,,$8507764428,2020-07-14_22h37.34.855,fisher_task,2020.1.3,Win32,60,-0.118055556,-0.289351852,1,0,0,4.295,scale,,,,,,0.1234,0.1,0.3702,0.3,stimuli/lakes/1080107_left.png,stimuli/lakes/1080107_right.png,,,,0,12,12,107,1,,,,,
,,,,,,$8507764428,2020-07-14_22h37.34.855,fisher_task,2020.1.3,Win32,60,-0.142361111,-0.387731481,1,0,0,2.516,scale,,,,,,0.326485712,0.264575131,0.21373507,0.173205081,stimuli/lakes/705067_left.png,stimuli/lakes/705067_right.png,,,,0,13,13,67,1,,,,,
,,,,,,$8507764428,2020-07-14_22h37.34.855,fisher_task,2020.1.3,Win32,60,-0.131944444,-0.329861111,1,0,0,2.413,scale,,,,,,0.349027907,0.282842712,0.174513954,0.141421356,stimuli/lakes/804057_left.png,stimuli/lakes/804057_right.png,,,,0,14,14,57,1,,,,,
,,,,,,$8507764428,2020-07-14_22h37.34.855,fisher_task,2020.1.3,Win32,60,0.145833333,-0.340277778,1,0,0,2.097,scale,,,,,,0.21373507,0.173205081,0.326485712,0.264575131,stimuli/lakes/305061_left.png,stimuli/lakes/305061_right.png,,,,0,15,15,61,1,,,,,
,,,,,,$8507764428,2020-07-14_22h37.34.855,fisher_task,2020.1.3,Win32,60,0.143518519,-0.391203704,1,0,0,1.665,scale,,,,,,0.21373507,0.173205081,0.326485712,0.264575131,stimuli/lakes/306082_left.png,stimuli/lakes/306082_right.png,,,,0,16,16,82,1,,,,,
,,,,,,$8507764428,2020-07-14_22h37.34.855,fisher_task,2020.1.3,Win32,60,-0.071759259,-0.27662037,1,0,0,3.144,scale,,,,,,0.174513954,0.141421356,0.349027907,0.282842712,stimuli/lakes/207099_left.png,stimuli/lakes/207099_right.png,,,,0,17,17,99,1,,,,,
,,,,,,$8507764428,2020-07-14_22h37.34.855,fisher_task,2020.1.3,Win32,60,-0.071759259,-0.27662037,1,0,0,1.797,scale,,,,,,0.2468,0.2,0.302267034,0.244948974,stimuli/lakes/407092_left.png,stimuli/lakes/407092_right.png,,,,0,18,18,92,1,,,,,
,,,,,,$8507764428,2020-07-14_22h37.34.855,fisher_task,2020.1.3,Win32,60,0.125,-0.306712963,1,0,0,1.88,scale,,,,,,0.2468,0.2,0.302267034,0.244948974,stimuli/lakes/403026_left.png,stimuli/lakes/403026_right.png,,,,0,19,19,26,1,,,,,
,,,,,,$8507764428,2020-07-14_22h37.34.855,fisher_task,2020.1.3,Win32,60,0.138888889,-0.418981481,1,0,0,1.315,scale,,,,,,0.2468,0.2,0.302267034,0.244948974,stimuli/lakes/40102_left.png,stimuli/lakes/40102_right.png,,,,0,20,20,2,1,,,,,
,,,,,,$8507764428,2020-07-14_22h37.34.855,fisher_task,2020.1.3,Win32,60,-0.164351852,-0.391203704,1,0,0,1.796,scale,,,,,,0.302267034,0.244948974,0.2468,0.2,stimuli/lakes/6080114_left.png,stimuli/lakes/6080114_right.png,,,,0,21,21,114,1,,,,,
,,,,,,$8507764428,2020-07-14_22h37.34.855,fisher_task,2020.1.3,Win32,60,0.170138889,-0.386574074,1,0,0,1.465,scale,,,,,,0.21373507,0.173205081,0.326485712,0.264575131,stimuli/lakes/302013_left.png,stimuli/lakes/302013_right.png,,,space,0,22,22,13,1,8.2,,,,
,,,,,,$8507764428,2020-07-14_22h37.34.855,fisher_task,2020.1.3,Win32,60,0.118055556,-0.328703704,1,0,0,1.431,scale,,,,,,0.174513954,0.141421356,0.349027907,0.282842712,stimuli/lakes/206072_left.png,stimuli/lakes/206072_right.png,,,,0,23,23,72,1,,,,,
,,,,,,$8507764428,2020-07-14_22h37.34.855,fisher_task,2020.1.3,Win32,60,-0.179398148,-0.393518519,1,0,0,1.564,scale,,,,,,0.326485712,0.264575131,0.21373507,0.173205081,stimuli/lakes/707095_left.png,stimuli/lakes/707095_right.png,,,,0,24,24,95,1,,,,,
,,,,,,$8507764428,2020-07-14_22h37.34.855,fisher_task,2020.1.3,Win32,60,0.001157407,-0.274305556,1,0,0,1.811,scale,,,,,,0.326485712,0.264575131,0.21373507,0.173205081,stimuli/lakes/70108_left.png,stimuli/lakes/70108_right.png,,,,0,25,25,8,1,,,,,
,,,,,,$8507764428,2020-07-14_22h37.34.855,fisher_task,2020.1.3,Win32,60,0.131944444,-0.318287037,1,0,0,2.245,scale,,,,,,0.1234,0.1,0.3702,0.3,stimuli/lakes/1090119_left.png,stimuli/lakes/1090119_right.png,,,,0,26,26,119,1,,,,,
,,,,,,$8507764428,2020-07-14_22h37.34.855,fisher_task,2020.1.3,Win32,60,-0.145833333,-0.332175926,1,0,0,1.914,scale,,,,,,0.326485712,0.264575131,0.21373507,0.173205081,stimuli/lakes/703029_left.png,stimuli/lakes/703029_right.png,,,,0,27,27,29,1,,,,,
,,,,,,$8507764428,2020-07-14_22h37.34.855,fisher_task,2020.1.3,Win32,60,-0.142361111,-0.362268519,1,0,0,1.381,scale,,,,,,0.326485712,0.264575131,0.21373507,0.173205081,stimuli/lakes/706086_left.png,stimuli/lakes/706086_right.png,,,,0,28,28,86,1,,,,,
,,,,,,$8507764428,2020-07-14_22h37.34.855,fisher_task,2020.1.3,Win32,60,-0.141203704,-0.321759259,1,0,0,1.481,scale,,,,,,0.2468,0.2,0.302267034,0.244948974,stimuli/lakes/4090123_left.png,stimuli/lakes/4090123_right.png,,,,0,29,29,123,1,,,,,
,,,,,,$8507764428,2020-07-14_22h37.34.855,fisher_task,2020.1.3,Win32,60,0.150462963,-0.381944444,1,0,0,1.813,scale,,,,,,0.21373507,0.173205081,0.326485712,0.264575131,stimuli/lakes/303034_left.png,stimuli/lakes/303034_right.png,,,,0,30,30,34,1,,,,,
,,,,,,$8507764428,2020-07-14_22h37.34.855,fisher_task,2020.1.3,Win32,60,0.101851852,-0.311342593,1,0,0,1.613,scale,,,,,,0.174513954,0.141421356,0.349027907,0.282842712,stimuli/lakes/207090_left.png,stimuli/lakes/207090_right.png,,,,0,31,31,90,1,,,,,
,,,,,,$8507764428,2020-07-14_22h37.34.855,fisher_task,2020.1.3,Win32,60,-0.136574074,-0.313657407,1,0,0,1.249,scale,,,,,,0.326485712,0.264575131,0.21373507,0.173205081,stimuli/lakes/706077_left.png,stimuli/lakes/706077_right.png,,,,0,32,32,77,1,,,,,
,,,,,,$8507764428,2020-07-14_22h37.34.855,fisher_task,2020.1.3,Win32,60,0.12962963,-0.375,1,0,0,2.763,scale,,,,,,0.174513954,0.141421356,0.349027907,0.282842712,stimuli/lakes/206081_left.png,stimuli/lakes/206081_right.png,,,,0,33,33,81,1,,,,,
,,,,,,$8507764428,2020-07-14_22h37.34.855,fisher_task,2020.1.3,Win32,60,0.048611111,-0.273148148,1,0,0,1.448,scale,,,,,,0.349027907,0.282842712,0.174513954,0.141421356,stimuli/lakes/803030_left.png,stimuli/lakes/803030_right.png,,,,0,34,34,30,1,,,,,
,,,,,,$8507764428,2020-07-14_22h37.34.855,fisher_task,2020.1.3,Win32,60,-0.087962963,-0.287037037,1,0,0,1.514,scale,,,,,,0.174513954,0.141421356,0.349027907,0.282842712,stimuli/lakes/2080108_left.png,stimuli/lakes/2080108_right.png,,,,0,35,35,108,1,,,,,
,,,,,,$8507764428,2020-07-14_22h37.34.855,fisher_task,2020.1.3,Win32,60,0.15162037,-0.359953704,1,0,0,1.732,scale,,,,,,0.275930788,0.223606798,0.275930788,0.223606798,stimuli/lakes/503027_left.png,stimuli/lakes/503027_right.png,,,,0,36,36,27,1,,,,,
,,,,,,$8507764428,2020-07-14_22h37.34.855,fisher_task,2020.1.3,Win32,60,0.15162037,-0.380787037,1,0,0,1.664,scale,,,,,,0.2468,0.2,0.302267034,0.244948974,stimuli/lakes/404044_left.png,stimuli/lakes/404044_right.png,,,,0,37,37,44,1,,,,,
,,,,,,$8507764428,2020-07-14_22h37.34.855,fisher_task,2020.1.3,Win32,60,-0.122685185,-0.303240741,1,0,0,1.697,scale,,,,,,0.21373507,0.173205081,0.326485712,0.264575131,stimuli/lakes/307091_left.png,stimuli/lakes/307091_right.png,,,,0,38,38,91,1,,,,,
,,,,,,$8507764428,2020-07-14_22h37.34.855,fisher_task,2020.1.3,Win32,60,-0.113425926,-0.287037037,1,0,0,1.696,scale,,,,,,0.326485712,0.264575131,0.21373507,0.173205081,stimuli/lakes/704056_left.png,stimuli/lakes/704056_right.png,,,,0,39,39,56,1,,,,,
,,,,,,$8507764428,2020-07-14_22h37.34.855,fisher_task,2020.1.3,Win32,60,-0.157407407,-0.373842593,1,0,0,1.247,scale,,,,,,0.2468,0.2,0.302267034,0.244948974,stimuli/lakes/4080111_left.png,stimuli/lakes/4080111_right.png,,,,0,40,40,111,1,,,,,
,,,,,,$8507764428,2020-07-14_22h37.34.855,fisher_task,2020.1.3,Win32,60,-0.165509259,-0.414351852,1,0,0,1.314,scale,,,,,,0.302267034,0.244948974,0.2468,0.2,stimuli/lakes/6090126_left.png,stimuli/lakes/6090126_right.png,,,,0,41,41,126,1,,,,,
,,,,,,$8507764428,2020-07-14_22h37.34.855,fisher_task,2020.1.3,Win32,60,0.174768519,-0.386574074,1,0,0,1.312,scale,,,,,,0.174513954,0.141421356,0.349027907,0.282842712,stimuli/lakes/204042_left.png,stimuli/lakes/204042_right.png,,,,0,42,42,42,1,,,,,
,,,,,,$8507764428,2020-07-14_22h37.34.855,fisher_task,2020.1.3,Win32,60,-0.09837963,-0.291666667,1,0,0,1.83,scale,,,,,,0.21373507,0.173205081,0.326485712,0.264575131,stimuli/lakes/3070100_left.png,stimuli/lakes/3070100_right.png,,,,0,43,43,100,1,,,,,
,,,,,,$8507764428,2020-07-14_22h37.34.855,fisher_task,2020.1.3,Win32,60,-0.15162037,-0.331018519,1,0,0,1.265,scale,,,,,,0.275930788,0.223606798,0.275930788,0.223606798,stimuli/lakes/507093_left.png,stimuli/lakes/507093_right.png,,,space,0,44,44,93,1,6.907,,,,
,,,,,,$8507764428,2020-07-14_22h37.34.855,fisher_task,2020.1.3,Win32,60,-0.181712963,-0.422453704,1,0,0,1.432,scale,,,,,,0.349027907,0.282842712,0.174513954,0.141421356,stimuli/lakes/806078_left.png,stimuli/lakes/806078_right.png,,,,0,45,45,78,1,,,,,
,,,,,,$8507764428,2020-07-14_22h37.34.855,fisher_task,2020.1.3,Win32,60,-0.163194444,-0.416666667,1,0,0,1.215,scale,,,,,,0.302267034,0.244948974,0.2468,0.2,stimuli/lakes/6090127_left.png,stimuli/lakes/6090127_right.png,,,,0,46,46,127,1,,,,,
,,,,,,$8507764428,2020-07-14_22h37.34.855,fisher_task,2020.1.3,Win32,60,-0.087962963,-0.293981481,1,0,0,1.563,scale,,,,,,0.2468,0.2,0.302267034,0.244948974,stimuli/lakes/4070101_left.png,stimuli/lakes/4070101_right.png,,,,0,47,47,101,1,,,,,
,,,,,,$8507764428,2020-07-14_22h37.34.855,fisher_task,2020.1.3,Win32,60,0.042824074,-0.27662037,1,0,0,1.514,scale,,,,,,0.3702,0.3,0.1234,0.1,stimuli/lakes/903040_left.png,stimuli/lakes/903040_right.png,,,,0,48,48,40,1,,,,,
,,,,,,$8507764428,2020-07-14_22h37.34.855,fisher_task,2020.1.3,Win32,60,0.137731481,-0.400462963,1,0,0,1.597,scale,,,,,,0.1234,0.1,0.3702,0.3,stimuli/lakes/103032_left.png,stimuli/lakes/103032_right.png,,,,0,49,49,32,1,,,,,
,,,,,,$8507764428,2020-07-14_22h37.34.855,fisher_task,2020.1.3,Win32,60,-0.180555556,-0.417824074,1,0,0,1.93,scale,,,,,,0.349027907,0.282842712,0.174513954,0.141421356,stimuli/lakes/807096_left.png,stimuli/lakes/807096_right.png,,,,0,50,50,96,1,,,,,
,,,,,,$8507764428,2020-07-14_22h37.34.855,fisher_task,2020.1.3,Win32,60,-0.163194444,-0.413194444,1,0,0,3.229,scale,,,,,,0.3702,0.3,0.1234,0.1,stimuli/lakes/904049_left.png,stimuli/lakes/904049_right.png,,,,0,51,51,49,1,,,,,
,,,,,,$8507764428,2020-07-14_22h37.34.855,fisher_task,2020.1.3,Win32,60,0.163194444,-0.402777778,1,0,0,1.846,scale,,,,,,0.302267034,0.244948974,0.2468,0.2,stimuli/lakes/60106_left.png,stimuli/lakes/60106_right.png,,,,0,52,52,6,1,,,,,
,,,,,,$8507764428,2020-07-14_22h37.34.855,fisher_task,2020.1.3,Win32,60,0.15625,-0.386574074,1,0,0,1.431,scale,,,,,,0.326485712,0.264575131,0.21373507,0.173205081,stimuli/lakes/702020_left.png,stimuli/lakes/702020_right.png,,,,0,53,53,20,1,,,,,
,,,,,,$8507764428,2020-07-14_22h37.34.855,fisher_task,2020.1.3,Win32,60,0.121527778,-0.304398148,1,0,0,3.247,scale,,,,,,0.174513954,0.141421356,0.349027907,0.282842712,stimuli/lakes/204051_left.png,stimuli/lakes/204051_right.png,,,,0,54,54,51,1,,,,,
,,,,,,$8507764428,2020-07-14_22h37.34.855,fisher_task,2020.1.3,Win32,60,0.016203704,-0.256944444,1,0,0,1.88,scale,,,,,,0.2468,0.2,0.302267034,0.244948974,stimuli/lakes/405063_left.png,stimuli/lakes/405063_right.png,,,,0,55,55,63,1,,,,,
,,,,,,$8507764428,2020-07-14_22h37.34.855,fisher_task,2020.1.3,Win32,60,0.107638889,-0.256944444,1,0,0,3.063,scale,,,,,,0.21373507,0.173205081,0.326485712,0.264575131,stimuli/lakes/3080109_left.png,stimuli/lakes/3080109_right.png,,,,0,56,56,109,1,,,,,
,,,,,,$8507764428,2020-07-14_22h37.34.855,fisher_task,2020.1.3,Win32,60,-0.173611111,-0.376157407,1,0,0,2.064,scale,,,,,,0.326485712,0.264575131,0.21373507,0.173205081,stimuli/lakes/7090129_left.png,stimuli/lakes/7090129_right.png,,,,0,57,57,129,1,,,,,
,,,,,,$8507764428,2020-07-14_22h37.34.855,fisher_task,2020.1.3,Win32,60,-0.005787037,-0.270833333,1,0,0,2.113,scale,,,,,,0.275930788,0.223606798,0.275930788,0.223606798,stimuli/lakes/504054_left.png,stimuli/lakes/504054_right.png,,,,0,58,58,54,1,,,,,
,,,,,,$8507764428,2020-07-14_22h37.34.855,fisher_task,2020.1.3,Win32,60,0.134259259,-0.349537037,1,0,0,2.414,scale,,,,,,0.21373507,0.173205081,0.326485712,0.264575131,stimuli/lakes/302012_left.png,stimuli/lakes/302012_right.png,,,,0,59,59,12,1,,,,,
,,,,,,$8507764428,2020-07-14_22h37.34.855,fisher_task,2020.1.3,Win32,60,0.140046296,-0.416666667,1,0,0,1.498,scale,,,,,,0.21373507,0.173205081,0.326485712,0.264575131,stimuli/lakes/304043_left.png,stimuli/lakes/304043_right.png,,,,0,60,60,43,1,,,,,
,,,,,,$8507764428,2020-07-14_22h37.34.855,fisher_task,2020.1.3,Win32,60,0.155092593,-0.366898148,1,0,0,1.564,scale,,,,,,0.1234,0.1,0.3702,0.3,stimuli/lakes/104041_left.png,stimuli/lakes/104041_right.png,,,,0,61,61,41,1,,,,,
,,,,,,$8507764428,2020-07-14_22h37.34.855,fisher_task,2020.1.3,Win32,60,-0.145833333,-0.342592593,1,0,0,1.712,scale,,,,,,0.275930788,0.223606798,0.275930788,0.223606798,stimuli/lakes/5070102_left.png,stimuli/lakes/5070102_right.png,,,,0,62,62,102,1,,,,,
,,,,,,$8507764428,2020-07-14_22h37.34.855,fisher_task,2020.1.3,Win32,60,0.150462963,-0.349537037,1,0,0,1.681,scale,,,,,,0.1234,0.1,0.3702,0.3,stimuli/lakes/106080_left.png,stimuli/lakes/106080_right.png,,,,0,63,63,80,1,,,,,
,,,,,,$8507764428,2020-07-14_22h37.34.855,fisher_task,2020.1.3,Win32,60,-0.168981481,-0.376157407,1,0,0,2.03,scale,,,,,,0.302267034,0.244948974,0.2468,0.2,stimuli/lakes/605066_left.png,stimuli/lakes/605066_right.png,,,,0,64,64,66,1,,,,,
,,,,,,$8507764428,2020-07-14_22h37.34.855,fisher_task,2020.1.3,Win32,60,0.16087963,-0.412037037,1,0,0,1.714,scale,,,,,,0.275930788,0.223606798,0.275930788,0.223606798,stimuli/lakes/504045_left.png,stimuli/lakes/504045_right.png,,,,0,65,65,45,1,,,,,
,,,,,,$8507764428,2020-07-14_22h37.34.855,fisher_task,2020.1.3,Win32,60,-0.032407407,-0.25,1,0,0,1.398,scale,,,,,,0.302267034,0.244948974,0.2468,0.2,stimuli/lakes/604055_left.png,stimuli/lakes/604055_right.png,,,space,0,66,66,55,1,11.699,,,,
,,,,,,$8507764428,2020-07-14_22h37.34.855,fisher_task,2020.1.3,Win32,60,-0.128472222,-0.326388889,1,0,0,1.664,scale,,,,,,0.302267034,0.244948974,0.2468,0.2,stimuli/lakes/605065_left.png,stimuli/lakes/605065_right.png,,,,0,67,67,65,1,,,,,
,,,,,,$8507764428,2020-07-14_22h37.34.855,fisher_task,2020.1.3,Win32,60,0.148148148,-0.341435185,1,0,0,1.696,scale,,,,,,0.1234,0.1,0.3702,0.3,stimuli/lakes/105059_left.png,stimuli/lakes/105059_right.png,,,,0,68,68,59,1,,,,,
,,,,,,$8507764428,2020-07-14_22h37.34.855,fisher_task,2020.1.3,Win32,60,-0.159722222,-0.384259259,1,0,0,1.648,scale,,,,,,0.302267034,0.244948974,0.2468,0.2,stimuli/lakes/6080115_left.png,stimuli/lakes/6080115_right.png,,,,0,69,69,115,1,,,,,
,,,,,,$8507764428,2020-07-14_22h37.34.855,fisher_task,2020.1.3,Win32,60,0.006944444,-0.269675926,1,0,0,2.247,scale,,,,,,0.21373507,0.173205081,0.326485712,0.264575131,stimuli/lakes/306073_left.png,stimuli/lakes/306073_right.png,,,,0,70,70,73,1,,,,,
,,,,,,$8507764428,2020-07-14_22h37.34.855,fisher_task,2020.1.3,Win32,60,-0.149305556,-0.395833333,1,0,0,2.047,scale,,,,,,0.3702,0.3,0.1234,0.1,stimuli/lakes/905070_left.png,stimuli/lakes/905070_right.png,,,,0,71,71,70,1,,,,,
,,,,,,$8507764428,2020-07-14_22h37.34.855,fisher_task,2020.1.3,Win32,60,-0.155092593,-0.422453704,1,0,0,1.398,scale,,,,,,0.3702,0.3,0.1234,0.1,stimuli/lakes/906088_left.png,stimuli/lakes/906088_right.png,,,,0,72,72,88,1,,,,,
,,,,,,$8507764428,2020-07-14_22h37.34.855,fisher_task,2020.1.3,Win32,60,0.155092593,-0.381944444,1,0,0,1.931,scale,,,,,,0.275930788,0.223606798,0.275930788,0.223606798,stimuli/lakes/502016_left.png,stimuli/lakes/502016_right.png,,,,0,73,73,16,1,,,,,
,,,,,,$8507764428,2020-07-14_22h37.34.855,fisher_task,2020.1.3,Win32,60,0.153935185,-0.372685185,1,0,0,3.013,scale,,,,,,0.349027907,0.282842712,0.174513954,0.141421356,stimuli/lakes/80109_left.png,stimuli/lakes/80109_right.png,,,,0,74,74,9,1,,,,,
,,,,,,$8507764428,2020-07-14_22h37.34.855,fisher_task,2020.1.3,Win32,60,-0.016203704,-0.275462963,1,0,0,1.93,scale,,,,,,0.3702,0.3,0.1234,0.1,stimuli/lakes/907097_left.png,stimuli/lakes/907097_right.png,,,,0,75,75,97,1,,,,,
,,,,,,$8507764428,2020-07-14_22h37.34.855,fisher_task,2020.1.3,Win32,60,0.170138889,-0.43287037,1,0,0,2.136,scale,,,,,,0.275930788,0.223606798,0.275930788,0.223606798,stimuli/lakes/50104_left.png,stimuli/lakes/50104_right.png,,,,0,76,76,4,1,,,,,
,,,,,,$8507764428,2020-07-14_22h37.34.855,fisher_task,2020.1.3,Win32,60,0.090277778,-0.326388889,1,0,0,3.995,scale,,,,,,0.326485712,0.264575131,0.21373507,0.173205081,stimuli/lakes/703038_left.png,stimuli/lakes/703038_right.png,,,,0,77,77,38,1,,,,,
,,,,,,$8507764428,2020-07-14_22h37.34.855,fisher_task,2020.1.3,Win32,60,-0.155092593,-0.353009259,1,0,0,3.528,scale,,,,,,0.2468,0.2,0.302267034,0.244948974,stimuli/lakes/4090124_left.png,stimuli/lakes/4090124_right.png,,,,0,78,78,124,1,,,,,
,,,,,,$8507764428,2020-07-14_22h37.34.855,fisher_task,2020.1.3,Win32,60,-0.092592593,-0.302083333,1,0,0,2.148,scale,,,,,,0.21373507,0.173205081,0.326485712,0.264575131,stimuli/lakes/3090122_left.png,stimuli/lakes/3090122_right.png,,,,0,79,79,122,1,,,,,
,,,,,,$8507764428,2020-07-14_22h37.34.855,fisher_task,2020.1.3,Win32,60,0.15162037,-0.346064815,1,0,0,1.398,scale,,,,,,0.302267034,0.244948974,0.2468,0.2,stimuli/lakes/602018_left.png,stimuli/lakes/602018_right.png,,,,0,80,80,18,1,,,,,
,,,,,,$8507764428,2020-07-14_22h37.34.855,fisher_task,2020.1.3,Win32,60,-0.149305556,-0.356481481,1,0,0,3.779,scale,,,,,,0.3702,0.3,0.1234,0.1,stimuli/lakes/903031_left.png,stimuli/lakes/903031_right.png,,,,0,81,81,31,1,,,,,
,,,,,,$8507764428,2020-07-14_22h37.34.855,fisher_task,2020.1.3,Win32,60,0.145833333,-0.380787037,1,0,0,3.845,scale,,,,,,0.1234,0.1,0.3702,0.3,stimuli/lakes/106071_left.png,stimuli/lakes/106071_right.png,,,,0,82,82,71,1,,,,,
,,,,,,$8507764428,2020-07-14_22h37.34.855,fisher_task,2020.1.3,Win32,60,0.134259259,-0.347222222,1,0,0,1.631,scale,,,,,,0.2468,0.2,0.302267034,0.244948974,stimuli/lakes/403035_left.png,stimuli/lakes/403035_right.png,,,,0,83,83,35,1,,,,,
,,,,,,$8507764428,2020-07-14_22h37.34.855,fisher_task,2020.1.3,Win32,60,0.108796296,-0.295138889,1,0,0,3.513,scale,,,,,,0.326485712,0.264575131,0.21373507,0.173205081,stimuli/lakes/70107_left.png,stimuli/lakes/70107_right.png,,,,0,84,84,7,1,,,,,
,,,,,,$8507764428,2020-07-14_22h37.34.855,fisher_task,2020.1.3,Win32,60,-0.021990741,-0.263888889,1,0,0,2.079,scale,,,,,,0.3702,0.3,0.1234,0.1,stimuli/lakes/904058_left.png,stimuli/lakes/904058_right.png,,,,0,85,85,58,1,,,,,
,,,,,,$8507764428,2020-07-14_22h37.34.855,fisher_task,2020.1.3,Win32,60,0.131944444,-0.322916667,1,0,0,1.932,scale,,,,,,0.174513954,0.141421356,0.349027907,0.282842712,stimuli/lakes/202011_left.png,stimuli/lakes/202011_right.png,,,,0,86,86,11,1,,,,,
,,,,,,$8507764428,2020-07-14_22h37.34.855,fisher_task,2020.1.3,Win32,60,0.133101852,-0.322916667,1,0,0,2.929,scale,,,,,,0.349027907,0.282842712,0.174513954,0.141421356,stimuli/lakes/802021_left.png,stimuli/lakes/802021_right.png,,,,0,87,87,21,1,,,,,
,,,,,,$8507764428,2020-07-14_22h37.34.855,fisher_task,2020.1.3,Win32,60,-0.155092593,-0.372685185,1,0,0,1.848,scale,,,,,,0.2468,0.2,0.302267034,0.244948974,stimuli/lakes/4080112_left.png,stimuli/lakes/4080112_right.png,,,space,0,88,88,112,1,12.44,,,,
,,,,,,$8507764428,2020-07-14_22h37.34.855,fisher_task,2020.1.3,Win32,60,0.145833333,-0.396990741,1,0,0,1.914,scale,,,,,,0.21373507,0.173205081,0.326485712,0.264575131,stimuli/lakes/303025_left.png,stimuli/lakes/303025_right.png,,,,0,89,89,25,1,,,,,
,,,,,,$8507764428,2020-07-14_22h37.34.855,fisher_task,2020.1.3,Win32,60,0.149305556,-0.420138889,1,0,0,1.397,scale,,,,,,0.21373507,0.173205081,0.326485712,0.264575131,stimuli/lakes/30101_left.png,stimuli/lakes/30101_right.png,,,,0,90,90,1,1,,,,,
,,,,,,$8507764428,2020-07-14_22h37.34.855,fisher_task,2020.1.3,Win32,60,-0.127314815,-0.358796296,1,0,0,1.848,scale,,,,,,0.275930788,0.223606798,0.275930788,0.223606798,stimuli/lakes/506075_left.png,stimuli/lakes/506075_right.png,,,,0,91,91,75,1,,,,,
,,,,,,$8507764428,2020-07-14_22h37.34.855,fisher_task,2020.1.3,Win32,60,-0.165509259,-0.326388889,1,0,0,2.598,scale,,,,,,0.21373507,0.173205081,0.326485712,0.264575131,stimuli/lakes/3090121_left.png,stimuli/lakes/3090121_right.png,,,,0,92,92,121,1,,,,,
,,,,,,$8507764428,2020-07-14_22h37.34.855,fisher_task,2020.1.3,Win32,60,-0.136574074,-0.293981481,1,0,0,1.697,scale,,,,,,0.326485712,0.264575131,0.21373507,0.173205081,stimuli/lakes/7090128_left.png,stimuli/lakes/7090128_right.png,,,,0,93,93,128,1,,,,,
,,,,,,$8507764428,2020-07-14_22h37.34.855,fisher_task,2020.1.3,Win32,60,0.040509259,-0.261574074,1,0,0,2.964,scale,,,,,,0.326485712,0.264575131,0.21373507,0.173205081,stimuli/lakes/702019_left.png,stimuli/lakes/702019_right.png,,,,0,94,94,19,1,,,,,
,,,,,,$8507764428,2020-07-14_22h37.34.855,fisher_task,2020.1.3,Win32,60,0.164351852,-0.435185185,1,0,0,1.848,scale,,,,,,0.174513954,0.141421356,0.349027907,0.282842712,stimuli/lakes/203024_left.png,stimuli/lakes/203024_right.png,,,,0,95,95,24,1,,,,,
,,,,,,$8507764428,2020-07-14_22h37.34.855,fisher_task,2020.1.3,Win32,60,0.099537037,-0.284722222,1,0,0,1.681,scale,,,,,,0.302267034,0.244948974,0.2468,0.2,stimuli/lakes/603037_left.png,stimuli/lakes/603037_right.png,,,,0,96,96,37,1,,,,,
,,,,,,$8507764428,2020-07-14_22h37.34.855,fisher_task,2020.1.3,Win32,60,-0.149305556,-0.363425926,1,0,0,2.012,scale,,,,,,0.302267034,0.244948974,0.2468,0.2,stimuli/lakes/6070103_left.png,stimuli/lakes/6070103_right.png,,,,0,97,97,103,1,,,,,
,,,,,,$8507764428,2020-07-14_22h37.34.855,fisher_task,2020.1.3,Win32,60,-0.144675926,-0.377314815,1,0,0,1.414,scale,,,,,,0.302267034,0.244948974,0.2468,0.2,stimuli/lakes/607094_left.png,stimuli/lakes/607094_right.png,,,,0,98,98,94,1,,,,,
,,,,,,$8507764428,2020-07-14_22h37.34.855,fisher_task,2020.1.3,Win32,60,-0.064814815,-0.261574074,1,0,0,2.33,scale,,,,,,0.1234,0.1,0.3702,0.3,stimuli/lakes/107089_left.png,stimuli/lakes/107089_right.png,,,,0,99,99,89,1,,,,,
,,,,,,$8507764428,2020-07-14_22h37.34.855,fisher_task,2020.1.3,Win32,60,-0.094907407,-0.269675926,1,0,0,2.265,scale,,,,,,0.1234,0.1,0.3702,0.3,stimuli/lakes/107098_left.png,stimuli/lakes/107098_right.png,,,,0,100,100,98,1,,,,,
,,,,,,$8507764428,2020-07-14_22h37.34.855,fisher_task,2020.1.3,Win32,60,-0.166666667,-0.415509259,1,0,0,1.73,scale,,,,,,0.3702,0.3,0.1234,0.1,stimuli/lakes/9070106_left.png,stimuli/lakes/9070106_right.png,,,,0,101,101,106,1,,,,,
,,,,,,$8507764428,2020-07-14_22h37.34.855,fisher_task,2020.1.3,Win32,60,-0.011574074,-0.269675926,1,0,0,2.481,scale,,,,,,0.3702,0.3,0.1234,0.1,stimuli/lakes/902022_left.png,stimuli/lakes/902022_right.png,,,,0,102,102,22,1,,,,,
,,,,,,$8507764428,2020-07-14_22h37.34.855,fisher_task,2020.1.3,Win32,60,-0.146990741,-0.351851852,1,0,0,2.08,scale,,,,,,0.349027907,0.282842712,0.174513954,0.141421356,stimuli/lakes/806087_left.png,stimuli/lakes/806087_right.png,,,,0,103,103,87,1,,,,,
,,,,,,$8507764428,2020-07-14_22h37.34.855,fisher_task,2020.1.3,Win32,60,-0.146990741,-0.351851852,1,0,0,2.064,scale,,,,,,0.326485712,0.264575131,0.21373507,0.173205081,stimuli/lakes/705068_left.png,stimuli/lakes/705068_right.png,,,,0,104,104,68,1,,,,,
,,,,,,$8507764428,2020-07-14_22h37.34.855,fisher_task,2020.1.3,Win32,60,0.131944444,-0.335648148,1,0,0,2.597,scale,,,,,,0.2468,0.2,0.302267034,0.244948974,stimuli/lakes/40103_left.png,stimuli/lakes/40103_right.png,,,,0,105,105,3,1,,,,,
,,,,,,$8507764428,2020-07-14_22h37.34.855,fisher_task,2020.1.3,Win32,60,0.146990741,-0.386574074,1,0,0,1.765,scale,,,,,,0.1234,0.1,0.3702,0.3,stimuli/lakes/104050_left.png,stimuli/lakes/104050_right.png,,,,0,106,106,50,1,,,,,
,,,,,,$8507764428,2020-07-14_22h37.34.855,fisher_task,2020.1.3,Win32,60,0.146990741,-0.386574074,1,0,0,1.465,scale,,,,,,0.174513954,0.141421356,0.349027907,0.282842712,stimuli/lakes/203033_left.png,stimuli/lakes/203033_right.png,,,,0,107,107,33,1,,,,,
,,,,,,$8507764428,2020-07-14_22h37.34.855,fisher_task,2020.1.3,Win32,60,0.15162037,-0.415509259,1,0,0,1.214,scale,,,,,,0.2468,0.2,0.302267034,0.244948974,stimuli/lakes/402014_left.png,stimuli/lakes/402014_right.png,,,,0,108,108,14,1,,,,,
,,,,,,$8507764428,2020-07-14_22h37.34.855,fisher_task,2020.1.3,Win32,60,-0.138888889,-0.408564815,1,0,0,1.93,scale,,,,,,0.326485712,0.264575131,0.21373507,0.173205081,stimuli/lakes/7080117_left.png,stimuli/lakes/7080117_right.png,,,,0,109,109,117,1,,,,,
,,,,,,$8507764428,2020-07-14_22h37.34.855,fisher_task,2020.1.3,Win32,60,0.127314815,-0.306712963,1,0,0,2.314,scale,,,,,,0.21373507,0.173205081,0.326485712,0.264575131,stimuli/lakes/305062_left.png,stimuli/lakes/305062_right.png,,,space,0,110,110,62,1,8.589,,,,
,,,,,,$8507764428,2020-07-14_22h37.34.855,fisher_task,2020.1.3,Win32,60,0.071759259,-0.270833333,1,0,0,3.046,scale,,,,,,0.302267034,0.244948974,0.2468,0.2,stimuli/lakes/603028_left.png,stimuli/lakes/603028_right.png,,,,0,111,111,28,1,,,,,
,,,,,,$8507764428,2020-07-14_22h37.34.855,fisher_task,2020.1.3,Win32,60,0.116898148,-0.340277778,1,0,0,1.48,scale,,,,,,0.2468,0.2,0.302267034,0.244948974,stimuli/lakes/404053_left.png,stimuli/lakes/404053_right.png,,,,0,112,112,53,1,,,,,
,,,,,,$8507764428,2020-07-14_22h37.34.855,fisher_task,2020.1.3,Win32,60,0.130787037,-0.303240741,1,0,0,2.614,scale,,,,,,0.302267034,0.244948974,0.2468,0.2,stimuli/lakes/602017_left.png,stimuli/lakes/602017_right.png,,,,0,113,113,17,1,,,,,
,,,,,,$8507764428,2020-07-14_22h37.34.855,fisher_task,2020.1.3,Win32,60,-0.145833333,-0.335648148,1,0,0,2.346,scale,,,,,,0.302267034,0.244948974,0.2468,0.2,stimuli/lakes/606076_left.png,stimuli/lakes/606076_right.png,,,,0,114,114,76,1,,,,,
,,,,,,$8507764428,2020-07-14_22h37.34.855,fisher_task,2020.1.3,Win32,60,0.00462963,-0.270833333,1,0,0,1.996,scale,,,,,,0.21373507,0.173205081,0.326485712,0.264575131,stimuli/lakes/304052_left.png,stimuli/lakes/304052_right.png,,,,0,115,115,52,1,,,,,
,,,,,,$8507764428,2020-07-14_22h37.34.855,fisher_task,2020.1.3,Win32,60,-0.12962963,-0.3125,1,0,0,2.764,scale,,,,,,0.349027907,0.282842712,0.174513954,0.141421356,stimuli/lakes/805069_left.png,stimuli/lakes/805069_right.png,,,,0,116,116,69,1,,,,,
,,,,,,$8507764428,2020-07-14_22h37.34.855,fisher_task,2020.1.3,Win32,60,-0.163194444,-0.381944444,1,0,0,1.548,scale,,,,,,0.326485712,0.264575131,0.21373507,0.173205081,stimuli/lakes/7080116_left.png,stimuli/lakes/7080116_right.png,,,,0,117,117,116,1,,,,,
,,,,,,$8507764428,2020-07-14_22h37.34.855,fisher_task,2020.1.3,Win32,60,0.12962963,-0.31712963,1,0,0,2.064,scale,,,,,,0.174513954,0.141421356,0.349027907,0.282842712,stimuli/lakes/205060_left.png,stimuli/lakes/205060_right.png,,,,0,118,118,60,1,,,,,
,,,,,,$8507764428,2020-07-14_22h37.34.855,fisher_task,2020.1.3,Win32,60,0.138888889,-0.400462963,1,0,0,1.28,scale,,,,,,0.2468,0.2,0.302267034,0.244948974,stimuli/lakes/402015_left.png,stimuli/lakes/402015_right.png,,,,0,119,119,15,1,,,,,
,,,,,,$8507764428,2020-07-14_22h37.34.855,fisher_task,2020.1.3,Win32,60,-0.128472222,-0.299768519,1,0,0,1.931,scale,,,,,,0.2468,0.2,0.302267034,0.244948974,stimuli/lakes/406083_left.png,stimuli/lakes/406083_right.png,,,,0,120,120,83,1,,,,,
,,,,,,$8507764428,2020-07-14_22h37.34.855,fisher_task,2020.1.3,Win32,60,0.099537037,-0.274305556,1,0,0,2.18,scale,,,,,,0.349027907,0.282842712,0.174513954,0.141421356,stimuli/lakes/804048_left.png,stimuli/lakes/804048_right.png,,,,0,121,121,48,1,,,,,
,,,,,,$8507764428,2020-07-14_22h37.34.855,fisher_task,2020.1.3,Win32,60,-0.087962963,-0.273148148,1,0,0,1.466,scale,,,,,,0.302267034,0.244948974,0.2468,0.2,stimuli/lakes/606085_left.png,stimuli/lakes/606085_right.png,,,,0,122,122,85,1,,,,,
,,,,,,$8507764428,2020-07-14_22h37.34.855,fisher_task,2020.1.3,Win32,60,-0.078703704,-0.289351852,1,0,0,4.845,scale,,,,,,0.174513954,0.141421356,0.349027907,0.282842712,stimuli/lakes/2090120_left.png,stimuli/lakes/2090120_right.png,,,,0,123,123,120,1,,,,,
,,,,,,$8507764428,2020-07-14_22h37.34.855,fisher_task,2020.1.3,Win32,60,-0.122685185,-0.354166667,1,0,0,1.998,scale,,,,,,0.326485712,0.264575131,0.21373507,0.173205081,stimuli/lakes/7070104_left.png,stimuli/lakes/7070104_right.png,,,,0,124,124,104,1,,,,,
,,,,,,$8507764428,2020-07-14_22h37.34.855,fisher_task,2020.1.3,Win32,60,0.113425926,-0.298611111,1,0,0,1.797,scale,,,,,,0.275930788,0.223606798,0.275930788,0.223606798,stimuli/lakes/503036_left.png,stimuli/lakes/503036_right.png,,,,0,125,125,36,1,,,,,
,,,,,,$8507764428,2020-07-14_22h37.34.855,fisher_task,2020.1.3,Win32,60,-0.016203704,-0.270833333,1,0,0,2.462,scale,,,,,,0.275930788,0.223606798,0.275930788,0.223606798,stimuli/lakes/506084_left.png,stimuli/lakes/506084_right.png,,,,0,126,126,84,1,,,,,
,,,,,,$8507764428,2020-07-14_22h37.34.855,fisher_task,2020.1.3,Win32,60,0.146990741,-0.388888889,1,0,0,1.764,scale,,,,,,0.1234,0.1,0.3702,0.3,stimuli/lakes/103023_left.png,stimuli/lakes/103023_right.png,,,,0,127,127,23,1,,,,,
,,,,,,$8507764428,2020-07-14_22h37.34.855,fisher_task,2020.1.3,Win32,60,-0.112268519,-0.293981481,1,0,0,2.388,scale,,,,,,0.326485712,0.264575131,0.21373507,0.173205081,stimuli/lakes/704047_left.png,stimuli/lakes/704047_right.png,,,,0,128,128,47,1,,,,,
,,,,,,$8507764428,2020-07-14_22h37.34.855,fisher_task,2020.1.3,Win32,60,-0.157407407,-0.40625,1,0,0,1.647,scale,,,,,,0.349027907,0.282842712,0.174513954,0.141421356,stimuli/lakes/8070105_left.png,stimuli/lakes/8070105_right.png,,,,0,129,129,105,1,,,,,
,,,,,,$8507764428,2020-07-14_22h37.34.855,fisher_task,2020.1.3,Win32,60,,,,,,,,,,,,,,,,,,,,,,,,,,,,space,9.679,space,63.422
