keySpace.keys,instructions.thisRepN,instructions.thisTrialN,instructions.thisN,instructions.thisIndex,instructions.ran,participant,date,expName,psychopyVersion,OS,frameRate,mouse.x,mouse.y,mouse.leftButton,mouse.midButton,mouse.rightButton,mouse.time,mouse.clicked_name,training.thisRepN,training.thisTrialN,training.thisN,training.thisIndex,training.ran,widthBasketLeft,heightBasketLeft,widthBasketRight,heightBasketRight,leftLake,rightLake,space2.keys,space2.rt,space1.keys,trials.thisRepN,trials.thisTrialN,trials.thisN,trials.thisIndex,trials.ran,space1.rt,finalSpace1.keys,finalSpace1.rt,finalSpace2.keys,finalSpace2.rt
,0,0,0,0,1,$6944808489,2020-07-15_15h39.10.009,fisher_task,2020.1.3,Win32,60,,,,,,,,,,,,,,,,,,,,,,,,,,,,,,,
,,,,,,$6944808489,2020-07-15_15h39.10.009,fisher_task,2020.1.3,Win32,60,0.154947917,-0.415364583,1,0,0,5.21455,scale,0,0,0,0,1,0.275930788,0.223606798,0.275930788,0.223606798,stimuli/training/20_left.png,stimuli/training/20_right.png,,,,,,,,,,,,,
,,,,,,$6944808489,2020-07-15_15h39.10.009,fisher_task,2020.1.3,Win32,60,-0.158854167,-0.411458333,1,0,0,3.481135,scale,0,1,1,1,1,0.275930788,0.223606798,0.275930788,0.223606798,stimuli/training/80_left.png,stimuli/training/80_right.png,,,,,,,,,,,,,
,,,,,,$6944808489,2020-07-15_15h39.10.009,fisher_task,2020.1.3,Win32,60,0.170572917,-0.420572917,1,0,0,4.115925,scale,0,2,2,2,1,0.174513954,0.141421356,0.349027907,0.282842712,stimuli/training/50_left.png,stimuli/training/50_right.png,,,,,,,,,,,,,
,,,,,,$6944808489,2020-07-15_15h39.10.009,fisher_task,2020.1.3,Win32,60,0.00390625,-0.251302083,1,0,0,7.0978,scale,0,3,3,3,1,0.349027907,0.282842712,0.174513954,0.141421356,stimuli/training/50_left.png,stimuli/training/50_right.png,,,,,,,,,,,,,
,,,,,,$6944808489,2020-07-15_15h39.10.009,fisher_task,2020.1.3,Win32,60,0.00390625,-0.251302083,1,0,0,6.96542,scale,0,4,4,4,1,0.275930788,0.223606798,0.275930788,0.223606798,stimuli/training/50_left.png,stimuli/training/50_right.png,,,,,,,,,,,,,
,,,,,,$6944808489,2020-07-15_15h39.10.009,fisher_task,2020.1.3,Win32,60,0.16796875,-0.415364583,1,0,0,1.91555,scale,0,5,5,5,1,0.174513954,0.141421356,0.349027907,0.282842712,stimuli/training/20_left.png,stimuli/training/20_right.png,,,,,,,,,,,,,
,,,,,,$6944808489,2020-07-15_15h39.10.009,fisher_task,2020.1.3,Win32,60,-0.161458333,-0.41796875,1,0,0,1.7304,scale,0,6,6,6,1,0.349027907,0.282842712,0.174513954,0.141421356,stimuli/training/80_left.png,stimuli/training/80_right.png,,,,,,,,,,,,,
,,,,,,$6944808489,2020-07-15_15h39.10.009,fisher_task,2020.1.3,Win32,60,0.165364583,-0.407552083,1,0,0,1.781665,scale,0,7,7,7,1,0.1234,0.1,0.3702,0.3,stimuli/training/30_left.png,stimuli/training/30_right.png,,,,,,,,,,,,,
,,,,,,$6944808489,2020-07-15_15h39.10.009,fisher_task,2020.1.3,Win32,60,-0.171875,-0.421875,1,0,0,1.9324,scale,0,8,8,8,1,0.3702,0.3,0.1234,0.1,stimuli/training/70_left.png,stimuli/training/70_right.png,,,,,,,,,,,,,
,,,,,,$6944808489,2020-07-15_15h39.10.009,fisher_task,2020.1.3,Win32,60,-0.169270833,-0.4296875,1,0,0,1.88035,scale,0,9,9,9,1,0.326485712,0.264575131,0.21373507,0.173205081,stimuli/training/90_left.png,stimuli/training/90_right.png,,,,,,,,,,,,,
,,,,,,$6944808489,2020-07-15_15h39.10.009,fisher_task,2020.1.3,Win32,60,0.153645833,-0.4296875,1,0,0,1.83156,scale,0,10,10,10,1,0.21373507,0.173205081,0.326485712,0.264575131,stimuli/training/10_left.png,stimuli/training/10_right.png,,,,,,,,,,,,,
,,,,,,$6944808489,2020-07-15_15h39.10.009,fisher_task,2020.1.3,Win32,60,0.166666667,-0.4375,1,0,0,2.332805,scale,,,,,,0.174513954,0.141421356,0.349027907,0.282842712,stimuli/lakes/204051_left.png,stimuli/lakes/204051_right.png,space,5.59063,,0,0,0,51,1,,,,,
,,,,,,$6944808489,2020-07-15_15h39.10.009,fisher_task,2020.1.3,Win32,60,-0.006510417,-0.24609375,1,0,0,2.898355,scale,,,,,,0.302267034,0.244948974,0.2468,0.2,stimuli/lakes/604046_left.png,stimuli/lakes/604046_right.png,,,,0,1,1,46,1,,,,,
,,,,,,$6944808489,2020-07-15_15h39.10.009,fisher_task,2020.1.3,Win32,60,-0.006510417,-0.24609375,1,0,0,2.5512,scale,,,,,,0.3702,0.3,0.1234,0.1,stimuli/lakes/904058_left.png,stimuli/lakes/904058_right.png,,,,0,2,2,58,1,,,,,
,,,,,,$6944808489,2020-07-15_15h39.10.009,fisher_task,2020.1.3,Win32,60,-0.006510417,-0.24609375,1,0,0,2.58323,scale,,,,,,0.21373507,0.173205081,0.326485712,0.264575131,stimuli/lakes/307091_left.png,stimuli/lakes/307091_right.png,,,,0,3,3,91,1,,,,,
,,,,,,$6944808489,2020-07-15_15h39.10.009,fisher_task,2020.1.3,Win32,60,0.161458333,-0.434895833,1,0,0,2.366055,scale,,,,,,0.275930788,0.223606798,0.275930788,0.223606798,stimuli/lakes/50104_left.png,stimuli/lakes/50104_right.png,,,,0,4,4,4,1,,,,,
,,,,,,$6944808489,2020-07-15_15h39.10.009,fisher_task,2020.1.3,Win32,60,-0.0078125,-0.25,1,0,0,3.19783,scale,,,,,,0.1234,0.1,0.3702,0.3,stimuli/lakes/106080_left.png,stimuli/lakes/106080_right.png,,,,0,5,5,80,1,,,,,
,,,,,,$6944808489,2020-07-15_15h39.10.009,fisher_task,2020.1.3,Win32,60,-0.169270833,-0.4296875,1,0,0,4.466795,scale,,,,,,0.275930788,0.223606798,0.275930788,0.223606798,stimuli/lakes/5080113_left.png,stimuli/lakes/5080113_right.png,,,,0,6,6,113,1,,,,,
,,,,,,$6944808489,2020-07-15_15h39.10.009,fisher_task,2020.1.3,Win32,60,-0.006510417,-0.259114583,1,0,0,3.048265,scale,,,,,,0.174513954,0.141421356,0.349027907,0.282842712,stimuli/lakes/207099_left.png,stimuli/lakes/207099_right.png,,,,0,7,7,99,1,,,,,
,,,,,,$6944808489,2020-07-15_15h39.10.009,fisher_task,2020.1.3,Win32,60,-0.169270833,-0.42578125,1,0,0,3.482255,scale,,,,,,0.326485712,0.264575131,0.21373507,0.173205081,stimuli/lakes/706077_left.png,stimuli/lakes/706077_right.png,,,,0,8,8,77,1,,,,,
,,,,,,$6944808489,2020-07-15_15h39.10.009,fisher_task,2020.1.3,Win32,60,-0.16796875,-0.432291667,1,0,0,3.38201,scale,,,,,,0.326485712,0.264575131,0.21373507,0.173205081,stimuli/lakes/705068_left.png,stimuli/lakes/705068_right.png,,,,0,9,9,68,1,,,,,
,,,,,,$6944808489,2020-07-15_15h39.10.009,fisher_task,2020.1.3,Win32,60,0.166666667,-0.42578125,1,0,0,3.198485,scale,,,,,,0.2468,0.2,0.302267034,0.244948974,stimuli/lakes/403026_left.png,stimuli/lakes/403026_right.png,,,,0,10,10,26,1,,,,,
,,,,,,$6944808489,2020-07-15_15h39.10.009,fisher_task,2020.1.3,Win32,60,-0.01953125,-0.243489583,1,0,0,2.00106,scale,,,,,,0.349027907,0.282842712,0.174513954,0.141421356,stimuli/lakes/803030_left.png,stimuli/lakes/803030_right.png,,,,0,11,11,30,1,,,,,
,,,,,,$6944808489,2020-07-15_15h39.10.009,fisher_task,2020.1.3,Win32,60,-0.15234375,-0.372395833,1,0,0,3.698885,scale,,,,,,0.302267034,0.244948974,0.2468,0.2,stimuli/lakes/606085_left.png,stimuli/lakes/606085_right.png,,,,0,12,12,85,1,,,,,
,,,,,,$6944808489,2020-07-15_15h39.10.009,fisher_task,2020.1.3,Win32,60,0.1640625,-0.436197917,1,0,0,2.817305,scale,,,,,,0.21373507,0.173205081,0.326485712,0.264575131,stimuli/lakes/303025_left.png,stimuli/lakes/303025_right.png,,,,0,13,13,25,1,,,,,
,,,,,,$6944808489,2020-07-15_15h39.10.009,fisher_task,2020.1.3,Win32,60,-0.001302083,-0.2421875,1,0,0,4.19896,scale,,,,,,0.21373507,0.173205081,0.326485712,0.264575131,stimuli/lakes/3080109_left.png,stimuli/lakes/3080109_right.png,,,,0,14,14,109,1,,,,,
,,,,,,$6944808489,2020-07-15_15h39.10.009,fisher_task,2020.1.3,Win32,60,-0.1640625,-0.408854167,1,0,0,5.04993,scale,,,,,,0.3702,0.3,0.1234,0.1,stimuli/lakes/905070_left.png,stimuli/lakes/905070_right.png,,,,0,15,15,70,1,,,,,
,,,,,,$6944808489,2020-07-15_15h39.10.009,fisher_task,2020.1.3,Win32,60,-0.001302083,-0.240885417,1,0,0,2.9993,scale,,,,,,0.21373507,0.173205081,0.326485712,0.264575131,stimuli/lakes/3090121_left.png,stimuli/lakes/3090121_right.png,,,,0,16,16,121,1,,,,,
,,,,,,$6944808489,2020-07-15_15h39.10.009,fisher_task,2020.1.3,Win32,60,0.10546875,-0.272135417,1,0,0,5.01547,scale,,,,,,0.302267034,0.244948974,0.2468,0.2,stimuli/lakes/602017_left.png,stimuli/lakes/602017_right.png,,,,0,17,17,17,1,,,,,
,,,,,,$6944808489,2020-07-15_15h39.10.009,fisher_task,2020.1.3,Win32,60,0.153645833,-0.376302083,1,0,0,2.9166,scale,,,,,,0.174513954,0.141421356,0.349027907,0.282842712,stimuli/lakes/205060_left.png,stimuli/lakes/205060_right.png,,,,0,18,18,60,1,,,,,
,,,,,,$6944808489,2020-07-15_15h39.10.009,fisher_task,2020.1.3,Win32,60,-0.15625,-0.4296875,1,0,0,1.966325,scale,,,,,,0.302267034,0.244948974,0.2468,0.2,stimuli/lakes/6080114_left.png,stimuli/lakes/6080114_right.png,,,,0,19,19,114,1,,,,,
,,,,,,$6944808489,2020-07-15_15h39.10.009,fisher_task,2020.1.3,Win32,60,0.15234375,-0.430989583,1,0,0,2.01598,scale,,,,,,0.174513954,0.141421356,0.349027907,0.282842712,stimuli/lakes/203033_left.png,stimuli/lakes/203033_right.png,,,,0,20,20,33,1,,,,,
,,,,,,$6944808489,2020-07-15_15h39.10.009,fisher_task,2020.1.3,Win32,60,-0.145833333,-0.389322917,1,0,0,1.780505,scale,,,,,,0.275930788,0.223606798,0.275930788,0.223606798,stimuli/lakes/507093_left.png,stimuli/lakes/507093_right.png,,,,0,21,21,93,1,,,,,
,,,,,,$6944808489,2020-07-15_15h39.10.009,fisher_task,2020.1.3,Win32,60,-0.141927083,-0.352864583,1,0,0,2.76589,scale,,,,,,0.2468,0.2,0.302267034,0.244948974,stimuli/lakes/4080112_left.png,stimuli/lakes/4080112_right.png,,,space,0,22,22,112,1,3.3502,,,,
,,,,,,$6944808489,2020-07-15_15h39.10.009,fisher_task,2020.1.3,Win32,60,-0.13671875,-0.3359375,1,0,0,3.181995,scale,,,,,,0.2468,0.2,0.302267034,0.244948974,stimuli/lakes/407092_left.png,stimuli/lakes/407092_right.png,,,,0,23,23,92,1,,,,,
,,,,,,$6944808489,2020-07-15_15h39.10.009,fisher_task,2020.1.3,Win32,60,-0.158854167,-0.4296875,1,0,0,1.81441,scale,,,,,,0.349027907,0.282842712,0.174513954,0.141421356,stimuli/lakes/8070105_left.png,stimuli/lakes/8070105_right.png,,,,0,24,24,105,1,,,,,
,,,,,,$6944808489,2020-07-15_15h39.10.009,fisher_task,2020.1.3,Win32,60,0.16015625,-0.434895833,1,0,0,1.681765,scale,,,,,,0.2468,0.2,0.302267034,0.244948974,stimuli/lakes/402015_left.png,stimuli/lakes/402015_right.png,,,,0,25,25,15,1,,,,,
,,,,,,$6944808489,2020-07-15_15h39.10.009,fisher_task,2020.1.3,Win32,60,0.001302083,-0.2421875,1,0,0,2.764845,scale,,,,,,0.326485712,0.264575131,0.21373507,0.173205081,stimuli/lakes/702019_left.png,stimuli/lakes/702019_right.png,,,,0,26,26,19,1,,,,,
,,,,,,$6944808489,2020-07-15_15h39.10.009,fisher_task,2020.1.3,Win32,60,-0.16796875,-0.430989583,1,0,0,1.850305,scale,,,,,,0.326485712,0.264575131,0.21373507,0.173205081,stimuli/lakes/7090128_left.png,stimuli/lakes/7090128_right.png,,,,0,27,27,128,1,,,,,
,,,,,,$6944808489,2020-07-15_15h39.10.009,fisher_task,2020.1.3,Win32,60,-0.002604167,-0.239583333,1,0,0,2.38338,scale,,,,,,0.21373507,0.173205081,0.326485712,0.264575131,stimuli/lakes/3070100_left.png,stimuli/lakes/3070100_right.png,,,,0,28,28,100,1,,,,,
,,,,,,$6944808489,2020-07-15_15h39.10.009,fisher_task,2020.1.3,Win32,60,-0.157552083,-0.4296875,1,0,0,3.39836,scale,,,,,,0.326485712,0.264575131,0.21373507,0.173205081,stimuli/lakes/707095_left.png,stimuli/lakes/707095_right.png,,,,0,29,29,95,1,,,,,
,,,,,,$6944808489,2020-07-15_15h39.10.009,fisher_task,2020.1.3,Win32,60,0.147135417,-0.432291667,1,0,0,4.998415,scale,,,,,,0.2468,0.2,0.302267034,0.244948974,stimuli/lakes/405063_left.png,stimuli/lakes/405063_right.png,,,,0,30,30,63,1,,,,,
,,,,,,$6944808489,2020-07-15_15h39.10.009,fisher_task,2020.1.3,Win32,60,-0.169270833,-0.40625,1,0,0,4.432115,scale,,,,,,0.349027907,0.282842712,0.174513954,0.141421356,stimuli/lakes/806078_left.png,stimuli/lakes/806078_right.png,,,,0,31,31,78,1,,,,,
,,,,,,$6944808489,2020-07-15_15h39.10.009,fisher_task,2020.1.3,Win32,60,0.166666667,-0.438802083,1,0,0,1.73225,scale,,,,,,0.21373507,0.173205081,0.326485712,0.264575131,stimuli/lakes/302013_left.png,stimuli/lakes/302013_right.png,,,,0,32,32,13,1,,,,,
,,,,,,$6944808489,2020-07-15_15h39.10.009,fisher_task,2020.1.3,Win32,60,0.16015625,-0.384114583,1,0,0,2.23127,scale,,,,,,0.2468,0.2,0.302267034,0.244948974,stimuli/lakes/404053_left.png,stimuli/lakes/404053_right.png,,,,0,33,33,53,1,,,,,
,,,,,,$6944808489,2020-07-15_15h39.10.009,fisher_task,2020.1.3,Win32,60,0.0078125,-0.251302083,1,0,0,1.982805,scale,,,,,,0.174513954,0.141421356,0.349027907,0.282842712,stimuli/lakes/207090_left.png,stimuli/lakes/207090_right.png,,,,0,34,34,90,1,,,,,
,,,,,,$6944808489,2020-07-15_15h39.10.009,fisher_task,2020.1.3,Win32,60,0.161458333,-0.420572917,1,0,0,5.548595,scale,,,,,,0.1234,0.1,0.3702,0.3,stimuli/lakes/104050_left.png,stimuli/lakes/104050_right.png,,,,0,35,35,50,1,,,,,
,,,,,,$6944808489,2020-07-15_15h39.10.009,fisher_task,2020.1.3,Win32,60,0.091145833,-0.263020833,1,0,0,2.8646,scale,,,,,,0.302267034,0.244948974,0.2468,0.2,stimuli/lakes/60106_left.png,stimuli/lakes/60106_right.png,,,,0,36,36,6,1,,,,,
,,,,,,$6944808489,2020-07-15_15h39.10.009,fisher_task,2020.1.3,Win32,60,0.108072917,-0.279947917,1,0,0,3.332375,scale,,,,,,0.326485712,0.264575131,0.21373507,0.173205081,stimuli/lakes/70107_left.png,stimuli/lakes/70107_right.png,,,,0,37,37,7,1,,,,,
,,,,,,$6944808489,2020-07-15_15h39.10.009,fisher_task,2020.1.3,Win32,60,0.157552083,-0.428385417,1,0,0,2.198975,scale,,,,,,0.21373507,0.173205081,0.326485712,0.264575131,stimuli/lakes/30101_left.png,stimuli/lakes/30101_right.png,,,,0,38,38,1,1,,,,,
,,,,,,$6944808489,2020-07-15_15h39.10.009,fisher_task,2020.1.3,Win32,60,-0.1640625,-0.420572917,1,0,0,2.78219,scale,,,,,,0.326485712,0.264575131,0.21373507,0.173205081,stimuli/lakes/7080117_left.png,stimuli/lakes/7080117_right.png,,,,0,39,39,117,1,,,,,
,,,,,,$6944808489,2020-07-15_15h39.10.009,fisher_task,2020.1.3,Win32,60,-0.123697917,-0.315104167,1,0,0,8.93133,scale,,,,,,0.326485712,0.264575131,0.21373507,0.173205081,stimuli/lakes/705067_left.png,stimuli/lakes/705067_right.png,,,,0,40,40,67,1,,,,,
,,,,,,$6944808489,2020-07-15_15h39.10.009,fisher_task,2020.1.3,Win32,60,-0.006510417,-0.235677083,1,0,0,2.499995,scale,,,,,,0.349027907,0.282842712,0.174513954,0.141421356,stimuli/lakes/802021_left.png,stimuli/lakes/802021_right.png,,,,0,41,41,21,1,,,,,
,,,,,,$6944808489,2020-07-15_15h39.10.009,fisher_task,2020.1.3,Win32,60,-0.161458333,-0.4296875,1,0,0,3.31448,scale,,,,,,0.302267034,0.244948974,0.2468,0.2,stimuli/lakes/6090126_left.png,stimuli/lakes/6090126_right.png,,,,0,42,42,126,1,,,,,
,,,,,,$6944808489,2020-07-15_15h39.10.009,fisher_task,2020.1.3,Win32,60,-0.15625,-0.40234375,1,0,0,5.51647,scale,,,,,,0.349027907,0.282842712,0.174513954,0.141421356,stimuli/lakes/805069_left.png,stimuli/lakes/805069_right.png,,,,0,43,43,69,1,,,,,
,,,,,,$6944808489,2020-07-15_15h39.10.009,fisher_task,2020.1.3,Win32,60,0.149739583,-0.4296875,1,0,0,3.03175,scale,,,,,,0.174513954,0.141421356,0.349027907,0.282842712,stimuli/lakes/203024_left.png,stimuli/lakes/203024_right.png,,,space,0,44,44,24,1,3.82832,,,,
,,,,,,$6944808489,2020-07-15_15h39.10.009,fisher_task,2020.1.3,Win32,60,-0.134114583,-0.408854167,1,0,0,5.080705,scale,,,,,,0.302267034,0.244948974,0.2468,0.2,stimuli/lakes/605066_left.png,stimuli/lakes/605066_right.png,,,,0,45,45,66,1,,,,,
,,,,,,$6944808489,2020-07-15_15h39.10.009,fisher_task,2020.1.3,Win32,60,-0.165364583,-0.428385417,1,0,0,2.031745,scale,,,,,,0.275930788,0.223606798,0.275930788,0.223606798,stimuli/lakes/5070102_left.png,stimuli/lakes/5070102_right.png,,,,0,46,46,102,1,,,,,
,,,,,,$6944808489,2020-07-15_15h39.10.009,fisher_task,2020.1.3,Win32,60,0.0078125,-0.23828125,1,0,0,1.8814,scale,,,,,,0.349027907,0.282842712,0.174513954,0.141421356,stimuli/lakes/803039_left.png,stimuli/lakes/803039_right.png,,,,0,47,47,39,1,,,,,
,,,,,,$6944808489,2020-07-15_15h39.10.009,fisher_task,2020.1.3,Win32,60,0.092447917,-0.274739583,1,0,0,2.98123,scale,,,,,,0.275930788,0.223606798,0.275930788,0.223606798,stimuli/lakes/504054_left.png,stimuli/lakes/504054_right.png,,,,0,48,48,54,1,,,,,
,,,,,,$6944808489,2020-07-15_15h39.10.009,fisher_task,2020.1.3,Win32,60,0.05078125,-0.234375,1,0,0,3.165325,scale,,,,,,0.302267034,0.244948974,0.2468,0.2,stimuli/lakes/602018_left.png,stimuli/lakes/602018_right.png,,,,0,49,49,18,1,,,,,
,,,,,,$6944808489,2020-07-15_15h39.10.009,fisher_task,2020.1.3,Win32,60,0.141927083,-0.319010417,1,0,0,3.314695,scale,,,,,,0.1234,0.1,0.3702,0.3,stimuli/lakes/105059_left.png,stimuli/lakes/105059_right.png,,,,0,50,50,59,1,,,,,
,,,,,,$6944808489,2020-07-15_15h39.10.009,fisher_task,2020.1.3,Win32,60,0.005208333,-0.243489583,1,0,0,1.79837,scale,,,,,,0.1234,0.1,0.3702,0.3,stimuli/lakes/107098_left.png,stimuli/lakes/107098_right.png,,,,0,51,51,98,1,,,,,
,,,,,,$6944808489,2020-07-15_15h39.10.009,fisher_task,2020.1.3,Win32,60,-0.092447917,-0.27734375,1,0,0,4.09977,scale,,,,,,0.2468,0.2,0.302267034,0.244948974,stimuli/lakes/4090124_left.png,stimuli/lakes/4090124_right.png,,,,0,52,52,124,1,,,,,
,,,,,,$6944808489,2020-07-15_15h39.10.009,fisher_task,2020.1.3,Win32,60,-0.138020833,-0.348958333,1,0,0,3.915715,scale,,,,,,0.2468,0.2,0.302267034,0.244948974,stimuli/lakes/4090123_left.png,stimuli/lakes/4090123_right.png,,,,0,53,53,123,1,,,,,
,,,,,,$6944808489,2020-07-15_15h39.10.009,fisher_task,2020.1.3,Win32,60,0.013020833,-0.236979167,1,0,0,1.81574,scale,,,,,,0.3702,0.3,0.1234,0.1,stimuli/lakes/902022_left.png,stimuli/lakes/902022_right.png,,,,0,54,54,22,1,,,,,
,,,,,,$6944808489,2020-07-15_15h39.10.009,fisher_task,2020.1.3,Win32,60,0.057291667,-0.252604167,1,0,0,3.88279,scale,,,,,,0.326485712,0.264575131,0.21373507,0.173205081,stimuli/lakes/70108_left.png,stimuli/lakes/70108_right.png,,,,0,55,55,8,1,,,,,
,,,,,,$6944808489,2020-07-15_15h39.10.009,fisher_task,2020.1.3,Win32,60,0.087239583,-0.274739583,1,0,0,2.632285,scale,,,,,,0.21373507,0.173205081,0.326485712,0.264575131,stimuli/lakes/302012_left.png,stimuli/lakes/302012_right.png,,,,0,56,56,12,1,,,,,
,,,,,,$6944808489,2020-07-15_15h39.10.009,fisher_task,2020.1.3,Win32,60,0.091145833,-0.287760417,1,0,0,8.898445,scale,,,,,,0.326485712,0.264575131,0.21373507,0.173205081,stimuli/lakes/702020_left.png,stimuli/lakes/702020_right.png,,,,0,57,57,20,1,,,,,
,,,,,,$6944808489,2020-07-15_15h39.10.009,fisher_task,2020.1.3,Win32,60,-0.013020833,-0.235677083,1,0,0,2.381435,scale,,,,,,0.21373507,0.173205081,0.326485712,0.264575131,stimuli/lakes/306073_left.png,stimuli/lakes/306073_right.png,,,,0,58,58,73,1,,,,,
,,,,,,$6944808489,2020-07-15_15h39.10.009,fisher_task,2020.1.3,Win32,60,-0.013020833,-0.235677083,1,0,0,2.06469,scale,,,,,,0.2468,0.2,0.302267034,0.244948974,stimuli/lakes/406083_left.png,stimuli/lakes/406083_right.png,,,,0,59,59,83,1,,,,,
,,,,,,$6944808489,2020-07-15_15h39.10.009,fisher_task,2020.1.3,Win32,60,-0.145833333,-0.345052083,1,0,0,3.799135,scale,,,,,,0.302267034,0.244948974,0.2468,0.2,stimuli/lakes/605065_left.png,stimuli/lakes/605065_right.png,,,,0,60,60,65,1,,,,,
,,,,,,$6944808489,2020-07-15_15h39.10.009,fisher_task,2020.1.3,Win32,60,0.165364583,-0.428385417,1,0,0,2.8315,scale,,,,,,0.1234,0.1,0.3702,0.3,stimuli/lakes/104041_left.png,stimuli/lakes/104041_right.png,,,,0,61,61,41,1,,,,,
,,,,,,$6944808489,2020-07-15_15h39.10.009,fisher_task,2020.1.3,Win32,60,0.16015625,-0.3359375,1,0,0,3.86609,scale,,,,,,0.2468,0.2,0.302267034,0.244948974,stimuli/lakes/405064_left.png,stimuli/lakes/405064_right.png,,,,0,62,62,64,1,,,,,
,,,,,,$6944808489,2020-07-15_15h39.10.009,fisher_task,2020.1.3,Win32,60,0.005208333,-0.234375,1,0,0,2.282085,scale,,,,,,0.302267034,0.244948974,0.2468,0.2,stimuli/lakes/603037_left.png,stimuli/lakes/603037_right.png,,,,0,63,63,37,1,,,,,
,,,,,,$6944808489,2020-07-15_15h39.10.009,fisher_task,2020.1.3,Win32,60,-0.145833333,-0.3359375,1,0,0,2.332955,scale,,,,,,0.275930788,0.223606798,0.275930788,0.223606798,stimuli/lakes/506075_left.png,stimuli/lakes/506075_right.png,,,,0,64,64,75,1,,,,,
,,,,,,$6944808489,2020-07-15_15h39.10.009,fisher_task,2020.1.3,Win32,60,0.002604167,-0.23828125,1,0,0,4.016375,scale,,,,,,0.174513954,0.141421356,0.349027907,0.282842712,stimuli/lakes/2090120_left.png,stimuli/lakes/2090120_right.png,,,,0,65,65,120,1,,,,,
,,,,,,$6944808489,2020-07-15_15h39.10.009,fisher_task,2020.1.3,Win32,60,-0.158854167,-0.4296875,1,0,0,1.99909,scale,,,,,,0.349027907,0.282842712,0.174513954,0.141421356,stimuli/lakes/8080118_left.png,stimuli/lakes/8080118_right.png,,,space,0,66,66,118,1,1.868345,,,,
,,,,,,$6944808489,2020-07-15_15h39.10.009,fisher_task,2020.1.3,Win32,60,-0.158854167,-0.4296875,1,0,0,1.333115,scale,,,,,,0.3702,0.3,0.1234,0.1,stimuli/lakes/906088_left.png,stimuli/lakes/906088_right.png,,,,0,67,67,88,1,,,,,
,,,,,,$6944808489,2020-07-15_15h39.10.009,fisher_task,2020.1.3,Win32,60,0.157552083,-0.428385417,1,0,0,2.098975,scale,,,,,,0.2468,0.2,0.302267034,0.244948974,stimuli/lakes/40103_left.png,stimuli/lakes/40103_right.png,,,,0,68,68,3,1,,,,,
,,,,,,$6944808489,2020-07-15_15h39.10.009,fisher_task,2020.1.3,Win32,60,-0.013020833,-0.227864583,1,0,0,2.76488,scale,,,,,,0.21373507,0.173205081,0.326485712,0.264575131,stimuli/lakes/306082_left.png,stimuli/lakes/306082_right.png,,,,0,69,69,82,1,,,,,
,,,,,,$6944808489,2020-07-15_15h39.10.009,fisher_task,2020.1.3,Win32,60,-0.076822917,-0.272135417,1,0,0,2.79906,scale,,,,,,0.2468,0.2,0.302267034,0.244948974,stimuli/lakes/4070101_left.png,stimuli/lakes/4070101_right.png,,,,0,70,70,101,1,,,,,
,,,,,,$6944808489,2020-07-15_15h39.10.009,fisher_task,2020.1.3,Win32,60,0.045572917,-0.270833333,1,0,0,4.532055,scale,,,,,,0.21373507,0.173205081,0.326485712,0.264575131,stimuli/lakes/305062_left.png,stimuli/lakes/305062_right.png,,,,0,71,71,62,1,,,,,
,,,,,,$6944808489,2020-07-15_15h39.10.009,fisher_task,2020.1.3,Win32,60,0.141927083,-0.424479167,1,0,0,1.91671,scale,,,,,,0.275930788,0.223606798,0.275930788,0.223606798,stimuli/lakes/502016_left.png,stimuli/lakes/502016_right.png,,,,0,72,72,16,1,,,,,
,,,,,,$6944808489,2020-07-15_15h39.10.009,fisher_task,2020.1.3,Win32,60,-0.1796875,-0.43359375,1,0,0,1.93121,scale,,,,,,0.326485712,0.264575131,0.21373507,0.173205081,stimuli/lakes/7070104_left.png,stimuli/lakes/7070104_right.png,,,,0,73,73,104,1,,,,,
,,,,,,$6944808489,2020-07-15_15h39.10.009,fisher_task,2020.1.3,Win32,60,0.05078125,-0.239583333,1,0,0,3.58274,scale,,,,,,0.326485712,0.264575131,0.21373507,0.173205081,stimuli/lakes/704056_left.png,stimuli/lakes/704056_right.png,,,,0,74,74,56,1,,,,,
,,,,,,$6944808489,2020-07-15_15h39.10.009,fisher_task,2020.1.3,Win32,60,-0.170572917,-0.4296875,1,0,0,5.115265,scale,,,,,,0.349027907,0.282842712,0.174513954,0.141421356,stimuli/lakes/806087_left.png,stimuli/lakes/806087_right.png,,,,0,75,75,87,1,,,,,
,,,,,,$6944808489,2020-07-15_15h39.10.009,fisher_task,2020.1.3,Win32,60,-0.170572917,-0.4296875,1,0,0,1.000275,scale,,,,,,0.302267034,0.244948974,0.2468,0.2,stimuli/lakes/6090127_left.png,stimuli/lakes/6090127_right.png,,,,0,76,76,127,1,,,,,
,,,,,,$6944808489,2020-07-15_15h39.10.009,fisher_task,2020.1.3,Win32,60,0.147135417,-0.434895833,1,0,0,1.965805,scale,,,,,,0.2468,0.2,0.302267034,0.244948974,stimuli/lakes/403035_left.png,stimuli/lakes/403035_right.png,,,,0,77,77,35,1,,,,,
,,,,,,$6944808489,2020-07-15_15h39.10.009,fisher_task,2020.1.3,Win32,60,0,-0.229166667,1,0,0,3.24768,scale,,,,,,0.2468,0.2,0.302267034,0.244948974,stimuli/lakes/406074_left.png,stimuli/lakes/406074_right.png,,,,0,78,78,74,1,,,,,
,,,,,,$6944808489,2020-07-15_15h39.10.009,fisher_task,2020.1.3,Win32,60,-0.16015625,-0.432291667,1,0,0,2.29987,scale,,,,,,0.302267034,0.244948974,0.2468,0.2,stimuli/lakes/607094_left.png,stimuli/lakes/607094_right.png,,,,0,79,79,94,1,,,,,
,,,,,,$6944808489,2020-07-15_15h39.10.009,fisher_task,2020.1.3,Win32,60,0.16015625,-0.428385417,1,0,0,7.31442,scale,,,,,,0.21373507,0.173205081,0.326485712,0.264575131,stimuli/lakes/305061_left.png,stimuli/lakes/305061_right.png,,,,0,80,80,61,1,,,,,
,,,,,,$6944808489,2020-07-15_15h39.10.009,fisher_task,2020.1.3,Win32,60,-0.00390625,-0.2421875,1,0,0,4.74983,scale,,,,,,0.3702,0.3,0.1234,0.1,stimuli/lakes/901010_left.png,stimuli/lakes/901010_right.png,,,,0,81,81,10,1,,,,,
,,,,,,$6944808489,2020-07-15_15h39.10.009,fisher_task,2020.1.3,Win32,60,-0.00390625,-0.2421875,1,0,0,2.198155,scale,,,,,,0.1234,0.1,0.3702,0.3,stimuli/lakes/1080107_left.png,stimuli/lakes/1080107_right.png,,,,0,82,82,107,1,,,,,
,,,,,,$6944808489,2020-07-15_15h39.10.009,fisher_task,2020.1.3,Win32,60,-0.158854167,-0.427083333,1,0,0,4.848915,scale,,,,,,0.349027907,0.282842712,0.174513954,0.141421356,stimuli/lakes/807096_left.png,stimuli/lakes/807096_right.png,,,,0,83,83,96,1,,,,,
,,,,,,$6944808489,2020-07-15_15h39.10.009,fisher_task,2020.1.3,Win32,60,0.059895833,-0.24609375,1,0,0,4.71542,scale,,,,,,0.174513954,0.141421356,0.349027907,0.282842712,stimuli/lakes/206081_left.png,stimuli/lakes/206081_right.png,,,,0,84,84,81,1,,,,,
,,,,,,$6944808489,2020-07-15_15h39.10.009,fisher_task,2020.1.3,Win32,60,-0.1640625,-0.427083333,1,0,0,1.950725,scale,,,,,,0.302267034,0.244948974,0.2468,0.2,stimuli/lakes/6080115_left.png,stimuli/lakes/6080115_right.png,,,,0,85,85,115,1,,,,,
,,,,,,$6944808489,2020-07-15_15h39.10.009,fisher_task,2020.1.3,Win32,60,0.154947917,-0.427083333,1,0,0,1.98235,scale,,,,,,0.275930788,0.223606798,0.275930788,0.223606798,stimuli/lakes/503027_left.png,stimuli/lakes/503027_right.png,,,,0,86,86,27,1,,,,,
,,,,,,$6944808489,2020-07-15_15h39.10.009,fisher_task,2020.1.3,Win32,60,-0.151041667,-0.432291667,1,0,0,2.000555,scale,,,,,,0.3702,0.3,0.1234,0.1,stimuli/lakes/906079_left.png,stimuli/lakes/906079_right.png,,,,0,87,87,79,1,,,,,
,,,,,,$6944808489,2020-07-15_15h39.10.009,fisher_task,2020.1.3,Win32,60,0.002604167,-0.236979167,1,0,0,1.74786,scale,,,,,,0.349027907,0.282842712,0.174513954,0.141421356,stimuli/lakes/804057_left.png,stimuli/lakes/804057_right.png,,,space,0,88,88,57,1,1.98204,,,,
,,,,,,$6944808489,2020-07-15_15h39.10.009,fisher_task,2020.1.3,Win32,60,0.002604167,-0.236979167,1,0,0,2.45012,scale,,,,,,0.326485712,0.264575131,0.21373507,0.173205081,stimuli/lakes/703029_left.png,stimuli/lakes/703029_right.png,,,,0,89,89,29,1,,,,,
,,,,,,$6944808489,2020-07-15_15h39.10.009,fisher_task,2020.1.3,Win32,60,0.002604167,-0.236979167,1,0,0,1.465365,scale,,,,,,0.174513954,0.141421356,0.349027907,0.282842712,stimuli/lakes/2080108_left.png,stimuli/lakes/2080108_right.png,,,,0,90,90,108,1,,,,,
,,,,,,$6944808489,2020-07-15_15h39.10.009,fisher_task,2020.1.3,Win32,60,0.002604167,-0.236979167,1,0,0,4.31584,scale,,,,,,0.21373507,0.173205081,0.326485712,0.264575131,stimuli/lakes/3080110_left.png,stimuli/lakes/3080110_right.png,,,,0,91,91,110,1,,,,,
,,,,,,$6944808489,2020-07-15_15h39.10.009,fisher_task,2020.1.3,Win32,60,0.166666667,-0.427083333,1,0,0,4.58124,scale,,,,,,0.21373507,0.173205081,0.326485712,0.264575131,stimuli/lakes/304052_left.png,stimuli/lakes/304052_right.png,,,,0,92,92,52,1,,,,,
,,,,,,$6944808489,2020-07-15_15h39.10.009,fisher_task,2020.1.3,Win32,60,0.002604167,-0.233072917,1,0,0,4.448705,scale,,,,,,0.326485712,0.264575131,0.21373507,0.173205081,stimuli/lakes/703038_left.png,stimuli/lakes/703038_right.png,,,,0,93,93,38,1,,,,,
,,,,,,$6944808489,2020-07-15_15h39.10.009,fisher_task,2020.1.3,Win32,60,0.002604167,-0.233072917,1,0,0,1.59852,scale,,,,,,0.174513954,0.141421356,0.349027907,0.282842712,stimuli/lakes/206072_left.png,stimuli/lakes/206072_right.png,,,,0,94,94,72,1,,,,,
,,,,,,$6944808489,2020-07-15_15h39.10.009,fisher_task,2020.1.3,Win32,60,-0.078125,-0.27734375,1,0,0,5.348395,scale,,,,,,0.3702,0.3,0.1234,0.1,stimuli/lakes/904049_left.png,stimuli/lakes/904049_right.png,,,,0,95,95,49,1,,,,,
,,,,,,$6944808489,2020-07-15_15h39.10.009,fisher_task,2020.1.3,Win32,60,-0.079427083,-0.268229167,1,0,0,3.81631,scale,,,,,,0.2468,0.2,0.302267034,0.244948974,stimuli/lakes/4080111_left.png,stimuli/lakes/4080111_right.png,,,,0,96,96,111,1,,,,,
,,,,,,$6944808489,2020-07-15_15h39.10.009,fisher_task,2020.1.3,Win32,60,-0.161458333,-0.428385417,1,0,0,1.89863,scale,,,,,,0.326485712,0.264575131,0.21373507,0.173205081,stimuli/lakes/7090129_left.png,stimuli/lakes/7090129_right.png,,,,0,97,97,129,1,,,,,
,,,,,,$6944808489,2020-07-15_15h39.10.009,fisher_task,2020.1.3,Win32,60,-0.177083333,-0.428385417,1,0,0,1.79897,scale,,,,,,0.326485712,0.264575131,0.21373507,0.173205081,stimuli/lakes/7080116_left.png,stimuli/lakes/7080116_right.png,,,,0,98,98,116,1,,,,,
,,,,,,$6944808489,2020-07-15_15h39.10.009,fisher_task,2020.1.3,Win32,60,0.14453125,-0.427083333,1,0,0,2.732825,scale,,,,,,0.275930788,0.223606798,0.275930788,0.223606798,stimuli/lakes/503036_left.png,stimuli/lakes/503036_right.png,,,,0,99,99,36,1,,,,,
,,,,,,$6944808489,2020-07-15_15h39.10.009,fisher_task,2020.1.3,Win32,60,-0.005208333,-0.233072917,1,0,0,2.965155,scale,,,,,,0.349027907,0.282842712,0.174513954,0.141421356,stimuli/lakes/804048_left.png,stimuli/lakes/804048_right.png,,,,0,100,100,48,1,,,,,
,,,,,,$6944808489,2020-07-15_15h39.10.009,fisher_task,2020.1.3,Win32,60,0.143229167,-0.4296875,1,0,0,1.699075,scale,,,,,,0.2468,0.2,0.302267034,0.244948974,stimuli/lakes/40102_left.png,stimuli/lakes/40102_right.png,,,,0,101,101,2,1,,,,,
,,,,,,$6944808489,2020-07-15_15h39.10.009,fisher_task,2020.1.3,Win32,60,0.143229167,-0.4296875,1,0,0,1.481955,scale,,,,,,0.21373507,0.173205081,0.326485712,0.264575131,stimuli/lakes/303034_left.png,stimuli/lakes/303034_right.png,,,,0,102,102,34,1,,,,,
,,,,,,$6944808489,2020-07-15_15h39.10.009,fisher_task,2020.1.3,Win32,60,-0.16015625,-0.432291667,1,0,0,2.415455,scale,,,,,,0.3702,0.3,0.1234,0.1,stimuli/lakes/9070106_left.png,stimuli/lakes/9070106_right.png,,,,0,103,103,106,1,,,,,
,,,,,,$6944808489,2020-07-15_15h39.10.009,fisher_task,2020.1.3,Win32,60,0.002604167,-0.248697917,1,0,0,3.73251,scale,,,,,,0.349027907,0.282842712,0.174513954,0.141421356,stimuli/lakes/80109_left.png,stimuli/lakes/80109_right.png,,,,0,104,104,9,1,,,,,
,,,,,,$6944808489,2020-07-15_15h39.10.009,fisher_task,2020.1.3,Win32,60,0.002604167,-0.248697917,1,0,0,1.432125,scale,,,,,,0.326485712,0.264575131,0.21373507,0.173205081,stimuli/lakes/704047_left.png,stimuli/lakes/704047_right.png,,,,0,105,105,47,1,,,,,
,,,,,,$6944808489,2020-07-15_15h39.10.009,fisher_task,2020.1.3,Win32,60,-0.014322917,-0.25,1,0,0,1.532885,scale,,,,,,0.1234,0.1,0.3702,0.3,stimuli/lakes/107089_left.png,stimuli/lakes/107089_right.png,,,,0,106,106,89,1,,,,,
,,,,,,$6944808489,2020-07-15_15h39.10.009,fisher_task,2020.1.3,Win32,60,-0.166666667,-0.42578125,1,0,0,2.082615,scale,,,,,,0.302267034,0.244948974,0.2468,0.2,stimuli/lakes/6070103_left.png,stimuli/lakes/6070103_right.png,,,,0,107,107,103,1,,,,,
,,,,,,$6944808489,2020-07-15_15h39.10.009,fisher_task,2020.1.3,Win32,60,0.1640625,-0.438802083,1,0,0,3.281905,scale,,,,,,0.1234,0.1,0.3702,0.3,stimuli/lakes/103023_left.png,stimuli/lakes/103023_right.png,,,,0,108,108,23,1,,,,,
,,,,,,$6944808489,2020-07-15_15h39.10.009,fisher_task,2020.1.3,Win32,60,-0.00390625,-0.231770833,1,0,0,2.066365,scale,,,,,,0.1234,0.1,0.3702,0.3,stimuli/lakes/1090119_left.png,stimuli/lakes/1090119_right.png,,,,0,109,109,119,1,,,,,
,,,,,,$6944808489,2020-07-15_15h39.10.009,fisher_task,2020.1.3,Win32,60,-0.157552083,-0.43359375,1,0,0,2.199785,scale,,,,,,0.302267034,0.244948974,0.2468,0.2,stimuli/lakes/606076_left.png,stimuli/lakes/606076_right.png,,,space,0,110,110,76,1,2.30875,,,,
,,,,,,$6944808489,2020-07-15_15h39.10.009,fisher_task,2020.1.3,Win32,60,-0.157552083,-0.43359375,1,0,0,0.93118,scale,,,,,,0.275930788,0.223606798,0.275930788,0.223606798,stimuli/lakes/5090125_left.png,stimuli/lakes/5090125_right.png,,,,0,111,111,125,1,,,,,
,,,,,,$6944808489,2020-07-15_15h39.10.009,fisher_task,2020.1.3,Win32,60,0.173177083,-0.424479167,1,0,0,1.632535,scale,,,,,,0.2468,0.2,0.302267034,0.244948974,stimuli/lakes/402014_left.png,stimuli/lakes/402014_right.png,,,,0,112,112,14,1,,,,,
,,,,,,$6944808489,2020-07-15_15h39.10.009,fisher_task,2020.1.3,Win32,60,0.06640625,-0.26171875,1,0,0,4.49799,scale,,,,,,0.302267034,0.244948974,0.2468,0.2,stimuli/lakes/603028_left.png,stimuli/lakes/603028_right.png,,,,0,113,113,28,1,,,,,
,,,,,,$6944808489,2020-07-15_15h39.10.009,fisher_task,2020.1.3,Win32,60,0.141927083,-0.436197917,1,0,0,2.09854,scale,,,,,,0.2468,0.2,0.302267034,0.244948974,stimuli/lakes/404044_left.png,stimuli/lakes/404044_right.png,,,,0,114,114,44,1,,,,,
,,,,,,$6944808489,2020-07-15_15h39.10.009,fisher_task,2020.1.3,Win32,60,0.037760417,-0.240885417,1,0,0,3.015335,scale,,,,,,0.302267034,0.244948974,0.2468,0.2,stimuli/lakes/60105_left.png,stimuli/lakes/60105_right.png,,,,0,115,115,5,1,,,,,
,,,,,,$6944808489,2020-07-15_15h39.10.009,fisher_task,2020.1.3,Win32,60,0.15234375,-0.423177083,1,0,0,2.399425,scale,,,,,,0.275930788,0.223606798,0.275930788,0.223606798,stimuli/lakes/504045_left.png,stimuli/lakes/504045_right.png,,,,0,116,116,45,1,,,,,
,,,,,,$6944808489,2020-07-15_15h39.10.009,fisher_task,2020.1.3,Win32,60,0.166666667,-0.4375,1,0,0,1.749295,scale,,,,,,0.1234,0.1,0.3702,0.3,stimuli/lakes/103032_left.png,stimuli/lakes/103032_right.png,,,,0,117,117,32,1,,,,,
,,,,,,$6944808489,2020-07-15_15h39.10.009,fisher_task,2020.1.3,Win32,60,-0.171875,-0.436197917,1,0,0,3.232535,scale,,,,,,0.275930788,0.223606798,0.275930788,0.223606798,stimuli/lakes/506084_left.png,stimuli/lakes/506084_right.png,,,,0,118,118,84,1,,,,,
,,,,,,$6944808489,2020-07-15_15h39.10.009,fisher_task,2020.1.3,Win32,60,-0.171875,-0.436197917,1,0,0,1.733085,scale,,,,,,0.326485712,0.264575131,0.21373507,0.173205081,stimuli/lakes/706086_left.png,stimuli/lakes/706086_right.png,,,,0,119,119,86,1,,,,,
,,,,,,$6944808489,2020-07-15_15h39.10.009,fisher_task,2020.1.3,Win32,60,0.16796875,-0.438802083,1,0,0,3.36578,scale,,,,,,0.174513954,0.141421356,0.349027907,0.282842712,stimuli/lakes/204042_left.png,stimuli/lakes/204042_right.png,,,,0,120,120,42,1,,,,,
,,,,,,$6944808489,2020-07-15_15h39.10.009,fisher_task,2020.1.3,Win32,60,0.16796875,-0.438802083,1,0,0,1.466275,scale,,,,,,0.21373507,0.173205081,0.326485712,0.264575131,stimuli/lakes/304043_left.png,stimuli/lakes/304043_right.png,,,,0,121,121,43,1,,,,,
,,,,,,$6944808489,2020-07-15_15h39.10.009,fisher_task,2020.1.3,Win32,60,0.00390625,-0.240885417,1,0,0,2.04907,scale,,,,,,0.3702,0.3,0.1234,0.1,stimuli/lakes/903040_left.png,stimuli/lakes/903040_right.png,,,,0,122,122,40,1,,,,,
,,,,,,$6944808489,2020-07-15_15h39.10.009,fisher_task,2020.1.3,Win32,60,-0.1796875,-0.454427083,1,0,0,1.81682,scale,,,,,,0.3702,0.3,0.1234,0.1,stimuli/lakes/907097_left.png,stimuli/lakes/907097_right.png,,,,0,123,123,97,1,,,,,
,,,,,,$6944808489,2020-07-15_15h39.10.009,fisher_task,2020.1.3,Win32,60,0.177083333,-0.451822917,1,0,0,1.765285,scale,,,,,,0.174513954,0.141421356,0.349027907,0.282842712,stimuli/lakes/202011_left.png,stimuli/lakes/202011_right.png,,,,0,124,124,11,1,,,,,
,,,,,,$6944808489,2020-07-15_15h39.10.009,fisher_task,2020.1.3,Win32,60,-0.100260417,-0.299479167,1,0,0,3.21639,scale,,,,,,0.21373507,0.173205081,0.326485712,0.264575131,stimuli/lakes/3090122_left.png,stimuli/lakes/3090122_right.png,,,,0,125,125,122,1,,,,,
,,,,,,$6944808489,2020-07-15_15h39.10.009,fisher_task,2020.1.3,Win32,60,-0.00390625,-0.23828125,1,0,0,3.29901,scale,,,,,,0.302267034,0.244948974,0.2468,0.2,stimuli/lakes/604055_left.png,stimuli/lakes/604055_right.png,,,,0,126,126,55,1,,,,,
,,,,,,$6944808489,2020-07-15_15h39.10.009,fisher_task,2020.1.3,Win32,60,0,-0.2421875,1,0,0,2.86725,scale,,,,,,0.3702,0.3,0.1234,0.1,stimuli/lakes/903031_left.png,stimuli/lakes/903031_right.png,,,,0,127,127,31,1,,,,,
,,,,,,$6944808489,2020-07-15_15h39.10.009,fisher_task,2020.1.3,Win32,60,0.010416667,-0.251302083,1,0,0,2.782685,scale,,,,,,0.1234,0.1,0.3702,0.3,stimuli/lakes/106071_left.png,stimuli/lakes/106071_right.png,,,,0,128,128,71,1,,,,,
,,,,,,$6944808489,2020-07-15_15h39.10.009,fisher_task,2020.1.3,Win32,60,0.171875,-0.428385417,1,0,0,1.53219,scale,,,,,,0.21373507,0.173205081,0.326485712,0.264575131,stimuli/lakes/30100_left.png,stimuli/lakes/30100_right.png,,,,0,129,129,0,1,,,,,
,,,,,,$6944808489,2020-07-15_15h39.10.009,fisher_task,2020.1.3,Win32,60,,,,,,,,,,,,,,,,,,,,,,,,,,,,space,12.5366,space,40.98876
