keySpace.keys,keySpace.rt,instructions.thisRepN,instructions.thisTrialN,instructions.thisN,instructions.thisIndex,instructions.ran,participant,date,expName,psychopyVersion,OS,frameRate,mouse.x,mouse.y,mouse.leftButton,mouse.midButton,mouse.rightButton,mouse.time,mouse.clicked_name,training.thisRepN,training.thisTrialN,training.thisN,training.thisIndex,training.ran,widthBasketLeft,heightBasketLeft,widthBasketRight,heightBasketRight,leftLake,rightLake,space2.keys,space2.rt,space1.keys,trials.thisRepN,trials.thisTrialN,trials.thisN,trials.thisIndex,trials.ran,space1.rt,finalSpace1.keys,finalSpace1.rt,finalSpace2.keys,finalSpace2.rt
space,10.428385,0,0,0,0,1,$5897893165,2020-07-16_15h19.38.959,fisher_task,2020.1.3,Win32,60,,,,,,,,,,,,,,,,,,,,,,,,,,,,,,,
space,4.26436,1,0,1,0,1,$5897893165,2020-07-16_15h19.38.959,fisher_task,2020.1.3,Win32,60,,,,,,,,,,,,,,,,,,,,,,,,,,,,,,,
,,2,0,2,0,1,$5897893165,2020-07-16_15h19.38.959,fisher_task,2020.1.3,Win32,60,,,,,,,,,,,,,,,,,,,,,,,,,,,,,,,
,,,,,,,$5897893165,2020-07-16_15h19.38.959,fisher_task,2020.1.3,Win32,60,0.108333348,-0.039814823,0,0,1,4.33275,scale,0,0,0,0,1,0.275930788,0.223606798,0.275930788,0.223606798,stimuli/training/20_left.png,stimuli/training/20_right.png,,,,,,,,,,,,,
,,,,,,,$5897893165,2020-07-16_15h19.38.959,fisher_task,2020.1.3,Win32,60,-0.167592582,-0.335185254,1,0,0,5.12879,scale,0,1,1,1,1,0.275930788,0.223606798,0.275930788,0.223606798,stimuli/training/80_left.png,stimuli/training/80_right.png,,,,,,,,,,,,,
,,,,,,,$5897893165,2020-07-16_15h19.38.959,fisher_task,2020.1.3,Win32,60,0.16944446,-0.334259272,1,0,0,8.11283,scale,0,2,2,2,1,0.174513954,0.141421356,0.349027907,0.282842712,stimuli/training/50_left.png,stimuli/training/50_right.png,,,,,,,,,,,,,
,,,,,,,$5897893165,2020-07-16_15h19.38.959,fisher_task,2020.1.3,Win32,60,-0.176851841,-0.334259272,1,0,0,11.27835,scale,0,3,3,3,1,0.349027907,0.282842712,0.174513954,0.141421356,stimuli/training/50_left.png,stimuli/training/50_right.png,,,,,,,,,,,,,
,,,,,,,$5897893165,2020-07-16_15h19.38.959,fisher_task,2020.1.3,Win32,60,-0.005555542,-0.217592603,1,0,0,4.463615,scale,0,4,4,4,1,0.275930788,0.223606798,0.275930788,0.223606798,stimuli/training/50_left.png,stimuli/training/50_right.png,,,,,,,,,,,,,
,,,,,,,$5897893165,2020-07-16_15h19.38.959,fisher_task,2020.1.3,Win32,60,0.186111127,-0.347222235,1,0,0,3.013625,scale,0,5,5,5,1,0.174513954,0.141421356,0.349027907,0.282842712,stimuli/training/20_left.png,stimuli/training/20_right.png,,,,,,,,,,,,,
,,,,,,,$5897893165,2020-07-16_15h19.38.959,fisher_task,2020.1.3,Win32,60,-0.19074073,-0.370370383,1,0,0,2.46486,scale,0,6,6,6,1,0.349027907,0.282842712,0.174513954,0.141421356,stimuli/training/80_left.png,stimuli/training/80_right.png,,,,,,,,,,,,,
,,,,,,,$5897893165,2020-07-16_15h19.38.959,fisher_task,2020.1.3,Win32,60,0.184259275,-0.354629642,1,0,0,3.447865,scale,0,7,7,7,1,0.1234,0.1,0.3702,0.3,stimuli/training/30_left.png,stimuli/training/30_right.png,,,,,,,,,,,,,
,,,,,,,$5897893165,2020-07-16_15h19.38.959,fisher_task,2020.1.3,Win32,60,-0.187962896,-0.350000013,1,0,0,2.946275,scale,0,8,8,8,1,0.3702,0.3,0.1234,0.1,stimuli/training/70_left.png,stimuli/training/70_right.png,,,,,,,,,,,,,
,,,,,,,$5897893165,2020-07-16_15h19.38.959,fisher_task,2020.1.3,Win32,60,-0.187962896,-0.350000013,1,0,0,1.332665,scale,0,9,9,9,1,0.326485712,0.264575131,0.21373507,0.173205081,stimuli/training/90_left.png,stimuli/training/90_right.png,,,,,,,,,,,,,
,,,,,,,$5897893165,2020-07-16_15h19.38.959,fisher_task,2020.1.3,Win32,60,0.172222238,-0.321296365,1,0,0,2.330605,scale,0,10,10,10,1,0.21373507,0.173205081,0.326485712,0.264575131,stimuli/training/10_left.png,stimuli/training/10_right.png,,,,,,,,,,,,,
,,,,,,,$5897893165,2020-07-16_15h19.38.959,fisher_task,2020.1.3,Win32,60,-0.191666656,-0.360185198,1,0,0,2.19879,scale,,,,,,0.326485712,0.264575131,0.21373507,0.173205081,stimuli/lakes/7090128_left.png,stimuli/lakes/7090128_right.png,space,7.89829,,0,0,0,128,1,,,,,
,,,,,,,$5897893165,2020-07-16_15h19.38.959,fisher_task,2020.1.3,Win32,60,-0.180555545,-0.350000013,1,0,0,1.464775,scale,,,,,,0.326485712,0.264575131,0.21373507,0.173205081,stimuli/lakes/7080116_left.png,stimuli/lakes/7080116_right.png,,,,0,1,1,116,1,,,,,
,,,,,,,$5897893165,2020-07-16_15h19.38.959,fisher_task,2020.1.3,Win32,60,-0.015740728,-0.237037048,1,0,0,8.29619,scale,,,,,,0.326485712,0.264575131,0.21373507,0.173205081,stimuli/lakes/703038_left.png,stimuli/lakes/703038_right.png,,,,0,2,2,38,1,,,,,
,,,,,,,$5897893165,2020-07-16_15h19.38.959,fisher_task,2020.1.3,Win32,60,0.1351852,-0.276851863,1,0,0,28.054655,scale,,,,,,0.1234,0.1,0.3702,0.3,stimuli/lakes/106071_left.png,stimuli/lakes/106071_right.png,,,,0,3,3,71,1,,,,,
,,,,,,,$5897893165,2020-07-16_15h19.38.959,fisher_task,2020.1.3,Win32,60,-0.148148137,-0.300925938,1,0,0,3.73134,scale,,,,,,0.349027907,0.282842712,0.174513954,0.141421356,stimuli/lakes/804057_left.png,stimuli/lakes/804057_right.png,,,,0,4,4,57,1,,,,,
,,,,,,,$5897893165,2020-07-16_15h19.38.959,fisher_task,2020.1.3,Win32,60,0.005555569,-0.212037048,1,0,0,11.41213,scale,,,,,,0.21373507,0.173205081,0.326485712,0.264575131,stimuli/lakes/3090121_left.png,stimuli/lakes/3090121_right.png,,,,0,5,5,121,1,,,,,
,,,,,,,$5897893165,2020-07-16_15h19.38.959,fisher_task,2020.1.3,Win32,60,0.005555569,-0.212037048,1,0,0,2.030695,scale,,,,,,0.349027907,0.282842712,0.174513954,0.141421356,stimuli/lakes/802021_left.png,stimuli/lakes/802021_right.png,,,,0,6,6,21,1,,,,,
,,,,,,,$5897893165,2020-07-16_15h19.38.959,fisher_task,2020.1.3,Win32,60,-0.099074062,-0.24259266,1,0,0,3.28259,scale,,,,,,0.349027907,0.282842712,0.174513954,0.141421356,stimuli/lakes/804048_left.png,stimuli/lakes/804048_right.png,,,,0,7,7,48,1,,,,,
,,,,,,,$5897893165,2020-07-16_15h19.38.959,fisher_task,2020.1.3,Win32,60,0.067592607,-0.232407418,1,0,0,13.24262,scale,,,,,,0.3702,0.3,0.1234,0.1,stimuli/lakes/903031_left.png,stimuli/lakes/903031_right.png,,,,0,8,8,31,1,,,,,
,,,,,,,$5897893165,2020-07-16_15h19.38.959,fisher_task,2020.1.3,Win32,60,0.07592594,-0.235185196,1,0,0,6.062735,scale,,,,,,0.302267034,0.244948974,0.2468,0.2,stimuli/lakes/602017_left.png,stimuli/lakes/602017_right.png,,,,0,9,9,17,1,,,,,
,,,,,,,$5897893165,2020-07-16_15h19.38.959,fisher_task,2020.1.3,Win32,60,-0.125925915,-0.275925937,1,0,0,2.615255,scale,,,,,,0.302267034,0.244948974,0.2468,0.2,stimuli/lakes/6090127_left.png,stimuli/lakes/6090127_right.png,,,,0,10,10,127,1,,,,,
,,,,,,,$5897893165,2020-07-16_15h19.38.959,fisher_task,2020.1.3,Win32,60,0.041666681,-0.222222233,1,0,0,6.64705,scale,,,,,,0.174513954,0.141421356,0.349027907,0.282842712,stimuli/lakes/2080108_left.png,stimuli/lakes/2080108_right.png,,,,0,11,11,108,1,,,,,
,,,,,,,$5897893165,2020-07-16_15h19.38.959,fisher_task,2020.1.3,Win32,60,-0.055555543,-0.222222233,1,0,0,3.3312,scale,,,,,,0.326485712,0.264575131,0.21373507,0.173205081,stimuli/lakes/703029_left.png,stimuli/lakes/703029_right.png,,,,0,12,12,29,1,,,,,
,,,,,,,$5897893165,2020-07-16_15h19.38.959,fisher_task,2020.1.3,Win32,60,0.051851866,-0.224074141,1,0,0,3.249005,scale,,,,,,0.21373507,0.173205081,0.326485712,0.264575131,stimuli/lakes/307091_left.png,stimuli/lakes/307091_right.png,,,,0,13,13,91,1,,,,,
,,,,,,,$5897893165,2020-07-16_15h19.38.959,fisher_task,2020.1.3,Win32,60,0.009259273,-0.20462964,1,0,0,7.480605,scale,,,,,,0.326485712,0.264575131,0.21373507,0.173205081,stimuli/lakes/704056_left.png,stimuli/lakes/704056_right.png,,,,0,14,14,56,1,,,,,
,,,,,,,$5897893165,2020-07-16_15h19.38.959,fisher_task,2020.1.3,Win32,60,-0.082407395,-0.235185196,1,0,0,2.83046,scale,,,,,,0.2468,0.2,0.302267034,0.244948974,stimuli/lakes/406083_left.png,stimuli/lakes/406083_right.png,,,,0,15,15,83,1,,,,,
,,,,,,,$5897893165,2020-07-16_15h19.38.959,fisher_task,2020.1.3,Win32,60,0.130555571,-0.264814826,1,0,0,6.380715,scale,,,,,,0.174513954,0.141421356,0.349027907,0.282842712,stimuli/lakes/203033_left.png,stimuli/lakes/203033_right.png,,,,0,16,16,33,1,,,,,
,,,,,,,$5897893165,2020-07-16_15h19.38.959,fisher_task,2020.1.3,Win32,60,-0.112962951,-0.288888957,1,0,0,16.242485,scale,,,,,,0.275930788,0.223606798,0.275930788,0.223606798,stimuli/lakes/5080113_left.png,stimuli/lakes/5080113_right.png,,,,0,17,17,113,1,,,,,
,,,,,,,$5897893165,2020-07-16_15h19.38.959,fisher_task,2020.1.3,Win32,60,0.136111126,-0.288888957,1,0,0,1.765425,scale,,,,,,0.21373507,0.173205081,0.326485712,0.264575131,stimuli/lakes/303025_left.png,stimuli/lakes/303025_right.png,,,,0,18,18,25,1,,,,,
,,,,,,,$5897893165,2020-07-16_15h19.38.959,fisher_task,2020.1.3,Win32,60,0.150925941,-0.305555568,1,0,0,1.34771,scale,,,,,,0.2468,0.2,0.302267034,0.244948974,stimuli/lakes/402014_left.png,stimuli/lakes/402014_right.png,,,,0,19,19,14,1,,,,,
,,,,,,,$5897893165,2020-07-16_15h19.38.959,fisher_task,2020.1.3,Win32,60,0.086111126,-0.249074085,1,0,0,11.510805,scale,,,,,,0.302267034,0.244948974,0.2468,0.2,stimuli/lakes/60106_left.png,stimuli/lakes/60106_right.png,,,,0,20,20,6,1,,,,,
,,,,,,,$5897893165,2020-07-16_15h19.38.959,fisher_task,2020.1.3,Win32,60,-0.124999989,-0.301851864,1,0,0,2.231055,scale,,,,,,0.326485712,0.264575131,0.21373507,0.173205081,stimuli/lakes/705068_left.png,stimuli/lakes/705068_right.png,,,,0,21,21,68,1,,,,,
,,,,,,,$5897893165,2020-07-16_15h19.38.959,fisher_task,2020.1.3,Win32,60,0.036111125,-0.222222233,1,0,0,4.88079,scale,,,,,,0.3702,0.3,0.1234,0.1,stimuli/lakes/901010_left.png,stimuli/lakes/901010_right.png,,,space,0,22,22,10,1,10.56985,,,,
,,,,,,,$5897893165,2020-07-16_15h19.38.959,fisher_task,2020.1.3,Win32,60,0.076851866,-0.23425927,1,0,0,2.498405,scale,,,,,,0.2468,0.2,0.302267034,0.244948974,stimuli/lakes/403035_left.png,stimuli/lakes/403035_right.png,,,,0,23,23,35,1,,,,,
,,,,,,,$5897893165,2020-07-16_15h19.38.959,fisher_task,2020.1.3,Win32,60,-0.01296295,-0.244444456,1,0,0,3.998285,scale,,,,,,0.302267034,0.244948974,0.2468,0.2,stimuli/lakes/602018_left.png,stimuli/lakes/602018_right.png,,,,0,24,24,18,1,,,,,
,,,,,,,$5897893165,2020-07-16_15h19.38.959,fisher_task,2020.1.3,Win32,60,-0.174074007,-0.355555568,1,0,0,2.747315,scale,,,,,,0.3702,0.3,0.1234,0.1,stimuli/lakes/9070106_left.png,stimuli/lakes/9070106_right.png,,,,0,25,25,106,1,,,,,
,,,,,,,$5897893165,2020-07-16_15h19.38.959,fisher_task,2020.1.3,Win32,60,0.116666682,-0.262037048,1,0,0,4.314425,scale,,,,,,0.1234,0.1,0.3702,0.3,stimuli/lakes/103023_left.png,stimuli/lakes/103023_right.png,,,,0,26,26,23,1,,,,,
,,,,,,,$5897893165,2020-07-16_15h19.38.959,fisher_task,2020.1.3,Win32,60,-0.080555544,-0.241666678,1,0,0,9.76244,scale,,,,,,0.1234,0.1,0.3702,0.3,stimuli/lakes/1080107_left.png,stimuli/lakes/1080107_right.png,,,,0,27,27,107,1,,,,,
,,,,,,,$5897893165,2020-07-16_15h19.38.959,fisher_task,2020.1.3,Win32,60,0.136111126,-0.287037049,1,0,0,3.03166,scale,,,,,,0.174513954,0.141421356,0.349027907,0.282842712,stimuli/lakes/204051_left.png,stimuli/lakes/204051_right.png,,,,0,28,28,51,1,,,,,
,,,,,,,$5897893165,2020-07-16_15h19.38.959,fisher_task,2020.1.3,Win32,60,-0.109259191,-0.249074085,1,0,0,4.630845,scale,,,,,,0.21373507,0.173205081,0.326485712,0.264575131,stimuli/lakes/3090122_left.png,stimuli/lakes/3090122_right.png,,,,0,29,29,122,1,,,,,
,,,,,,,$5897893165,2020-07-16_15h19.38.959,fisher_task,2020.1.3,Win32,60,0.123148163,-0.264814826,1,0,0,2.78249,scale,,,,,,0.349027907,0.282842712,0.174513954,0.141421356,stimuli/lakes/80109_left.png,stimuli/lakes/80109_right.png,,,,0,30,30,9,1,,,,,
,,,,,,,$5897893165,2020-07-16_15h19.38.959,fisher_task,2020.1.3,Win32,60,0.073148162,-0.229629641,1,0,0,6.113635,scale,,,,,,0.2468,0.2,0.302267034,0.244948974,stimuli/lakes/406074_left.png,stimuli/lakes/406074_right.png,,,,0,31,31,74,1,,,,,
,,,,,,,$5897893165,2020-07-16_15h19.38.959,fisher_task,2020.1.3,Win32,60,0.071296311,-0.226851863,1,0,0,2.865145,scale,,,,,,0.3702,0.3,0.1234,0.1,stimuli/lakes/903040_left.png,stimuli/lakes/903040_right.png,,,,0,32,32,40,1,,,,,
,,,,,,,$5897893165,2020-07-16_15h19.38.959,fisher_task,2020.1.3,Win32,60,-0.1361111,-0.299074086,1,0,0,2.41536,scale,,,,,,0.2468,0.2,0.302267034,0.244948974,stimuli/lakes/4080111_left.png,stimuli/lakes/4080111_right.png,,,,0,33,33,111,1,,,,,
,,,,,,,$5897893165,2020-07-16_15h19.38.959,fisher_task,2020.1.3,Win32,60,-0.1361111,-0.299074086,1,0,0,1.41545,scale,,,,,,0.326485712,0.264575131,0.21373507,0.173205081,stimuli/lakes/7070104_left.png,stimuli/lakes/7070104_right.png,,,,0,34,34,104,1,,,,,
,,,,,,,$5897893165,2020-07-16_15h19.38.959,fisher_task,2020.1.3,Win32,60,0.009259273,-0.215740751,1,0,0,2.515425,scale,,,,,,0.302267034,0.244948974,0.2468,0.2,stimuli/lakes/6070103_left.png,stimuli/lakes/6070103_right.png,,,,0,35,35,103,1,,,,,
,,,,,,,$5897893165,2020-07-16_15h19.38.959,fisher_task,2020.1.3,Win32,60,0.162962979,-0.308333345,1,0,0,2.347375,scale,,,,,,0.1234,0.1,0.3702,0.3,stimuli/lakes/104041_left.png,stimuli/lakes/104041_right.png,,,,0,36,36,41,1,,,,,
,,,,,,,$5897893165,2020-07-16_15h19.38.959,fisher_task,2020.1.3,Win32,60,-0.173148137,-0.33703705,1,0,0,2.68193,scale,,,,,,0.302267034,0.244948974,0.2468,0.2,stimuli/lakes/6090126_left.png,stimuli/lakes/6090126_right.png,,,,0,37,37,126,1,,,,,
,,,,,,,$5897893165,2020-07-16_15h19.38.959,fisher_task,2020.1.3,Win32,60,0.173148164,-0.346296309,1,0,0,1.399615,scale,,,,,,0.1234,0.1,0.3702,0.3,stimuli/lakes/103032_left.png,stimuli/lakes/103032_right.png,,,,0,38,38,32,1,,,,,
,,,,,,,$5897893165,2020-07-16_15h19.38.959,fisher_task,2020.1.3,Win32,60,-0.162037026,-0.326851864,1,0,0,2.3486,scale,,,,,,0.3702,0.3,0.1234,0.1,stimuli/lakes/905070_left.png,stimuli/lakes/905070_right.png,,,,0,39,39,70,1,,,,,
,,,,,,,$5897893165,2020-07-16_15h19.38.959,fisher_task,2020.1.3,Win32,60,-0.154629619,-0.305555568,1,0,0,2.597075,scale,,,,,,0.326485712,0.264575131,0.21373507,0.173205081,stimuli/lakes/706077_left.png,stimuli/lakes/706077_right.png,,,,0,40,40,77,1,,,,,
,,,,,,,$5897893165,2020-07-16_15h19.38.959,fisher_task,2020.1.3,Win32,60,0.137962978,-0.290740753,1,0,0,1.88147,scale,,,,,,0.21373507,0.173205081,0.326485712,0.264575131,stimuli/lakes/305062_left.png,stimuli/lakes/305062_right.png,,,,0,41,41,62,1,,,,,
,,,,,,,$5897893165,2020-07-16_15h19.38.959,fisher_task,2020.1.3,Win32,60,-0.172222212,-0.329629642,1,0,0,2.048255,scale,,,,,,0.2468,0.2,0.302267034,0.244948974,stimuli/lakes/4080112_left.png,stimuli/lakes/4080112_right.png,,,,0,42,42,112,1,,,,,
,,,,,,,$5897893165,2020-07-16_15h19.38.959,fisher_task,2020.1.3,Win32,60,-0.171296286,-0.329629642,1,0,0,1.18269,scale,,,,,,0.349027907,0.282842712,0.174513954,0.141421356,stimuli/lakes/8080118_left.png,stimuli/lakes/8080118_right.png,,,,0,43,43,118,1,,,,,
,,,,,,,$5897893165,2020-07-16_15h19.38.959,fisher_task,2020.1.3,Win32,60,-0.09722221,-0.265740809,1,0,0,2.91484,scale,,,,,,0.2468,0.2,0.302267034,0.244948974,stimuli/lakes/4090124_left.png,stimuli/lakes/4090124_right.png,,,space,0,44,44,124,1,6.246235,,,,
,,,,,,,$5897893165,2020-07-16_15h19.38.959,fisher_task,2020.1.3,Win32,60,0.128703719,-0.274074086,1,0,0,2.698915,scale,,,,,,0.275930788,0.223606798,0.275930788,0.223606798,stimuli/lakes/504054_left.png,stimuli/lakes/504054_right.png,,,,0,45,45,54,1,,,,,
,,,,,,,$5897893165,2020-07-16_15h19.38.959,fisher_task,2020.1.3,Win32,60,-0.12685184,-0.27314816,1,0,0,1.88212,scale,,,,,,0.21373507,0.173205081,0.326485712,0.264575131,stimuli/lakes/306073_left.png,stimuli/lakes/306073_right.png,,,,0,46,46,73,1,,,,,
,,,,,,,$5897893165,2020-07-16_15h19.38.959,fisher_task,2020.1.3,Win32,60,-0.147222211,-0.291666678,1,0,0,1.880565,scale,,,,,,0.21373507,0.173205081,0.326485712,0.264575131,stimuli/lakes/3070100_left.png,stimuli/lakes/3070100_right.png,,,,0,47,47,100,1,,,,,
,,,,,,,$5897893165,2020-07-16_15h19.38.959,fisher_task,2020.1.3,Win32,60,-0.147222211,-0.291666678,1,0,0,1.3492,scale,,,,,,0.302267034,0.244948974,0.2468,0.2,stimuli/lakes/6080114_left.png,stimuli/lakes/6080114_right.png,,,,0,48,48,114,1,,,,,
,,,,,,,$5897893165,2020-07-16_15h19.38.959,fisher_task,2020.1.3,Win32,60,-0.157407397,-0.289814827,1,0,0,3.481425,scale,,,,,,0.302267034,0.244948974,0.2468,0.2,stimuli/lakes/603028_left.png,stimuli/lakes/603028_right.png,,,,0,49,49,28,1,,,,,
,,,,,,,$5897893165,2020-07-16_15h19.38.959,fisher_task,2020.1.3,Win32,60,0.146296312,-0.289814827,1,0,0,1.83029,scale,,,,,,0.275930788,0.223606798,0.275930788,0.223606798,stimuli/lakes/502016_left.png,stimuli/lakes/502016_right.png,,,,0,50,50,16,1,,,,,
,,,,,,,$5897893165,2020-07-16_15h19.38.959,fisher_task,2020.1.3,Win32,60,0.162962979,-0.313888901,1,0,0,8.76157,scale,,,,,,0.21373507,0.173205081,0.326485712,0.264575131,stimuli/lakes/304043_left.png,stimuli/lakes/304043_right.png,,,,0,51,51,43,1,,,,,
,,,,,,,$5897893165,2020-07-16_15h19.38.959,fisher_task,2020.1.3,Win32,60,-0.176851841,-0.342592605,1,0,0,3.648625,scale,,,,,,0.3702,0.3,0.1234,0.1,stimuli/lakes/907097_left.png,stimuli/lakes/907097_right.png,,,,0,52,52,97,1,,,,,
,,,,,,,$5897893165,2020-07-16_15h19.38.959,fisher_task,2020.1.3,Win32,60,-0.011111098,-0.225000011,1,0,0,5.12962,scale,,,,,,0.326485712,0.264575131,0.21373507,0.173205081,stimuli/lakes/705067_left.png,stimuli/lakes/705067_right.png,,,,0,53,53,67,1,,,,,
,,,,,,,$5897893165,2020-07-16_15h19.38.959,fisher_task,2020.1.3,Win32,60,-0.159259248,-0.331481494,1,0,0,2.265715,scale,,,,,,0.302267034,0.244948974,0.2468,0.2,stimuli/lakes/606085_left.png,stimuli/lakes/606085_right.png,,,,0,54,54,85,1,,,,,
,,,,,,,$5897893165,2020-07-16_15h19.38.959,fisher_task,2020.1.3,Win32,60,-0.119444433,-0.270370438,1,0,0,5.43073,scale,,,,,,0.2468,0.2,0.302267034,0.244948974,stimuli/lakes/4070101_left.png,stimuli/lakes/4070101_right.png,,,,0,55,55,101,1,,,,,
,,,,,,,$5897893165,2020-07-16_15h19.38.959,fisher_task,2020.1.3,Win32,60,0.089814829,-0.237037048,1,0,0,6.696015,scale,,,,,,0.275930788,0.223606798,0.275930788,0.223606798,stimuli/lakes/503036_left.png,stimuli/lakes/503036_right.png,,,,0,56,56,36,1,,,,,
,,,,,,,$5897893165,2020-07-16_15h19.38.959,fisher_task,2020.1.3,Win32,60,0.153703719,-0.279629698,1,0,0,3.764255,scale,,,,,,0.2468,0.2,0.302267034,0.244948974,stimuli/lakes/404044_left.png,stimuli/lakes/404044_right.png,,,,0,57,57,44,1,,,,,
,,,,,,,$5897893165,2020-07-16_15h19.38.959,fisher_task,2020.1.3,Win32,60,0.151851867,-0.303703716,1,0,0,1.39914,scale,,,,,,0.2468,0.2,0.302267034,0.244948974,stimuli/lakes/404053_left.png,stimuli/lakes/404053_right.png,,,,0,58,58,53,1,,,,,
,,,,,,,$5897893165,2020-07-16_15h19.38.959,fisher_task,2020.1.3,Win32,60,0.173148164,-0.333333346,1,0,0,2.93092,scale,,,,,,0.174513954,0.141421356,0.349027907,0.282842712,stimuli/lakes/206072_left.png,stimuli/lakes/206072_right.png,,,,0,59,59,72,1,,,,,
,,,,,,,$5897893165,2020-07-16_15h19.38.959,fisher_task,2020.1.3,Win32,60,-0.19074073,-0.375925939,1,0,0,2.731795,scale,,,,,,0.326485712,0.264575131,0.21373507,0.173205081,stimuli/lakes/7090129_left.png,stimuli/lakes/7090129_right.png,,,,0,60,60,129,1,,,,,
,,,,,,,$5897893165,2020-07-16_15h19.38.959,fisher_task,2020.1.3,Win32,60,0.171296312,-0.316666735,1,0,0,3.514685,scale,,,,,,0.2468,0.2,0.302267034,0.244948974,stimuli/lakes/40102_left.png,stimuli/lakes/40102_right.png,,,,0,61,61,2,1,,,,,
,,,,,,,$5897893165,2020-07-16_15h19.38.959,fisher_task,2020.1.3,Win32,60,-0.108333322,-0.252777789,1,0,0,2.481995,scale,,,,,,0.326485712,0.264575131,0.21373507,0.173205081,stimuli/lakes/702020_left.png,stimuli/lakes/702020_right.png,,,,0,62,62,20,1,,,,,
,,,,,,,$5897893165,2020-07-16_15h19.38.959,fisher_task,2020.1.3,Win32,60,-0.080555544,-0.241666678,1,0,0,6.330435,scale,,,,,,0.3702,0.3,0.1234,0.1,stimuli/lakes/906088_left.png,stimuli/lakes/906088_right.png,,,,0,63,63,88,1,,,,,
,,,,,,,$5897893165,2020-07-16_15h19.38.959,fisher_task,2020.1.3,Win32,60,-0.169444377,-0.315740753,1,0,0,2.665145,scale,,,,,,0.349027907,0.282842712,0.174513954,0.141421356,stimuli/lakes/806087_left.png,stimuli/lakes/806087_right.png,,,,0,64,64,87,1,,,,,
,,,,,,,$5897893165,2020-07-16_15h19.38.959,fisher_task,2020.1.3,Win32,60,-0.169444377,-0.315740753,1,0,0,1.9152,scale,,,,,,0.302267034,0.244948974,0.2468,0.2,stimuli/lakes/606076_left.png,stimuli/lakes/606076_right.png,,,,0,65,65,76,1,,,,,
,,,,,,,$5897893165,2020-07-16_15h19.38.959,fisher_task,2020.1.3,Win32,60,-0.074999988,-0.224074141,1,0,0,1.99893,scale,,,,,,0.174513954,0.141421356,0.349027907,0.282842712,stimuli/lakes/207099_left.png,stimuli/lakes/207099_right.png,,,space,0,66,66,99,1,54.90638,,,,
,,,,,,,$5897893165,2020-07-16_15h19.38.959,fisher_task,2020.1.3,Win32,60,-0.095370302,-0.24259266,1,0,0,4.94785,scale,,,,,,0.349027907,0.282842712,0.174513954,0.141421356,stimuli/lakes/803030_left.png,stimuli/lakes/803030_right.png,,,,0,67,67,30,1,,,,,
,,,,,,,$5897893165,2020-07-16_15h19.38.959,fisher_task,2020.1.3,Win32,60,-0.087037025,-0.235185196,1,0,0,6.647,scale,,,,,,0.326485712,0.264575131,0.21373507,0.173205081,stimuli/lakes/704047_left.png,stimuli/lakes/704047_right.png,,,,0,68,68,47,1,,,,,
,,,,,,,$5897893165,2020-07-16_15h19.38.959,fisher_task,2020.1.3,Win32,60,-0.064814803,-0.229629641,1,0,0,6.780535,scale,,,,,,0.302267034,0.244948974,0.2468,0.2,stimuli/lakes/604046_left.png,stimuli/lakes/604046_right.png,,,,0,69,69,46,1,,,,,
,,,,,,,$5897893165,2020-07-16_15h19.38.959,fisher_task,2020.1.3,Win32,60,-0.080555544,-0.240740752,1,0,0,7.578575,scale,,,,,,0.275930788,0.223606798,0.275930788,0.223606798,stimuli/lakes/506075_left.png,stimuli/lakes/506075_right.png,,,,0,70,70,75,1,,,,,
,,,,,,,$5897893165,2020-07-16_15h19.38.959,fisher_task,2020.1.3,Win32,60,-0.157407397,-0.300925938,1,0,0,1.981385,scale,,,,,,0.349027907,0.282842712,0.174513954,0.141421356,stimuli/lakes/806078_left.png,stimuli/lakes/806078_right.png,,,,0,71,71,78,1,,,,,
,,,,,,,$5897893165,2020-07-16_15h19.38.959,fisher_task,2020.1.3,Win32,60,0.175000016,-0.350000013,1,0,0,1.64892,scale,,,,,,0.21373507,0.173205081,0.326485712,0.264575131,stimuli/lakes/30101_left.png,stimuli/lakes/30101_right.png,,,,0,72,72,1,1,,,,,
,,,,,,,$5897893165,2020-07-16_15h19.38.959,fisher_task,2020.1.3,Win32,60,-0.169444377,-0.330555624,1,0,0,2.11509,scale,,,,,,0.326485712,0.264575131,0.21373507,0.173205081,stimuli/lakes/706086_left.png,stimuli/lakes/706086_right.png,,,,0,73,73,86,1,,,,,
,,,,,,,$5897893165,2020-07-16_15h19.38.959,fisher_task,2020.1.3,Win32,60,-0.114814803,-0.272222234,1,0,0,3.23097,scale,,,,,,0.302267034,0.244948974,0.2468,0.2,stimuli/lakes/604055_left.png,stimuli/lakes/604055_right.png,,,,0,74,74,55,1,,,,,
,,,,,,,$5897893165,2020-07-16_15h19.38.959,fisher_task,2020.1.3,Win32,60,-0.150925858,-0.290740753,1,0,0,1.53155,scale,,,,,,0.3702,0.3,0.1234,0.1,stimuli/lakes/906079_left.png,stimuli/lakes/906079_right.png,,,,0,75,75,79,1,,,,,
,,,,,,,$5897893165,2020-07-16_15h19.38.959,fisher_task,2020.1.3,Win32,60,-0.000925913,-0.217592603,1,0,0,6.84679,scale,,,,,,0.1234,0.1,0.3702,0.3,stimuli/lakes/107098_left.png,stimuli/lakes/107098_right.png,,,,0,76,76,98,1,,,,,
,,,,,,,$5897893165,2020-07-16_15h19.38.959,fisher_task,2020.1.3,Win32,60,0.05092594,-0.223148159,1,0,0,6.23037,scale,,,,,,0.3702,0.3,0.1234,0.1,stimuli/lakes/902022_left.png,stimuli/lakes/902022_right.png,,,,0,77,77,22,1,,,,,
,,,,,,,$5897893165,2020-07-16_15h19.38.959,fisher_task,2020.1.3,Win32,60,-0.122222211,-0.261111179,1,0,0,6.71292,scale,,,,,,0.302267034,0.244948974,0.2468,0.2,stimuli/lakes/6080115_left.png,stimuli/lakes/6080115_right.png,,,,0,78,78,115,1,,,,,
,,,,,,,$5897893165,2020-07-16_15h19.38.959,fisher_task,2020.1.3,Win32,60,-0.137036969,-0.265740809,1,0,0,3.148345,scale,,,,,,0.302267034,0.244948974,0.2468,0.2,stimuli/lakes/607094_left.png,stimuli/lakes/607094_right.png,,,,0,79,79,94,1,,,,,
,,,,,,,$5897893165,2020-07-16_15h19.38.959,fisher_task,2020.1.3,Win32,60,0.099074089,-0.25185192,1,0,0,4.39705,scale,,,,,,0.2468,0.2,0.302267034,0.244948974,stimuli/lakes/402015_left.png,stimuli/lakes/402015_right.png,,,,0,80,80,15,1,,,,,
,,,,,,,$5897893165,2020-07-16_15h19.38.959,fisher_task,2020.1.3,Win32,60,0.161111127,-0.306481493,1,0,0,2.065975,scale,,,,,,0.21373507,0.173205081,0.326485712,0.264575131,stimuli/lakes/305061_left.png,stimuli/lakes/305061_right.png,,,,0,81,81,61,1,,,,,
,,,,,,,$5897893165,2020-07-16_15h19.38.959,fisher_task,2020.1.3,Win32,60,-0.087962951,-0.226851863,1,0,0,4.097845,scale,,,,,,0.275930788,0.223606798,0.275930788,0.223606798,stimuli/lakes/507093_left.png,stimuli/lakes/507093_right.png,,,,0,82,82,93,1,,,,,
,,,,,,,$5897893165,2020-07-16_15h19.38.959,fisher_task,2020.1.3,Win32,60,0.16944446,-0.328703716,1,0,0,2.597975,scale,,,,,,0.21373507,0.173205081,0.326485712,0.264575131,stimuli/lakes/304052_left.png,stimuli/lakes/304052_right.png,,,,0,83,83,52,1,,,,,
,,,,,,,$5897893165,2020-07-16_15h19.38.959,fisher_task,2020.1.3,Win32,60,0.002777791,-0.219444512,1,0,0,5.413585,scale,,,,,,0.275930788,0.223606798,0.275930788,0.223606798,stimuli/lakes/50104_left.png,stimuli/lakes/50104_right.png,,,,0,84,84,4,1,,,,,
,,,,,,,$5897893165,2020-07-16_15h19.38.959,fisher_task,2020.1.3,Win32,60,-0.091666655,-0.2388889,1,0,0,32.018635,scale,,,,,,0.1234,0.1,0.3702,0.3,stimuli/lakes/107089_left.png,stimuli/lakes/107089_right.png,,,,0,85,85,89,1,,,,,
,,,,,,,$5897893165,2020-07-16_15h19.38.959,fisher_task,2020.1.3,Win32,60,0.127777793,-0.275000068,1,0,0,5.014385,scale,,,,,,0.275930788,0.223606798,0.275930788,0.223606798,stimuli/lakes/503027_left.png,stimuli/lakes/503027_right.png,,,,0,86,86,27,1,,,,,
,,,,,,,$5897893165,2020-07-16_15h19.38.959,fisher_task,2020.1.3,Win32,60,-0.16574073,-0.324074086,1,0,0,6.363655,scale,,,,,,0.21373507,0.173205081,0.326485712,0.264575131,stimuli/lakes/3080110_left.png,stimuli/lakes/3080110_right.png,,,,0,87,87,110,1,,,,,
,,,,,,,$5897893165,2020-07-16_15h19.38.959,fisher_task,2020.1.3,Win32,60,-0.178703637,-0.358333403,1,0,0,1.9662,scale,,,,,,0.275930788,0.223606798,0.275930788,0.223606798,stimuli/lakes/5090125_left.png,stimuli/lakes/5090125_right.png,,,space,0,88,88,125,1,3.016915,,,,
,,,,,,,$5897893165,2020-07-16_15h19.38.959,fisher_task,2020.1.3,Win32,60,0.153703719,-0.284259327,1,0,0,4.981035,scale,,,,,,0.302267034,0.244948974,0.2468,0.2,stimuli/lakes/60105_left.png,stimuli/lakes/60105_right.png,,,,0,89,89,5,1,,,,,
,,,,,,,$5897893165,2020-07-16_15h19.38.959,fisher_task,2020.1.3,Win32,60,-0.191666656,-0.380555569,1,0,0,5.080895,scale,,,,,,0.326485712,0.264575131,0.21373507,0.173205081,stimuli/lakes/7080117_left.png,stimuli/lakes/7080117_right.png,,,,0,90,90,117,1,,,,,
,,,,,,,$5897893165,2020-07-16_15h19.38.959,fisher_task,2020.1.3,Win32,60,-0.159259248,-0.320370383,1,0,0,3.8477,scale,,,,,,0.2468,0.2,0.302267034,0.244948974,stimuli/lakes/4090123_left.png,stimuli/lakes/4090123_right.png,,,,0,91,91,123,1,,,,,
,,,,,,,$5897893165,2020-07-16_15h19.38.959,fisher_task,2020.1.3,Win32,60,0.173148164,-0.336111124,1,0,0,1.61552,scale,,,,,,0.21373507,0.173205081,0.326485712,0.264575131,stimuli/lakes/302013_left.png,stimuli/lakes/302013_right.png,,,,0,92,92,13,1,,,,,
,,,,,,,$5897893165,2020-07-16_15h19.38.959,fisher_task,2020.1.3,Win32,60,-0.073148136,-0.230555566,1,0,0,7.011905,scale,,,,,,0.349027907,0.282842712,0.174513954,0.141421356,stimuli/lakes/805069_left.png,stimuli/lakes/805069_right.png,,,,0,93,93,69,1,,,,,
,,,,,,,$5897893165,2020-07-16_15h19.38.959,fisher_task,2020.1.3,Win32,60,0.162037053,-0.305555568,1,0,0,6.53122,scale,,,,,,0.21373507,0.173205081,0.326485712,0.264575131,stimuli/lakes/302012_left.png,stimuli/lakes/302012_right.png,,,,0,94,94,12,1,,,,,
,,,,,,,$5897893165,2020-07-16_15h19.38.959,fisher_task,2020.1.3,Win32,60,-0.067592524,-0.221296307,1,0,0,4.54558,scale,,,,,,0.174513954,0.141421356,0.349027907,0.282842712,stimuli/lakes/207090_left.png,stimuli/lakes/207090_right.png,,,,0,95,95,90,1,,,,,
,,,,,,,$5897893165,2020-07-16_15h19.38.959,fisher_task,2020.1.3,Win32,60,0.173148164,-0.321296365,1,0,0,2.03162,scale,,,,,,0.174513954,0.141421356,0.349027907,0.282842712,stimuli/lakes/202011_left.png,stimuli/lakes/202011_right.png,,,,0,96,96,11,1,,,,,
,,,,,,,$5897893165,2020-07-16_15h19.38.959,fisher_task,2020.1.3,Win32,60,0.073148162,-0.23425927,1,0,0,3.44792,scale,,,,,,0.2468,0.2,0.302267034,0.244948974,stimuli/lakes/405063_left.png,stimuli/lakes/405063_right.png,,,,0,97,97,63,1,,,,,
,,,,,,,$5897893165,2020-07-16_15h19.38.959,fisher_task,2020.1.3,Win32,60,0.173148164,-0.310185197,1,0,0,1.53262,scale,,,,,,0.174513954,0.141421356,0.349027907,0.282842712,stimuli/lakes/203024_left.png,stimuli/lakes/203024_right.png,,,,0,98,98,24,1,,,,,
,,,,,,,$5897893165,2020-07-16_15h19.38.959,fisher_task,2020.1.3,Win32,60,0.153703719,-0.299074086,1,0,0,2.531935,scale,,,,,,0.326485712,0.264575131,0.21373507,0.173205081,stimuli/lakes/70108_left.png,stimuli/lakes/70108_right.png,,,,0,99,99,8,1,,,,,
,,,,,,,$5897893165,2020-07-16_15h19.38.959,fisher_task,2020.1.3,Win32,60,-0.175925915,-0.333333346,1,0,0,3.86465,scale,,,,,,0.275930788,0.223606798,0.275930788,0.223606798,stimuli/lakes/5070102_left.png,stimuli/lakes/5070102_right.png,,,,0,100,100,102,1,,,,,
,,,,,,,$5897893165,2020-07-16_15h19.38.959,fisher_task,2020.1.3,Win32,60,-0.005555542,-0.220370381,1,0,0,6.92947,scale,,,,,,0.275930788,0.223606798,0.275930788,0.223606798,stimuli/lakes/506084_left.png,stimuli/lakes/506084_right.png,,,,0,101,101,84,1,,,,,
,,,,,,,$5897893165,2020-07-16_15h19.38.959,fisher_task,2020.1.3,Win32,60,0.112037052,-0.24722229,1,0,0,2.96512,scale,,,,,,0.174513954,0.141421356,0.349027907,0.282842712,stimuli/lakes/205060_left.png,stimuli/lakes/205060_right.png,,,,0,102,102,60,1,,,,,
,,,,,,,$5897893165,2020-07-16_15h19.38.959,fisher_task,2020.1.3,Win32,60,0.170370386,-0.331481494,1,0,0,1.7663,scale,,,,,,0.21373507,0.173205081,0.326485712,0.264575131,stimuli/lakes/303034_left.png,stimuli/lakes/303034_right.png,,,,0,103,103,34,1,,,,,
,,,,,,,$5897893165,2020-07-16_15h19.38.959,fisher_task,2020.1.3,Win32,60,0.157407423,-0.305555568,0,0,1,6.11362,scale,,,,,,0.302267034,0.244948974,0.2468,0.2,stimuli/lakes/603037_left.png,stimuli/lakes/603037_right.png,,,,0,104,104,37,1,,,,,
,,,,,,,$5897893165,2020-07-16_15h19.38.959,fisher_task,2020.1.3,Win32,60,-0.12685184,-0.275000068,1,0,0,16.677055,scale,,,,,,0.1234,0.1,0.3702,0.3,stimuli/lakes/106080_left.png,stimuli/lakes/106080_right.png,,,,0,105,105,80,1,,,,,
,,,,,,,$5897893165,2020-07-16_15h19.38.959,fisher_task,2020.1.3,Win32,60,0.163888905,-0.297222234,1,0,0,2.84742,scale,,,,,,0.174513954,0.141421356,0.349027907,0.282842712,stimuli/lakes/204042_left.png,stimuli/lakes/204042_right.png,,,,0,106,106,42,1,,,,,
,,,,,,,$5897893165,2020-07-16_15h19.38.959,fisher_task,2020.1.3,Win32,60,0.123148163,-0.25185192,1,0,0,4.44801,scale,,,,,,0.349027907,0.282842712,0.174513954,0.141421356,stimuli/lakes/803039_left.png,stimuli/lakes/803039_right.png,,,,0,107,107,39,1,,,,,
,,,,,,,$5897893165,2020-07-16_15h19.38.959,fisher_task,2020.1.3,Win32,60,-0.128703692,-0.266666678,1,0,0,3.548375,scale,,,,,,0.302267034,0.244948974,0.2468,0.2,stimuli/lakes/605065_left.png,stimuli/lakes/605065_right.png,,,,0,108,108,65,1,,,,,
,,,,,,,$5897893165,2020-07-16_15h19.38.959,fisher_task,2020.1.3,Win32,60,0.103703718,-0.239814826,1,0,0,2.84717,scale,,,,,,0.21373507,0.173205081,0.326485712,0.264575131,stimuli/lakes/306082_left.png,stimuli/lakes/306082_right.png,,,,0,109,109,82,1,,,,,
,,,,,,,$5897893165,2020-07-16_15h19.38.959,fisher_task,2020.1.3,Win32,60,-0.118518451,-0.257407419,1,0,0,3.54769,scale,,,,,,0.2468,0.2,0.302267034,0.244948974,stimuli/lakes/407092_left.png,stimuli/lakes/407092_right.png,,,space,0,110,110,92,1,1.464035,,,,
,,,,,,,$5897893165,2020-07-16_15h19.38.959,fisher_task,2020.1.3,Win32,60,-0.137962952,-0.282407419,1,0,0,2.93162,scale,,,,,,0.174513954,0.141421356,0.349027907,0.282842712,stimuli/lakes/206081_left.png,stimuli/lakes/206081_right.png,,,,0,111,111,81,1,,,,,
,,,,,,,$5897893165,2020-07-16_15h19.38.959,fisher_task,2020.1.3,Win32,60,0.167592608,-0.333333346,1,0,0,1.781975,scale,,,,,,0.1234,0.1,0.3702,0.3,stimuli/lakes/105059_left.png,stimuli/lakes/105059_right.png,,,,0,112,112,59,1,,,,,
,,,,,,,$5897893165,2020-07-16_15h19.38.959,fisher_task,2020.1.3,Win32,60,0.154629645,-0.294444456,1,0,0,7.46325,scale,,,,,,0.326485712,0.264575131,0.21373507,0.173205081,stimuli/lakes/702019_left.png,stimuli/lakes/702019_right.png,,,,0,113,113,19,1,,,,,
,,,,,,,$5897893165,2020-07-16_15h19.38.959,fisher_task,2020.1.3,Win32,60,0.130555571,-0.259259271,1,0,0,4.931465,scale,,,,,,0.3702,0.3,0.1234,0.1,stimuli/lakes/904058_left.png,stimuli/lakes/904058_right.png,,,,0,114,114,58,1,,,,,
,,,,,,,$5897893165,2020-07-16_15h19.38.959,fisher_task,2020.1.3,Win32,60,0.131481497,-0.265740809,1,0,0,2.963795,scale,,,,,,0.3702,0.3,0.1234,0.1,stimuli/lakes/904049_left.png,stimuli/lakes/904049_right.png,,,,0,115,115,49,1,,,,,
,,,,,,,$5897893165,2020-07-16_15h19.38.959,fisher_task,2020.1.3,Win32,60,0.162037053,-0.302777846,1,0,0,2.31578,scale,,,,,,0.1234,0.1,0.3702,0.3,stimuli/lakes/104050_left.png,stimuli/lakes/104050_right.png,,,,0,116,116,50,1,,,,,
,,,,,,,$5897893165,2020-07-16_15h19.38.959,fisher_task,2020.1.3,Win32,60,0.180555571,-0.339814884,1,0,0,1.864715,scale,,,,,,0.21373507,0.173205081,0.326485712,0.264575131,stimuli/lakes/30100_left.png,stimuli/lakes/30100_right.png,,,,0,117,117,0,1,,,,,
,,,,,,,$5897893165,2020-07-16_15h19.38.959,fisher_task,2020.1.3,Win32,60,0.187962979,-0.363888902,1,0,0,7.330295,scale,,,,,,0.2468,0.2,0.302267034,0.244948974,stimuli/lakes/40103_left.png,stimuli/lakes/40103_right.png,,,,0,118,118,3,1,,,,,
,,,,,,,$5897893165,2020-07-16_15h19.38.959,fisher_task,2020.1.3,Win32,60,-0.178703637,-0.348148161,1,0,0,3.563545,scale,,,,,,0.349027907,0.282842712,0.174513954,0.141421356,stimuli/lakes/8070105_left.png,stimuli/lakes/8070105_right.png,,,,0,119,119,105,1,,,,,
,,,,,,,$5897893165,2020-07-16_15h19.38.959,fisher_task,2020.1.3,Win32,60,1.32455E-08,-0.215740751,1,0,0,6.097385,scale,,,,,,0.2468,0.2,0.302267034,0.244948974,stimuli/lakes/405064_left.png,stimuli/lakes/405064_right.png,,,,0,120,120,64,1,,,,,
,,,,,,,$5897893165,2020-07-16_15h19.38.959,fisher_task,2020.1.3,Win32,60,-0.185185175,-0.355555568,1,0,0,2.947565,scale,,,,,,0.174513954,0.141421356,0.349027907,0.282842712,stimuli/lakes/2090120_left.png,stimuli/lakes/2090120_right.png,,,,0,121,121,120,1,,,,,
,,,,,,,$5897893165,2020-07-16_15h19.38.959,fisher_task,2020.1.3,Win32,60,-0.005555542,-0.222222233,1,0,0,5.279715,scale,,,,,,0.302267034,0.244948974,0.2468,0.2,stimuli/lakes/605066_left.png,stimuli/lakes/605066_right.png,,,,0,122,122,66,1,,,,,
,,,,,,,$5897893165,2020-07-16_15h19.38.959,fisher_task,2020.1.3,Win32,60,0.167592608,-0.319444457,1,0,0,3.565155,scale,,,,,,0.326485712,0.264575131,0.21373507,0.173205081,stimuli/lakes/70107_left.png,stimuli/lakes/70107_right.png,,,,0,123,123,7,1,,,,,
,,,,,,,$5897893165,2020-07-16_15h19.38.959,fisher_task,2020.1.3,Win32,60,-0.159259248,-0.312962975,1,0,0,3.981295,scale,,,,,,0.349027907,0.282842712,0.174513954,0.141421356,stimuli/lakes/807096_left.png,stimuli/lakes/807096_right.png,,,,0,124,124,96,1,,,,,
,,,,,,,$5897893165,2020-07-16_15h19.38.959,fisher_task,2020.1.3,Win32,60,-0.177777767,-0.338888901,1,0,0,3.963695,scale,,,,,,0.21373507,0.173205081,0.326485712,0.264575131,stimuli/lakes/3080109_left.png,stimuli/lakes/3080109_right.png,,,,0,125,125,109,1,,,,,
,,,,,,,$5897893165,2020-07-16_15h19.38.959,fisher_task,2020.1.3,Win32,60,0.167592608,-0.329629642,1,0,0,3.93231,scale,,,,,,0.2468,0.2,0.302267034,0.244948974,stimuli/lakes/403026_left.png,stimuli/lakes/403026_right.png,,,,0,126,126,26,1,,,,,
,,,,,,,$5897893165,2020-07-16_15h19.38.959,fisher_task,2020.1.3,Win32,60,-0.184259249,-0.35740742,1,0,0,2.63196,scale,,,,,,0.326485712,0.264575131,0.21373507,0.173205081,stimuli/lakes/707095_left.png,stimuli/lakes/707095_right.png,,,,0,127,127,95,1,,,,,
,,,,,,,$5897893165,2020-07-16_15h19.38.959,fisher_task,2020.1.3,Win32,60,-0.193518508,-0.373148161,1,0,0,6.928965,scale,,,,,,0.1234,0.1,0.3702,0.3,stimuli/lakes/1090119_left.png,stimuli/lakes/1090119_right.png,,,,0,128,128,119,1,,,,,
,,,,,,,$5897893165,2020-07-16_15h19.38.959,fisher_task,2020.1.3,Win32,60,0.185185201,-0.35277779,1,0,0,2.364455,scale,,,,,,0.275930788,0.223606798,0.275930788,0.223606798,stimuli/lakes/504045_left.png,stimuli/lakes/504045_right.png,,,,0,129,129,45,1,,,,,
,,,,,,,$5897893165,2020-07-16_15h19.38.959,fisher_task,2020.1.3,Win32,60,,,,,,,,,,,,,,,,,,,,,,,,,,,,space,8.60032,space,38.38597
