keySpace.keys,instructions.thisRepN,instructions.thisTrialN,instructions.thisN,instructions.thisIndex,instructions.ran,participant,date,expName,psychopyVersion,OS,frameRate,mouse.x,mouse.y,mouse.leftButton,mouse.midButton,mouse.rightButton,mouse.time,mouse.clicked_name,training.thisRepN,training.thisTrialN,training.thisN,training.thisIndex,training.ran,widthBasketLeft,heightBasketLeft,widthBasketRight,heightBasketRight,leftLake,rightLake,space2.keys,space2.rt,space1.keys,trials.thisRepN,trials.thisTrialN,trials.thisN,trials.thisIndex,trials.ran,space1.rt,finalSpace1.keys,finalSpace1.rt,finalSpace2.keys,finalSpace2.rt
,0,0,0,0,1,$6035481555,2020-07-16_16h13.04.548,fisher_task,2020.1.3,Win32,60,,,,,,,,,,,,,,,,,,,,,,,,,,,,,,,
,,,,,,$6035481555,2020-07-16_16h13.04.548,fisher_task,2020.1.3,Win32,60,0.176851868,-0.39537044,1,0,0,6.283125,scale,0,0,0,0,1,0.275930788,0.223606798,0.275930788,0.223606798,stimuli/training/20_left.png,stimuli/training/20_right.png,,,,,,,,,,,,,
,,,,,,$6035481555,2020-07-16_16h13.04.548,fisher_task,2020.1.3,Win32,60,-0.006018505,-0.24675927,1,0,0,21.199075,scale,0,1,1,1,1,0.275930788,0.223606798,0.275930788,0.223606798,stimuli/training/80_left.png,stimuli/training/80_right.png,,,,,,,,,,,,,
,,,,,,$6035481555,2020-07-16_16h13.04.548,fisher_task,2020.1.3,Win32,60,0.126851867,-0.313425938,1,0,0,11.26587,scale,0,2,2,2,1,0.174513954,0.141421356,0.349027907,0.282842712,stimuli/training/50_left.png,stimuli/training/50_right.png,,,,,,,,,,,,,
,,,,,,$6035481555,2020-07-16_16h13.04.548,fisher_task,2020.1.3,Win32,60,0.022685255,-0.220833344,1,0,0,18.782385,scale,0,3,3,3,1,0.349027907,0.282842712,0.174513954,0.141421356,stimuli/training/50_left.png,stimuli/training/50_right.png,,,,,,,,,,,,,
,,,,,,$6035481555,2020-07-16_16h13.04.548,fisher_task,2020.1.3,Win32,60,0.000462976,-0.223148159,1,0,0,8.632855,scale,0,4,4,4,1,0.275930788,0.223606798,0.275930788,0.223606798,stimuli/training/50_left.png,stimuli/training/50_right.png,,,,,,,,,,,,,
,,,,,,$6035481555,2020-07-16_16h13.04.548,fisher_task,2020.1.3,Win32,60,0.192592609,-0.40416668,1,0,0,5.19949,scale,0,5,5,5,1,0.174513954,0.141421356,0.349027907,0.282842712,stimuli/training/20_left.png,stimuli/training/20_right.png,,,,,,,,,,,,,
,,,,,,$6035481555,2020-07-16_16h13.04.548,fisher_task,2020.1.3,Win32,60,-0.183796286,-0.398148162,1,0,0,4.883065,scale,0,6,6,6,1,0.349027907,0.282842712,0.174513954,0.141421356,stimuli/training/80_left.png,stimuli/training/80_right.png,,,,,,,,,,,,,
,,,,,,$6035481555,2020-07-16_16h13.04.548,fisher_task,2020.1.3,Win32,60,0.189351868,-0.425463033,1,0,0,7.482715,scale,0,7,7,7,1,0.1234,0.1,0.3702,0.3,stimuli/training/30_left.png,stimuli/training/30_right.png,,,,,,,,,,,,,
,,,,,,$6035481555,2020-07-16_16h13.04.548,fisher_task,2020.1.3,Win32,60,-0.162499933,-0.358796309,1,0,0,4.23281,scale,0,8,8,8,1,0.3702,0.3,0.1234,0.1,stimuli/training/70_left.png,stimuli/training/70_right.png,,,,,,,,,,,,,
,,,,,,$6035481555,2020-07-16_16h13.04.548,fisher_task,2020.1.3,Win32,60,-0.144444433,-0.333796309,0,0,1,4.0663,scale,0,9,9,9,1,0.326485712,0.264575131,0.21373507,0.173205081,stimuli/training/90_left.png,stimuli/training/90_right.png,,,,,,,,,,,,,
,,,,,,$6035481555,2020-07-16_16h13.04.548,fisher_task,2020.1.3,Win32,60,0.025462977,-0.180555566,1,0,0,6.34938,scale,0,10,10,10,1,0.21373507,0.173205081,0.326485712,0.264575131,stimuli/training/10_left.png,stimuli/training/10_right.png,,,,,,,,,,,,,
,,,,,,$6035481555,2020-07-16_16h13.04.548,fisher_task,2020.1.3,Win32,60,-0.135648137,-0.293518587,1,0,0,8.432985,scale,,,,,,0.302267034,0.244948974,0.2468,0.2,stimuli/lakes/6090127_left.png,stimuli/lakes/6090127_right.png,space,20.926065,,0,0,0,127,1,,,,,
,,,,,,$6035481555,2020-07-16_16h13.04.548,fisher_task,2020.1.3,Win32,60,0.149537053,-0.322685197,1,0,0,5.782695,scale,,,,,,0.2468,0.2,0.302267034,0.244948974,stimuli/lakes/403035_left.png,stimuli/lakes/403035_right.png,,,,0,1,1,35,1,,,,,
,,,,,,$6035481555,2020-07-16_16h13.04.548,fisher_task,2020.1.3,Win32,60,0.151851867,-0.32824081,1,0,0,2.382955,scale,,,,,,0.21373507,0.173205081,0.326485712,0.264575131,stimuli/lakes/303034_left.png,stimuli/lakes/303034_right.png,,,,0,2,2,34,1,,,,,
,,,,,,$6035481555,2020-07-16_16h13.04.548,fisher_task,2020.1.3,Win32,60,-0.112962951,-0.281481493,1,0,0,3.81619,scale,,,,,,0.302267034,0.244948974,0.2468,0.2,stimuli/lakes/6070103_left.png,stimuli/lakes/6070103_right.png,,,,0,3,3,103,1,,,,,
,,,,,,$6035481555,2020-07-16_16h13.04.548,fisher_task,2020.1.3,Win32,60,-0.153240673,-0.303240753,1,0,0,3.632965,scale,,,,,,0.349027907,0.282842712,0.174513954,0.141421356,stimuli/lakes/806078_left.png,stimuli/lakes/806078_right.png,,,,0,4,4,78,1,,,,,
,,,,,,$6035481555,2020-07-16_16h13.04.548,fisher_task,2020.1.3,Win32,60,0.096296311,-0.277314883,1,0,0,6.649655,scale,,,,,,0.174513954,0.141421356,0.349027907,0.282842712,stimuli/lakes/206072_left.png,stimuli/lakes/206072_right.png,,,,0,5,5,72,1,,,,,
,,,,,,$6035481555,2020-07-16_16h13.04.548,fisher_task,2020.1.3,Win32,60,-0.034259247,-0.232870381,1,0,0,7.099485,scale,,,,,,0.302267034,0.244948974,0.2468,0.2,stimuli/lakes/604046_left.png,stimuli/lakes/604046_right.png,,,,0,6,6,46,1,,,,,
,,,,,,$6035481555,2020-07-16_16h13.04.548,fisher_task,2020.1.3,Win32,60,-0.157870303,-0.336574087,1,0,0,4.66642,scale,,,,,,0.3702,0.3,0.1234,0.1,stimuli/lakes/906079_left.png,stimuli/lakes/906079_right.png,,,,0,7,7,79,1,,,,,
,,,,,,$6035481555,2020-07-16_16h13.04.548,fisher_task,2020.1.3,Win32,60,0.130555571,-0.280092604,1,0,0,4.01637,scale,,,,,,0.1234,0.1,0.3702,0.3,stimuli/lakes/1080107_left.png,stimuli/lakes/1080107_right.png,,,,0,8,8,107,1,,,,,
,,,,,,$6035481555,2020-07-16_16h13.04.548,fisher_task,2020.1.3,Win32,60,0.02037044,-0.229629641,1,0,0,5.816135,scale,,,,,,0.21373507,0.173205081,0.326485712,0.264575131,stimuli/lakes/3070100_left.png,stimuli/lakes/3070100_right.png,,,,0,9,9,100,1,,,,,
,,,,,,$6035481555,2020-07-16_16h13.04.548,fisher_task,2020.1.3,Win32,60,-0.168981471,-0.375462976,1,0,0,2.94972,scale,,,,,,0.3702,0.3,0.1234,0.1,stimuli/lakes/906088_left.png,stimuli/lakes/906088_right.png,,,,0,10,10,88,1,,,,,
,,,,,,$6035481555,2020-07-16_16h13.04.548,fisher_task,2020.1.3,Win32,60,0.174537053,-0.407407421,1,0,0,3.849675,scale,,,,,,0.1234,0.1,0.3702,0.3,stimuli/lakes/103023_left.png,stimuli/lakes/103023_right.png,,,,0,11,11,23,1,,,,,
,,,,,,$6035481555,2020-07-16_16h13.04.548,fisher_task,2020.1.3,Win32,60,0.084259274,-0.283796308,1,0,0,5.449635,scale,,,,,,0.2468,0.2,0.302267034,0.244948974,stimuli/lakes/40103_left.png,stimuli/lakes/40103_right.png,,,,0,12,12,3,1,,,,,
,,,,,,$6035481555,2020-07-16_16h13.04.548,fisher_task,2020.1.3,Win32,60,-0.031018506,-0.245833344,1,0,0,6.999705,scale,,,,,,0.302267034,0.244948974,0.2468,0.2,stimuli/lakes/605065_left.png,stimuli/lakes/605065_right.png,,,,0,13,13,65,1,,,,,
,,,,,,$6035481555,2020-07-16_16h13.04.548,fisher_task,2020.1.3,Win32,60,0.000925939,-0.233333401,1,0,0,3.682895,scale,,,,,,0.2468,0.2,0.302267034,0.244948974,stimuli/lakes/4090124_left.png,stimuli/lakes/4090124_right.png,,,,0,14,14,124,1,,,,,
,,,,,,$6035481555,2020-07-16_16h13.04.548,fisher_task,2020.1.3,Win32,60,-0.001851839,-0.244907475,1,0,0,4.749555,scale,,,,,,0.21373507,0.173205081,0.326485712,0.264575131,stimuli/lakes/306073_left.png,stimuli/lakes/306073_right.png,,,,0,15,15,73,1,,,,,
,,,,,,$6035481555,2020-07-16_16h13.04.548,fisher_task,2020.1.3,Win32,60,-0.165277767,-0.370370383,1,0,0,2.666285,scale,,,,,,0.349027907,0.282842712,0.174513954,0.141421356,stimuli/lakes/807096_left.png,stimuli/lakes/807096_right.png,,,,0,16,16,96,1,,,,,
,,,,,,$6035481555,2020-07-16_16h13.04.548,fisher_task,2020.1.3,Win32,60,-0.005092523,-0.240277845,1,0,0,4.58286,scale,,,,,,0.302267034,0.244948974,0.2468,0.2,stimuli/lakes/60105_left.png,stimuli/lakes/60105_right.png,,,,0,17,17,5,1,,,,,
,,,,,,$6035481555,2020-07-16_16h13.04.548,fisher_task,2020.1.3,Win32,60,-0.16574073,-0.376388902,1,0,0,4.799825,scale,,,,,,0.326485712,0.264575131,0.21373507,0.173205081,stimuli/lakes/7070104_left.png,stimuli/lakes/7070104_right.png,,,,0,18,18,104,1,,,,,
,,,,,,$6035481555,2020-07-16_16h13.04.548,fisher_task,2020.1.3,Win32,60,0.177314831,-0.382870384,1,0,0,2.54969,scale,,,,,,0.21373507,0.173205081,0.326485712,0.264575131,stimuli/lakes/303025_left.png,stimuli/lakes/303025_right.png,,,,0,19,19,25,1,,,,,
,,,,,,$6035481555,2020-07-16_16h13.04.548,fisher_task,2020.1.3,Win32,60,-0.138888878,-0.321296365,1,0,0,2.34963,scale,,,,,,0.302267034,0.244948974,0.2468,0.2,stimuli/lakes/606076_left.png,stimuli/lakes/606076_right.png,,,,0,20,20,76,1,,,,,
,,,,,,$6035481555,2020-07-16_16h13.04.548,fisher_task,2020.1.3,Win32,60,0.162037053,-0.349074143,1,0,0,2.88293,scale,,,,,,0.1234,0.1,0.3702,0.3,stimuli/lakes/104041_left.png,stimuli/lakes/104041_right.png,,,,0,21,21,41,1,,,,,
,,,,,,$6035481555,2020-07-16_16h13.04.548,fisher_task,2020.1.3,Win32,60,-0.145370359,-0.34490742,1,0,0,4.3663,scale,,,,,,0.349027907,0.282842712,0.174513954,0.141421356,stimuli/lakes/806087_left.png,stimuli/lakes/806087_right.png,,,space,0,22,22,87,1,61.54272,,,,
,,,,,,$6035481555,2020-07-16_16h13.04.548,fisher_task,2020.1.3,Win32,60,0.154629645,-0.335185254,1,0,0,2.84981,scale,,,,,,0.174513954,0.141421356,0.349027907,0.282842712,stimuli/lakes/204051_left.png,stimuli/lakes/204051_right.png,,,,0,23,23,51,1,,,,,
,,,,,,$6035481555,2020-07-16_16h13.04.548,fisher_task,2020.1.3,Win32,60,-0.08472221,-0.278703715,1,0,0,4.73304,scale,,,,,,0.275930788,0.223606798,0.275930788,0.223606798,stimuli/lakes/507093_left.png,stimuli/lakes/507093_right.png,,,,0,24,24,93,1,,,,,
,,,,,,$6035481555,2020-07-16_16h13.04.548,fisher_task,2020.1.3,Win32,60,-0.070833321,-0.26851853,1,0,0,4.46636,scale,,,,,,0.349027907,0.282842712,0.174513954,0.141421356,stimuli/lakes/80109_left.png,stimuli/lakes/80109_right.png,,,,0,25,25,9,1,,,,,
,,,,,,$6035481555,2020-07-16_16h13.04.548,fisher_task,2020.1.3,Win32,60,-0.074536968,-0.269907419,1,0,0,3.26625,scale,,,,,,0.275930788,0.223606798,0.275930788,0.223606798,stimuli/lakes/506075_left.png,stimuli/lakes/506075_right.png,,,,0,26,26,75,1,,,,,
,,,,,,$6035481555,2020-07-16_16h13.04.548,fisher_task,2020.1.3,Win32,60,-0.125462895,-0.303240753,1,0,0,5.34941,scale,,,,,,0.302267034,0.244948974,0.2468,0.2,stimuli/lakes/606085_left.png,stimuli/lakes/606085_right.png,,,,0,27,27,85,1,,,,,
,,,,,,$6035481555,2020-07-16_16h13.04.548,fisher_task,2020.1.3,Win32,60,0.109722237,-0.294907419,1,0,0,3.099645,scale,,,,,,0.21373507,0.173205081,0.326485712,0.264575131,stimuli/lakes/302012_left.png,stimuli/lakes/302012_right.png,,,,0,28,28,12,1,,,,,
,,,,,,$6035481555,2020-07-16_16h13.04.548,fisher_task,2020.1.3,Win32,60,0.118518534,-0.28564816,1,0,0,5.39956,scale,,,,,,0.21373507,0.173205081,0.326485712,0.264575131,stimuli/lakes/305061_left.png,stimuli/lakes/305061_right.png,,,,0,29,29,61,1,,,,,
,,,,,,$6035481555,2020-07-16_16h13.04.548,fisher_task,2020.1.3,Win32,60,0.030555569,-0.227777789,1,0,0,7.16633,scale,,,,,,0.21373507,0.173205081,0.326485712,0.264575131,stimuli/lakes/305062_left.png,stimuli/lakes/305062_right.png,,,,0,30,30,62,1,,,,,
,,,,,,$6035481555,2020-07-16_16h13.04.548,fisher_task,2020.1.3,Win32,60,0.000462976,-0.239351863,1,0,0,2.616245,scale,,,,,,0.21373507,0.173205081,0.326485712,0.264575131,stimuli/lakes/3090122_left.png,stimuli/lakes/3090122_right.png,,,,0,31,31,122,1,,,,,
,,,,,,$6035481555,2020-07-16_16h13.04.548,fisher_task,2020.1.3,Win32,60,0.070833348,-0.249074085,1,0,0,7.599595,scale,,,,,,0.174513954,0.141421356,0.349027907,0.282842712,stimuli/lakes/205060_left.png,stimuli/lakes/205060_right.png,,,,0,32,32,60,1,,,,,
,,,,,,$6035481555,2020-07-16_16h13.04.548,fisher_task,2020.1.3,Win32,60,0.140277793,-0.295370382,1,0,0,4.066225,scale,,,,,,0.1234,0.1,0.3702,0.3,stimuli/lakes/106071_left.png,stimuli/lakes/106071_right.png,,,,0,33,33,71,1,,,,,
,,,,,,$6035481555,2020-07-16_16h13.04.548,fisher_task,2020.1.3,Win32,60,-0.002314802,-0.226388956,1,0,0,4.166315,scale,,,,,,0.21373507,0.173205081,0.326485712,0.264575131,stimuli/lakes/3090121_left.png,stimuli/lakes/3090121_right.png,,,,0,34,34,121,1,,,,,
,,,,,,$6035481555,2020-07-16_16h13.04.548,fisher_task,2020.1.3,Win32,60,-0.053703635,-0.252777789,1,0,0,2.89969,scale,,,,,,0.326485712,0.264575131,0.21373507,0.173205081,stimuli/lakes/703038_left.png,stimuli/lakes/703038_right.png,,,,0,35,35,38,1,,,,,
,,,,,,$6035481555,2020-07-16_16h13.04.548,fisher_task,2020.1.3,Win32,60,-0.164351841,-0.351851865,1,0,0,4.933205,scale,,,,,,0.302267034,0.244948974,0.2468,0.2,stimuli/lakes/6090126_left.png,stimuli/lakes/6090126_right.png,,,,0,36,36,126,1,,,,,
,,,,,,$6035481555,2020-07-16_16h13.04.548,fisher_task,2020.1.3,Win32,60,-0.172222212,-0.361111124,1,0,0,5.46624,scale,,,,,,0.349027907,0.282842712,0.174513954,0.141421356,stimuli/lakes/8080118_left.png,stimuli/lakes/8080118_right.png,,,,0,37,37,118,1,,,,,
,,,,,,$6035481555,2020-07-16_16h13.04.548,fisher_task,2020.1.3,Win32,60,0.17407409,-0.348611124,1,0,0,2.799825,scale,,,,,,0.174513954,0.141421356,0.349027907,0.282842712,stimuli/lakes/203033_left.png,stimuli/lakes/203033_right.png,,,,0,38,38,33,1,,,,,
,,,,,,$6035481555,2020-07-16_16h13.04.548,fisher_task,2020.1.3,Win32,60,0.047685199,-0.258333345,1,0,0,4.716255,scale,,,,,,0.275930788,0.223606798,0.275930788,0.223606798,stimuli/lakes/503027_left.png,stimuli/lakes/503027_right.png,,,,0,39,39,27,1,,,,,
,,,,,,$6035481555,2020-07-16_16h13.04.548,fisher_task,2020.1.3,Win32,60,0.012500013,-0.232407418,1,0,0,6.499405,scale,,,,,,0.21373507,0.173205081,0.326485712,0.264575131,stimuli/lakes/3080109_left.png,stimuli/lakes/3080109_right.png,,,,0,40,40,109,1,,,,,
,,,,,,$6035481555,2020-07-16_16h13.04.548,fisher_task,2020.1.3,Win32,60,0.054629644,-0.264351863,1,0,0,4.099665,scale,,,,,,0.302267034,0.244948974,0.2468,0.2,stimuli/lakes/60106_left.png,stimuli/lakes/60106_right.png,,,,0,41,41,6,1,,,,,
,,,,,,$6035481555,2020-07-16_16h13.04.548,fisher_task,2020.1.3,Win32,60,0.107870385,-0.265277789,1,0,0,4.016275,scale,,,,,,0.275930788,0.223606798,0.275930788,0.223606798,stimuli/lakes/503036_left.png,stimuli/lakes/503036_right.png,,,,0,42,42,36,1,,,,,
,,,,,,$6035481555,2020-07-16_16h13.04.548,fisher_task,2020.1.3,Win32,60,0.070370385,-0.249537105,1,0,0,6.166375,scale,,,,,,0.326485712,0.264575131,0.21373507,0.173205081,stimuli/lakes/70108_left.png,stimuli/lakes/70108_right.png,,,,0,43,43,8,1,,,,,
,,,,,,$6035481555,2020-07-16_16h13.04.548,fisher_task,2020.1.3,Win32,60,-0.104166655,-0.28564816,1,0,0,3.78297,scale,,,,,,0.302267034,0.244948974,0.2468,0.2,stimuli/lakes/6080115_left.png,stimuli/lakes/6080115_right.png,,,space,0,44,44,115,1,241.587395,,,,
,,,,,,$6035481555,2020-07-16_16h13.04.548,fisher_task,2020.1.3,Win32,60,0.079629644,-0.286111123,1,0,0,5.24981,scale,,,,,,0.2468,0.2,0.302267034,0.244948974,stimuli/lakes/404044_left.png,stimuli/lakes/404044_right.png,,,,0,45,45,44,1,,,,,
,,,,,,$6035481555,2020-07-16_16h13.04.548,fisher_task,2020.1.3,Win32,60,0.007407421,-0.227777789,0,0,1,2.816345,scale,,,,,,0.326485712,0.264575131,0.21373507,0.173205081,stimuli/lakes/702020_left.png,stimuli/lakes/702020_right.png,,,,0,46,46,20,1,,,,,
,,,,,,$6035481555,2020-07-16_16h13.04.548,fisher_task,2020.1.3,Win32,60,0.024074088,-0.217592603,1,0,0,5.46618,scale,,,,,,0.326485712,0.264575131,0.21373507,0.173205081,stimuli/lakes/702019_left.png,stimuli/lakes/702019_right.png,,,,0,47,47,19,1,,,,,
,,,,,,$6035481555,2020-07-16_16h13.04.548,fisher_task,2020.1.3,Win32,60,0.125000015,-0.272685253,1,0,0,6.182745,scale,,,,,,0.2468,0.2,0.302267034,0.244948974,stimuli/lakes/402015_left.png,stimuli/lakes/402015_right.png,,,,0,48,48,15,1,,,,,
,,,,,,$6035481555,2020-07-16_16h13.04.548,fisher_task,2020.1.3,Win32,60,-0.124537026,-0.279166678,1,0,0,6.16603,scale,,,,,,0.326485712,0.264575131,0.21373507,0.173205081,stimuli/lakes/705068_left.png,stimuli/lakes/705068_right.png,,,,0,49,49,68,1,,,,,
,,,,,,$6035481555,2020-07-16_16h13.04.548,fisher_task,2020.1.3,Win32,60,0.153240756,-0.31527779,1,0,0,4.11633,scale,,,,,,0.21373507,0.173205081,0.326485712,0.264575131,stimuli/lakes/30101_left.png,stimuli/lakes/30101_right.png,,,,0,50,50,1,1,,,,,
,,,,,,$6035481555,2020-07-16_16h13.04.548,fisher_task,2020.1.3,Win32,60,-0.142129619,-0.322685197,1,0,0,3.399435,scale,,,,,,0.349027907,0.282842712,0.174513954,0.141421356,stimuli/lakes/804048_left.png,stimuli/lakes/804048_right.png,,,,0,51,51,48,1,,,,,
,,,,,,$6035481555,2020-07-16_16h13.04.548,fisher_task,2020.1.3,Win32,60,-0.005555542,-0.225000011,1,0,0,7.032675,scale,,,,,,0.174513954,0.141421356,0.349027907,0.282842712,stimuli/lakes/2090120_left.png,stimuli/lakes/2090120_right.png,,,,0,52,52,120,1,,,,,
,,,,,,$6035481555,2020-07-16_16h13.04.548,fisher_task,2020.1.3,Win32,60,0.048148219,-0.233796307,1,0,0,9.066175,scale,,,,,,0.326485712,0.264575131,0.21373507,0.173205081,stimuli/lakes/70107_left.png,stimuli/lakes/70107_right.png,,,,0,53,53,7,1,,,,,
,,,,,,$6035481555,2020-07-16_16h13.04.548,fisher_task,2020.1.3,Win32,60,-0.122222211,-0.277314883,1,0,0,3.916285,scale,,,,,,0.275930788,0.223606798,0.275930788,0.223606798,stimuli/lakes/5090125_left.png,stimuli/lakes/5090125_right.png,,,,0,54,54,125,1,,,,,
,,,,,,$6035481555,2020-07-16_16h13.04.548,fisher_task,2020.1.3,Win32,60,-0.094907396,-0.257407419,1,0,0,9.83271,scale,,,,,,0.302267034,0.244948974,0.2468,0.2,stimuli/lakes/604055_left.png,stimuli/lakes/604055_right.png,,,,0,55,55,55,1,,,,,
,,,,,,$6035481555,2020-07-16_16h13.04.548,fisher_task,2020.1.3,Win32,60,-0.137036969,-0.293055567,1,0,0,4.583225,scale,,,,,,0.275930788,0.223606798,0.275930788,0.223606798,stimuli/lakes/5080113_left.png,stimuli/lakes/5080113_right.png,,,,0,56,56,113,1,,,,,
,,,,,,$6035481555,2020-07-16_16h13.04.548,fisher_task,2020.1.3,Win32,60,-0.018518506,-0.223148159,1,0,0,7.416285,scale,,,,,,0.275930788,0.223606798,0.275930788,0.223606798,stimuli/lakes/504054_left.png,stimuli/lakes/504054_right.png,,,,0,57,57,54,1,,,,,
,,,,,,$6035481555,2020-07-16_16h13.04.548,fisher_task,2020.1.3,Win32,60,-0.023148135,-0.223148159,1,0,0,5.51637,scale,,,,,,0.349027907,0.282842712,0.174513954,0.141421356,stimuli/lakes/803039_left.png,stimuli/lakes/803039_right.png,,,,0,58,58,39,1,,,,,
,,,,,,$6035481555,2020-07-16_16h13.04.548,fisher_task,2020.1.3,Win32,60,0.0726852,-0.254629641,1,0,0,5.04955,scale,,,,,,0.21373507,0.173205081,0.326485712,0.264575131,stimuli/lakes/302013_left.png,stimuli/lakes/302013_right.png,,,,0,59,59,13,1,,,,,
,,,,,,$6035481555,2020-07-16_16h13.04.548,fisher_task,2020.1.3,Win32,60,-0.156944434,-0.320370383,1,0,0,3.9329,scale,,,,,,0.326485712,0.264575131,0.21373507,0.173205081,stimuli/lakes/7090128_left.png,stimuli/lakes/7090128_right.png,,,,0,60,60,128,1,,,,,
,,,,,,$6035481555,2020-07-16_16h13.04.548,fisher_task,2020.1.3,Win32,60,0.065740755,-0.243055567,1,0,0,4.99971,scale,,,,,,0.1234,0.1,0.3702,0.3,stimuli/lakes/107098_left.png,stimuli/lakes/107098_right.png,,,,0,61,61,98,1,,,,,
,,,,,,$6035481555,2020-07-16_16h13.04.548,fisher_task,2020.1.3,Win32,60,0.156481497,-0.321296365,1,0,0,3.91636,scale,,,,,,0.2468,0.2,0.302267034,0.244948974,stimuli/lakes/40102_left.png,stimuli/lakes/40102_right.png,,,,0,62,62,2,1,,,,,
,,,,,,$6035481555,2020-07-16_16h13.04.548,fisher_task,2020.1.3,Win32,60,0.042592606,-0.227314826,1,0,0,4.71638,scale,,,,,,0.302267034,0.244948974,0.2468,0.2,stimuli/lakes/603028_left.png,stimuli/lakes/603028_right.png,,,,0,63,63,28,1,,,,,
,,,,,,$6035481555,2020-07-16_16h13.04.548,fisher_task,2020.1.3,Win32,60,-0.146296229,-0.308796308,1,0,0,5.066195,scale,,,,,,0.326485712,0.264575131,0.21373507,0.173205081,stimuli/lakes/706077_left.png,stimuli/lakes/706077_right.png,,,,0,64,64,77,1,,,,,
,,,,,,$6035481555,2020-07-16_16h13.04.548,fisher_task,2020.1.3,Win32,60,-0.147685174,-0.317592605,1,0,0,2.73319,scale,,,,,,0.302267034,0.244948974,0.2468,0.2,stimuli/lakes/6080114_left.png,stimuli/lakes/6080114_right.png,,,,0,65,65,114,1,,,,,
,,,,,,$6035481555,2020-07-16_16h13.04.548,fisher_task,2020.1.3,Win32,60,0.178240757,-0.348148161,1,0,0,4.76636,scale,,,,,,0.21373507,0.173205081,0.326485712,0.264575131,stimuli/lakes/30100_left.png,stimuli/lakes/30100_right.png,,,space,0,66,66,0,1,18.246545,,,,
,,,,,,$6035481555,2020-07-16_16h13.04.548,fisher_task,2020.1.3,Win32,60,0.000462976,-0.227777789,1,0,0,4.366275,scale,,,,,,0.349027907,0.282842712,0.174513954,0.141421356,stimuli/lakes/802021_left.png,stimuli/lakes/802021_right.png,,,,0,67,67,21,1,,,,,
,,,,,,$6035481555,2020-07-16_16h13.04.548,fisher_task,2020.1.3,Win32,60,1.32455E-08,-0.225000011,1,0,0,7.749515,scale,,,,,,0.174513954,0.141421356,0.349027907,0.282842712,stimuli/lakes/2080108_left.png,stimuli/lakes/2080108_right.png,,,,0,68,68,108,1,,,,,
,,,,,,$6035481555,2020-07-16_16h13.04.548,fisher_task,2020.1.3,Win32,60,-0.017129617,-0.230092603,1,0,0,9.449565,scale,,,,,,0.3702,0.3,0.1234,0.1,stimuli/lakes/903040_left.png,stimuli/lakes/903040_right.png,,,,0,69,69,40,1,,,,,
,,,,,,$6035481555,2020-07-16_16h13.04.548,fisher_task,2020.1.3,Win32,60,-0.006018505,-0.220370381,1,0,0,5.166345,scale,,,,,,0.275930788,0.223606798,0.275930788,0.223606798,stimuli/lakes/506084_left.png,stimuli/lakes/506084_right.png,,,,0,70,70,84,1,,,,,
,,,,,,$6035481555,2020-07-16_16h13.04.548,fisher_task,2020.1.3,Win32,60,-0.030555486,-0.220833344,1,0,0,3.59968,scale,,,,,,0.302267034,0.244948974,0.2468,0.2,stimuli/lakes/605066_left.png,stimuli/lakes/605066_right.png,,,,0,71,71,66,1,,,,,
,,,,,,$6035481555,2020-07-16_16h13.04.548,fisher_task,2020.1.3,Win32,60,-0.000925913,-0.218055566,1,0,0,3.483,scale,,,,,,0.275930788,0.223606798,0.275930788,0.223606798,stimuli/lakes/504045_left.png,stimuli/lakes/504045_right.png,,,,0,72,72,45,1,,,,,
,,,,,,$6035481555,2020-07-16_16h13.04.548,fisher_task,2020.1.3,Win32,60,-0.130555544,-0.286574142,1,0,0,5.416475,scale,,,,,,0.2468,0.2,0.302267034,0.244948974,stimuli/lakes/4080111_left.png,stimuli/lakes/4080111_right.png,,,,0,73,73,111,1,,,,,
,,,,,,$6035481555,2020-07-16_16h13.04.548,fisher_task,2020.1.3,Win32,60,0.012962976,-0.219907418,1,0,0,6.116275,scale,,,,,,0.21373507,0.173205081,0.326485712,0.264575131,stimuli/lakes/3080110_left.png,stimuli/lakes/3080110_right.png,,,,0,74,74,110,1,,,,,
,,,,,,$6035481555,2020-07-16_16h13.04.548,fisher_task,2020.1.3,Win32,60,0.160648164,-0.320833346,1,0,0,8.266295,scale,,,,,,0.174513954,0.141421356,0.349027907,0.282842712,stimuli/lakes/204042_left.png,stimuli/lakes/204042_right.png,,,,0,75,75,42,1,,,,,
,,,,,,$6035481555,2020-07-16_16h13.04.548,fisher_task,2020.1.3,Win32,60,-0.17824073,-0.373611124,1,0,0,6.19957,scale,,,,,,0.3702,0.3,0.1234,0.1,stimuli/lakes/9070106_left.png,stimuli/lakes/9070106_right.png,,,,0,76,76,106,1,,,,,
,,,,,,$6035481555,2020-07-16_16h13.04.548,fisher_task,2020.1.3,Win32,60,0.18657409,-0.380092606,1,0,0,3.166555,scale,,,,,,0.1234,0.1,0.3702,0.3,stimuli/lakes/104050_left.png,stimuli/lakes/104050_right.png,,,,0,77,77,50,1,,,,,
,,,,,,$6035481555,2020-07-16_16h13.04.548,fisher_task,2020.1.3,Win32,60,0.17407409,-0.343055568,1,0,0,2.516295,scale,,,,,,0.174513954,0.141421356,0.349027907,0.282842712,stimuli/lakes/203024_left.png,stimuli/lakes/203024_right.png,,,,0,78,78,24,1,,,,,
,,,,,,$6035481555,2020-07-16_16h13.04.548,fisher_task,2020.1.3,Win32,60,0.003240754,-0.225462974,1,0,0,2.58318,scale,,,,,,0.2468,0.2,0.302267034,0.244948974,stimuli/lakes/405064_left.png,stimuli/lakes/405064_right.png,,,,0,79,79,64,1,,,,,
,,,,,,$6035481555,2020-07-16_16h13.04.548,fisher_task,2020.1.3,Win32,60,-0.150462952,-0.317129642,1,0,0,2.26663,scale,,,,,,0.326485712,0.264575131,0.21373507,0.173205081,stimuli/lakes/7080116_left.png,stimuli/lakes/7080116_right.png,,,,0,80,80,116,1,,,,,
,,,,,,$6035481555,2020-07-16_16h13.04.548,fisher_task,2020.1.3,Win32,60,0.007407421,-0.219907418,1,0,0,4.9163,scale,,,,,,0.174513954,0.141421356,0.349027907,0.282842712,stimuli/lakes/207090_left.png,stimuli/lakes/207090_right.png,,,,0,81,81,90,1,,,,,
,,,,,,$6035481555,2020-07-16_16h13.04.548,fisher_task,2020.1.3,Win32,60,0.011111181,-0.218055566,1,0,0,2.666375,scale,,,,,,0.302267034,0.244948974,0.2468,0.2,stimuli/lakes/602017_left.png,stimuli/lakes/602017_right.png,,,,0,82,82,17,1,,,,,
,,,,,,$6035481555,2020-07-16_16h13.04.548,fisher_task,2020.1.3,Win32,60,-0.005555542,-0.223148159,1,0,0,10.499395,scale,,,,,,0.3702,0.3,0.1234,0.1,stimuli/lakes/903031_left.png,stimuli/lakes/903031_right.png,,,,0,83,83,31,1,,,,,
,,,,,,$6035481555,2020-07-16_16h13.04.548,fisher_task,2020.1.3,Win32,60,-0.132870359,-0.279629698,1,0,0,5.91611,scale,,,,,,0.326485712,0.264575131,0.21373507,0.173205081,stimuli/lakes/706086_left.png,stimuli/lakes/706086_right.png,,,,0,84,84,86,1,,,,,
,,,,,,$6035481555,2020-07-16_16h13.04.548,fisher_task,2020.1.3,Win32,60,0.032870384,-0.220833344,1,0,0,5.483125,scale,,,,,,0.1234,0.1,0.3702,0.3,stimuli/lakes/107089_left.png,stimuli/lakes/107089_right.png,,,,0,85,85,89,1,,,,,
,,,,,,$6035481555,2020-07-16_16h13.04.548,fisher_task,2020.1.3,Win32,60,0.031018532,-0.224074141,1,0,0,5.149495,scale,,,,,,0.3702,0.3,0.1234,0.1,stimuli/lakes/901010_left.png,stimuli/lakes/901010_right.png,,,,0,86,86,10,1,,,,,
,,,,,,$6035481555,2020-07-16_16h13.04.548,fisher_task,2020.1.3,Win32,60,-0.11898147,-0.26851853,1,0,0,5.41635,scale,,,,,,0.2468,0.2,0.302267034,0.244948974,stimuli/lakes/407092_left.png,stimuli/lakes/407092_right.png,,,,0,87,87,92,1,,,,,
,,,,,,$6035481555,2020-07-16_16h13.04.548,fisher_task,2020.1.3,Win32,60,-0.012499987,-0.220370381,1,0,0,3.61653,scale,,,,,,0.3702,0.3,0.1234,0.1,stimuli/lakes/902022_left.png,stimuli/lakes/902022_right.png,,,space,0,88,88,22,1,9.729295,,,,
,,,,,,$6035481555,2020-07-16_16h13.04.548,fisher_task,2020.1.3,Win32,60,0.03425933,-0.226388956,1,0,0,3.449585,scale,,,,,,0.174513954,0.141421356,0.349027907,0.282842712,stimuli/lakes/207099_left.png,stimuli/lakes/207099_right.png,,,,0,89,89,99,1,,,,,
,,,,,,$6035481555,2020-07-16_16h13.04.548,fisher_task,2020.1.3,Win32,60,0.023148162,-0.218981492,1,0,0,7.916355,scale,,,,,,0.2468,0.2,0.302267034,0.244948974,stimuli/lakes/404053_left.png,stimuli/lakes/404053_right.png,,,,0,90,90,53,1,,,,,
,,,,,,$6035481555,2020-07-16_16h13.04.548,fisher_task,2020.1.3,Win32,60,0.02500007,-0.220833344,1,0,0,2.18321,scale,,,,,,0.2468,0.2,0.302267034,0.244948974,stimuli/lakes/405063_left.png,stimuli/lakes/405063_right.png,,,,0,91,91,63,1,,,,,
,,,,,,$6035481555,2020-07-16_16h13.04.548,fisher_task,2020.1.3,Win32,60,-0.072222154,-0.241666678,1,0,0,4.116365,scale,,,,,,0.326485712,0.264575131,0.21373507,0.173205081,stimuli/lakes/7090129_left.png,stimuli/lakes/7090129_right.png,,,,0,92,92,129,1,,,,,
,,,,,,$6035481555,2020-07-16_16h13.04.548,fisher_task,2020.1.3,Win32,60,-0.142592581,-0.295833402,0,0,1,1.98292,scale,,,,,,0.326485712,0.264575131,0.21373507,0.173205081,stimuli/lakes/707095_left.png,stimuli/lakes/707095_right.png,,,,0,93,93,95,1,,,,,
,,,,,,$6035481555,2020-07-16_16h13.04.548,fisher_task,2020.1.3,Win32,60,0.071759274,-0.237037048,1,0,0,3.533165,scale,,,,,,0.1234,0.1,0.3702,0.3,stimuli/lakes/106080_left.png,stimuli/lakes/106080_right.png,,,,0,94,94,80,1,,,,,
,,,,,,$6035481555,2020-07-16_16h13.04.548,fisher_task,2020.1.3,Win32,60,-0.090740672,-0.244907475,1,0,0,5.799445,scale,,,,,,0.302267034,0.244948974,0.2468,0.2,stimuli/lakes/603037_left.png,stimuli/lakes/603037_right.png,,,,0,95,95,37,1,,,,,
,,,,,,$6035481555,2020-07-16_16h13.04.548,fisher_task,2020.1.3,Win32,60,0.109722237,-0.262500011,1,0,0,3.849425,scale,,,,,,0.21373507,0.173205081,0.326485712,0.264575131,stimuli/lakes/304043_left.png,stimuli/lakes/304043_right.png,,,,0,96,96,43,1,,,,,
,,,,,,$6035481555,2020-07-16_16h13.04.548,fisher_task,2020.1.3,Win32,60,0.084722237,-0.235648216,1,0,0,3.466205,scale,,,,,,0.21373507,0.173205081,0.326485712,0.264575131,stimuli/lakes/307091_left.png,stimuli/lakes/307091_right.png,,,,0,97,97,91,1,,,,,
,,,,,,$6035481555,2020-07-16_16h13.04.548,fisher_task,2020.1.3,Win32,60,-0.002314802,-0.216203714,1,0,0,6.98283,scale,,,,,,0.302267034,0.244948974,0.2468,0.2,stimuli/lakes/602018_left.png,stimuli/lakes/602018_right.png,,,,0,98,98,18,1,,,,,
,,,,,,$6035481555,2020-07-16_16h13.04.548,fisher_task,2020.1.3,Win32,60,-0.036111098,-0.223611122,1,0,0,2.83308,scale,,,,,,0.2468,0.2,0.302267034,0.244948974,stimuli/lakes/406074_left.png,stimuli/lakes/406074_right.png,,,,0,99,99,74,1,,,,,
,,,,,,$6035481555,2020-07-16_16h13.04.548,fisher_task,2020.1.3,Win32,60,0.151851867,-0.303240753,1,0,0,10.4163,scale,,,,,,0.2468,0.2,0.302267034,0.244948974,stimuli/lakes/402014_left.png,stimuli/lakes/402014_right.png,,,,0,100,100,14,1,,,,,
,,,,,,$6035481555,2020-07-16_16h13.04.548,fisher_task,2020.1.3,Win32,60,-0.122685174,-0.271296308,1,0,0,6.149555,scale,,,,,,0.326485712,0.264575131,0.21373507,0.173205081,stimuli/lakes/704056_left.png,stimuli/lakes/704056_right.png,,,,0,101,101,56,1,,,,,
,,,,,,$6035481555,2020-07-16_16h13.04.548,fisher_task,2020.1.3,Win32,60,0.056018533,-0.226851863,1,0,0,4.59945,scale,,,,,,0.2468,0.2,0.302267034,0.244948974,stimuli/lakes/4070101_left.png,stimuli/lakes/4070101_right.png,,,,0,102,102,101,1,,,,,
,,,,,,$6035481555,2020-07-16_16h13.04.548,fisher_task,2020.1.3,Win32,60,-0.124074063,-0.274537049,1,0,0,6.716105,scale,,,,,,0.275930788,0.223606798,0.275930788,0.223606798,stimuli/lakes/5070102_left.png,stimuli/lakes/5070102_right.png,,,,0,103,103,102,1,,,,,
,,,,,,$6035481555,2020-07-16_16h13.04.548,fisher_task,2020.1.3,Win32,60,0.167592608,-0.331018531,1,0,0,3.60012,scale,,,,,,0.174513954,0.141421356,0.349027907,0.282842712,stimuli/lakes/202011_left.png,stimuli/lakes/202011_right.png,,,,0,104,104,11,1,,,,,
,,,,,,$6035481555,2020-07-16_16h13.04.548,fisher_task,2020.1.3,Win32,60,-0.137499989,-0.283796308,1,0,0,4.34967,scale,,,,,,0.3702,0.3,0.1234,0.1,stimuli/lakes/904058_left.png,stimuli/lakes/904058_right.png,,,,0,105,105,58,1,,,,,
,,,,,,$6035481555,2020-07-16_16h13.04.548,fisher_task,2020.1.3,Win32,60,0.157407423,-0.302777846,1,0,0,5.84947,scale,,,,,,0.2468,0.2,0.302267034,0.244948974,stimuli/lakes/403026_left.png,stimuli/lakes/403026_right.png,,,,0,106,106,26,1,,,,,
,,,,,,$6035481555,2020-07-16_16h13.04.548,fisher_task,2020.1.3,Win32,60,-0.168055545,-0.337500069,1,0,0,3.04978,scale,,,,,,0.349027907,0.282842712,0.174513954,0.141421356,stimuli/lakes/8070105_left.png,stimuli/lakes/8070105_right.png,,,,0,107,107,105,1,,,,,
,,,,,,$6035481555,2020-07-16_16h13.04.548,fisher_task,2020.1.3,Win32,60,-0.116666655,-0.283333345,1,0,0,4.499665,scale,,,,,,0.326485712,0.264575131,0.21373507,0.173205081,stimuli/lakes/705067_left.png,stimuli/lakes/705067_right.png,,,,0,108,108,67,1,,,,,
,,,,,,$6035481555,2020-07-16_16h13.04.548,fisher_task,2020.1.3,Win32,60,-0.168981471,-0.345833346,1,0,0,1.86642,scale,,,,,,0.326485712,0.264575131,0.21373507,0.173205081,stimuli/lakes/7080117_left.png,stimuli/lakes/7080117_right.png,,,,0,109,109,117,1,,,,,
,,,,,,$6035481555,2020-07-16_16h13.04.548,fisher_task,2020.1.3,Win32,60,-0.126388878,-0.283333345,1,0,0,6.99962,scale,,,,,,0.349027907,0.282842712,0.174513954,0.141421356,stimuli/lakes/804057_left.png,stimuli/lakes/804057_right.png,,,space,0,110,110,57,1,29.53621,,,,
,,,,,,$6035481555,2020-07-16_16h13.04.548,fisher_task,2020.1.3,Win32,60,0.112037052,-0.27314816,1,0,0,2.63182,scale,,,,,,0.275930788,0.223606798,0.275930788,0.223606798,stimuli/lakes/502016_left.png,stimuli/lakes/502016_right.png,,,,0,111,111,16,1,,,,,
,,,,,,$6035481555,2020-07-16_16h13.04.548,fisher_task,2020.1.3,Win32,60,0.118518534,-0.267592604,1,0,0,4.41641,scale,,,,,,0.174513954,0.141421356,0.349027907,0.282842712,stimuli/lakes/206081_left.png,stimuli/lakes/206081_right.png,,,,0,112,112,81,1,,,,,
,,,,,,$6035481555,2020-07-16_16h13.04.548,fisher_task,2020.1.3,Win32,60,0.148148164,-0.295833402,1,0,0,3.782935,scale,,,,,,0.21373507,0.173205081,0.326485712,0.264575131,stimuli/lakes/304052_left.png,stimuli/lakes/304052_right.png,,,,0,113,113,52,1,,,,,
,,,,,,$6035481555,2020-07-16_16h13.04.548,fisher_task,2020.1.3,Win32,60,0.165740756,-0.318518531,1,0,0,2.499885,scale,,,,,,0.1234,0.1,0.3702,0.3,stimuli/lakes/103032_left.png,stimuli/lakes/103032_right.png,,,,0,114,114,32,1,,,,,
,,,,,,$6035481555,2020-07-16_16h13.04.548,fisher_task,2020.1.3,Win32,60,-0.171759192,-0.346296309,1,0,0,2.83314,scale,,,,,,0.3702,0.3,0.1234,0.1,stimuli/lakes/907097_left.png,stimuli/lakes/907097_right.png,,,,0,115,115,97,1,,,,,
,,,,,,$6035481555,2020-07-16_16h13.04.548,fisher_task,2020.1.3,Win32,60,-0.124074063,-0.277777789,1,0,0,4.53314,scale,,,,,,0.349027907,0.282842712,0.174513954,0.141421356,stimuli/lakes/803030_left.png,stimuli/lakes/803030_right.png,,,,0,116,116,30,1,,,,,
,,,,,,$6035481555,2020-07-16_16h13.04.548,fisher_task,2020.1.3,Win32,60,-0.122685174,-0.279166678,1,0,0,3.299665,scale,,,,,,0.326485712,0.264575131,0.21373507,0.173205081,stimuli/lakes/703029_left.png,stimuli/lakes/703029_right.png,,,,0,117,117,29,1,,,,,
,,,,,,$6035481555,2020-07-16_16h13.04.548,fisher_task,2020.1.3,Win32,60,0.156018534,-0.306944456,1,0,0,3.34954,scale,,,,,,0.1234,0.1,0.3702,0.3,stimuli/lakes/105059_left.png,stimuli/lakes/105059_right.png,,,,0,118,118,59,1,,,,,
,,,,,,$6035481555,2020-07-16_16h13.04.548,fisher_task,2020.1.3,Win32,60,-0.145833322,-0.296296308,1,0,0,5.33291,scale,,,,,,0.302267034,0.244948974,0.2468,0.2,stimuli/lakes/607094_left.png,stimuli/lakes/607094_right.png,,,,0,119,119,94,1,,,,,
,,,,,,$6035481555,2020-07-16_16h13.04.548,fisher_task,2020.1.3,Win32,60,-0.160185118,-0.322685197,1,0,0,6.79964,scale,,,,,,0.3702,0.3,0.1234,0.1,stimuli/lakes/905070_left.png,stimuli/lakes/905070_right.png,,,,0,120,120,70,1,,,,,
,,,,,,$6035481555,2020-07-16_16h13.04.548,fisher_task,2020.1.3,Win32,60,-0.04722221,-0.227314826,1,0,0,8.882805,scale,,,,,,0.326485712,0.264575131,0.21373507,0.173205081,stimuli/lakes/704047_left.png,stimuli/lakes/704047_right.png,,,,0,121,121,47,1,,,,,
,,,,,,$6035481555,2020-07-16_16h13.04.548,fisher_task,2020.1.3,Win32,60,-0.110185174,-0.2638889,1,0,0,5.48315,scale,,,,,,0.349027907,0.282842712,0.174513954,0.141421356,stimuli/lakes/805069_left.png,stimuli/lakes/805069_right.png,,,,0,122,122,69,1,,,,,
,,,,,,$6035481555,2020-07-16_16h13.04.548,fisher_task,2020.1.3,Win32,60,0.091666681,-0.248611122,1,0,0,5.24982,scale,,,,,,0.21373507,0.173205081,0.326485712,0.264575131,stimuli/lakes/306082_left.png,stimuli/lakes/306082_right.png,,,,0,123,123,82,1,,,,,
,,,,,,$6035481555,2020-07-16_16h13.04.548,fisher_task,2020.1.3,Win32,60,-0.156018508,-0.316203716,1,0,0,4.48286,scale,,,,,,0.2468,0.2,0.302267034,0.244948974,stimuli/lakes/4090123_left.png,stimuli/lakes/4090123_right.png,,,,0,124,124,123,1,,,,,
,,,,,,$6035481555,2020-07-16_16h13.04.548,fisher_task,2020.1.3,Win32,60,-0.058796284,-0.232407418,1,0,0,8.79959,scale,,,,,,0.2468,0.2,0.302267034,0.244948974,stimuli/lakes/4080112_left.png,stimuli/lakes/4080112_right.png,,,,0,125,125,112,1,,,,,
,,,,,,$6035481555,2020-07-16_16h13.04.548,fisher_task,2020.1.3,Win32,60,0.168055571,-0.32314816,1,0,0,3.94823,scale,,,,,,0.275930788,0.223606798,0.275930788,0.223606798,stimuli/lakes/50104_left.png,stimuli/lakes/50104_right.png,,,,0,126,126,4,1,,,,,
,,,,,,$6035481555,2020-07-16_16h13.04.548,fisher_task,2020.1.3,Win32,60,0.01666668,-0.225925937,1,0,0,7.79925,scale,,,,,,0.2468,0.2,0.302267034,0.244948974,stimuli/lakes/406083_left.png,stimuli/lakes/406083_right.png,,,,0,127,127,83,1,,,,,
,,,,,,$6035481555,2020-07-16_16h13.04.548,fisher_task,2020.1.3,Win32,60,-0.010648135,-0.216666677,1,0,0,9.06615,scale,,,,,,0.1234,0.1,0.3702,0.3,stimuli/lakes/1090119_left.png,stimuli/lakes/1090119_right.png,,,,0,128,128,119,1,,,,,
,,,,,,$6035481555,2020-07-16_16h13.04.548,fisher_task,2020.1.3,Win32,60,-0.162962952,-0.314814827,1,0,0,5.216315,scale,,,,,,0.3702,0.3,0.1234,0.1,stimuli/lakes/904049_left.png,stimuli/lakes/904049_right.png,,,,0,129,129,49,1,,,,,
,,,,,,$6035481555,2020-07-16_16h13.04.548,fisher_task,2020.1.3,Win32,60,,,,,,,,,,,,,,,,,,,,,,,,,,,,space,32.254065,space,9.362295
