keySpace.keys,instructions.thisRepN,instructions.thisTrialN,instructions.thisN,instructions.thisIndex,instructions.ran,participant,date,expName,psychopyVersion,OS,frameRate,mouse.x,mouse.y,mouse.leftButton,mouse.midButton,mouse.rightButton,mouse.time,mouse.clicked_name,training.thisRepN,training.thisTrialN,training.thisN,training.thisIndex,training.ran,widthBasketLeft,heightBasketLeft,widthBasketRight,heightBasketRight,leftLake,rightLake,space2.keys,space2.rt,space1.keys,trials.thisRepN,trials.thisTrialN,trials.thisN,trials.thisIndex,trials.ran,space1.rt,finalSpace1.keys,finalSpace1.rt,finalSpace2.keys,finalSpace2.rt
,0,0,0,0,1,$1416672916,2020-07-16_17h20.52.983,fisher_task,2020.1.3,Win32,60,,,,,,,,,,,,,,,,,,,,,,,,,,,,,,,
,,,,,,$1416672916,2020-07-16_17h20.52.983,fisher_task,2020.1.3,Win32,60,0.145370386,-0.308333345,1,0,0,5.01455,scale,0,0,0,0,1,0.275930788,0.223606798,0.275930788,0.223606798,stimuli/training/20_left.png,stimuli/training/20_right.png,,,,,,,,,,,,,
,,,,,,$1416672916,2020-07-16_17h20.52.983,fisher_task,2020.1.3,Win32,60,-0.139814804,-0.330555624,1,0,0,5.797825,scale,0,1,1,1,1,0.275930788,0.223606798,0.275930788,0.223606798,stimuli/training/80_left.png,stimuli/training/80_right.png,,,,,,,,,,,,,
,,,,,,$1416672916,2020-07-16_17h20.52.983,fisher_task,2020.1.3,Win32,60,0.163888905,-0.325925995,1,0,0,5.54783,scale,0,2,2,2,1,0.174513954,0.141421356,0.349027907,0.282842712,stimuli/training/50_left.png,stimuli/training/50_right.png,,,,,,,,,,,,,
,,,,,,$1416672916,2020-07-16_17h20.52.983,fisher_task,2020.1.3,Win32,60,-0.162037026,-0.339814884,1,0,0,2.564495,scale,0,3,3,3,1,0.349027907,0.282842712,0.174513954,0.141421356,stimuli/training/50_left.png,stimuli/training/50_right.png,,,,,,,,,,,,,
,,,,,,$1416672916,2020-07-16_17h20.52.983,fisher_task,2020.1.3,Win32,60,0.02037044,-0.270370438,1,0,0,16.97698,scale,0,4,4,4,1,0.275930788,0.223606798,0.275930788,0.223606798,stimuli/training/50_left.png,stimuli/training/50_right.png,,,,,,,,,,,,,
,,,,,,$1416672916,2020-07-16_17h20.52.983,fisher_task,2020.1.3,Win32,60,0.191666683,-0.389814828,1,0,0,8.397295,scale,0,5,5,5,1,0.174513954,0.141421356,0.349027907,0.282842712,stimuli/training/20_left.png,stimuli/training/20_right.png,,,,,,,,,,,,,
,,,,,,$1416672916,2020-07-16_17h20.52.983,fisher_task,2020.1.3,Win32,60,-0.189814804,-0.384259272,1,0,0,4.898295,scale,0,6,6,6,1,0.349027907,0.282842712,0.174513954,0.141421356,stimuli/training/80_left.png,stimuli/training/80_right.png,,,,,,,,,,,,,
,,,,,,$1416672916,2020-07-16_17h20.52.983,fisher_task,2020.1.3,Win32,60,0.187037053,-0.383333346,1,0,0,3.515475,scale,0,7,7,7,1,0.1234,0.1,0.3702,0.3,stimuli/training/30_left.png,stimuli/training/30_right.png,,,,,,,,,,,,,
,,,,,,$1416672916,2020-07-16_17h20.52.983,fisher_task,2020.1.3,Win32,60,-0.189814804,-0.392592606,1,0,0,2.832395,scale,0,8,8,8,1,0.3702,0.3,0.1234,0.1,stimuli/training/70_left.png,stimuli/training/70_right.png,,,,,,,,,,,,,
,,,,,,$1416672916,2020-07-16_17h20.52.983,fisher_task,2020.1.3,Win32,60,-0.193518508,-0.386111181,1,0,0,8.06413,scale,0,9,9,9,1,0.326485712,0.264575131,0.21373507,0.173205081,stimuli/training/90_left.png,stimuli/training/90_right.png,,,,,,,,,,,,,
,,,,,,$1416672916,2020-07-16_17h20.52.983,fisher_task,2020.1.3,Win32,60,0.193518535,-0.411111125,1,0,0,4.198025,scale,0,10,10,10,1,0.21373507,0.173205081,0.326485712,0.264575131,stimuli/training/10_left.png,stimuli/training/10_right.png,,,,,,,,,,,,,
,,,,,,$1416672916,2020-07-16_17h20.52.983,fisher_task,2020.1.3,Win32,60,0.032407421,-0.216666677,1,0,0,10.513115,scale,,,,,,0.1234,0.1,0.3702,0.3,stimuli/lakes/107098_left.png,stimuli/lakes/107098_right.png,space,6.79627,,0,0,0,98,1,,,,,
,,,,,,$1416672916,2020-07-16_17h20.52.983,fisher_task,2020.1.3,Win32,60,0.137037052,-0.275925937,1,0,0,2.4324,scale,,,,,,0.174513954,0.141421356,0.349027907,0.282842712,stimuli/lakes/206081_left.png,stimuli/lakes/206081_right.png,,,,0,1,1,81,1,,,,,
,,,,,,$1416672916,2020-07-16_17h20.52.983,fisher_task,2020.1.3,Win32,60,0.117592608,-0.253703715,1,0,0,5.18054,scale,,,,,,0.275930788,0.223606798,0.275930788,0.223606798,stimuli/lakes/503027_left.png,stimuli/lakes/503027_right.png,,,,0,2,2,27,1,,,,,
,,,,,,$1416672916,2020-07-16_17h20.52.983,fisher_task,2020.1.3,Win32,60,-0.049999987,-0.229629641,1,0,0,6.99735,scale,,,,,,0.1234,0.1,0.3702,0.3,stimuli/lakes/1090119_left.png,stimuli/lakes/1090119_right.png,,,,0,3,3,119,1,,,,,
,,,,,,$1416672916,2020-07-16_17h20.52.983,fisher_task,2020.1.3,Win32,60,-0.049999987,-0.229629641,1,0,0,2.348835,scale,,,,,,0.174513954,0.141421356,0.349027907,0.282842712,stimuli/lakes/207090_left.png,stimuli/lakes/207090_right.png,,,,0,4,4,90,1,,,,,
,,,,,,$1416672916,2020-07-16_17h20.52.983,fisher_task,2020.1.3,Win32,60,0.150000015,-0.286111123,1,0,0,4.199705,scale,,,,,,0.275930788,0.223606798,0.275930788,0.223606798,stimuli/lakes/503036_left.png,stimuli/lakes/503036_right.png,,,,0,5,5,36,1,,,,,
,,,,,,$1416672916,2020-07-16_17h20.52.983,fisher_task,2020.1.3,Win32,60,-0.13148147,-0.264814826,1,0,0,6.04753,scale,,,,,,0.3702,0.3,0.1234,0.1,stimuli/lakes/906088_left.png,stimuli/lakes/906088_right.png,,,,0,6,6,88,1,,,,,
,,,,,,$1416672916,2020-07-16_17h20.52.983,fisher_task,2020.1.3,Win32,60,0.170370386,-0.320370383,1,0,0,3.465715,scale,,,,,,0.174513954,0.141421356,0.349027907,0.282842712,stimuli/lakes/203024_left.png,stimuli/lakes/203024_right.png,,,,0,7,7,24,1,,,,,
,,,,,,$1416672916,2020-07-16_17h20.52.983,fisher_task,2020.1.3,Win32,60,0.125000015,-0.264814826,1,0,0,6.18089,scale,,,,,,0.2468,0.2,0.302267034,0.244948974,stimuli/lakes/403035_left.png,stimuli/lakes/403035_right.png,,,,0,8,8,35,1,,,,,
,,,,,,$1416672916,2020-07-16_17h20.52.983,fisher_task,2020.1.3,Win32,60,0.106481496,-0.239814826,1,0,0,19.791965,scale,,,,,,0.21373507,0.173205081,0.326485712,0.264575131,stimuli/lakes/303025_left.png,stimuli/lakes/303025_right.png,,,,0,9,9,25,1,,,,,
,,,,,,$1416672916,2020-07-16_17h20.52.983,fisher_task,2020.1.3,Win32,60,0.184259275,-0.342592605,1,0,0,6.830485,scale,,,,,,0.275930788,0.223606798,0.275930788,0.223606798,stimuli/lakes/50104_left.png,stimuli/lakes/50104_right.png,,,,0,10,10,4,1,,,,,
,,,,,,$1416672916,2020-07-16_17h20.52.983,fisher_task,2020.1.3,Win32,60,0.010185199,-0.212962974,1,0,0,5.796825,scale,,,,,,0.1234,0.1,0.3702,0.3,stimuli/lakes/1080107_left.png,stimuli/lakes/1080107_right.png,,,,0,11,11,107,1,,,,,
,,,,,,$1416672916,2020-07-16_17h20.52.983,fisher_task,2020.1.3,Win32,60,0.050000014,-0.212037048,1,0,0,5.49873,scale,,,,,,0.21373507,0.173205081,0.326485712,0.264575131,stimuli/lakes/304052_left.png,stimuli/lakes/304052_right.png,,,,0,12,12,52,1,,,,,
,,,,,,$1416672916,2020-07-16_17h20.52.983,fisher_task,2020.1.3,Win32,60,0.058333347,-0.218518529,1,0,0,4.098435,scale,,,,,,0.21373507,0.173205081,0.326485712,0.264575131,stimuli/lakes/305061_left.png,stimuli/lakes/305061_right.png,,,,0,13,13,61,1,,,,,
,,,,,,$1416672916,2020-07-16_17h20.52.983,fisher_task,2020.1.3,Win32,60,0.095370385,-0.240740752,1,0,0,3.28209,scale,,,,,,0.302267034,0.244948974,0.2468,0.2,stimuli/lakes/60106_left.png,stimuli/lakes/60106_right.png,,,,0,14,14,6,1,,,,,
,,,,,,$1416672916,2020-07-16_17h20.52.983,fisher_task,2020.1.3,Win32,60,0.036111125,-0.219444512,1,0,0,7.846725,scale,,,,,,0.349027907,0.282842712,0.174513954,0.141421356,stimuli/lakes/80109_left.png,stimuli/lakes/80109_right.png,,,,0,15,15,9,1,,,,,
,,,,,,$1416672916,2020-07-16_17h20.52.983,fisher_task,2020.1.3,Win32,60,-0.154629619,-0.295370382,1,0,0,4.265295,scale,,,,,,0.3702,0.3,0.1234,0.1,stimuli/lakes/906079_left.png,stimuli/lakes/906079_right.png,,,,0,16,16,79,1,,,,,
,,,,,,$1416672916,2020-07-16_17h20.52.983,fisher_task,2020.1.3,Win32,60,0.077777792,-0.233333401,1,0,0,7.447275,scale,,,,,,0.326485712,0.264575131,0.21373507,0.173205081,stimuli/lakes/70108_left.png,stimuli/lakes/70108_right.png,,,,0,17,17,8,1,,,,,
,,,,,,$1416672916,2020-07-16_17h20.52.983,fisher_task,2020.1.3,Win32,60,0.060185199,-0.226851863,1,0,0,5.61347,scale,,,,,,0.275930788,0.223606798,0.275930788,0.223606798,stimuli/lakes/504054_left.png,stimuli/lakes/504054_right.png,,,,0,18,18,54,1,,,,,
,,,,,,$1416672916,2020-07-16_17h20.52.983,fisher_task,2020.1.3,Win32,60,0.137037052,-0.275925937,1,0,0,4.448105,scale,,,,,,0.174513954,0.141421356,0.349027907,0.282842712,stimuli/lakes/203033_left.png,stimuli/lakes/203033_right.png,,,,0,19,19,33,1,,,,,
,,,,,,$1416672916,2020-07-16_17h20.52.983,fisher_task,2020.1.3,Win32,60,-0.188888878,-0.358333403,1,0,0,6.44818,scale,,,,,,0.3702,0.3,0.1234,0.1,stimuli/lakes/9070106_left.png,stimuli/lakes/9070106_right.png,,,,0,20,20,106,1,,,,,
,,,,,,$1416672916,2020-07-16_17h20.52.983,fisher_task,2020.1.3,Win32,60,-0.175925915,-0.322222234,1,0,0,5.297825,scale,,,,,,0.21373507,0.173205081,0.326485712,0.264575131,stimuli/lakes/3090122_left.png,stimuli/lakes/3090122_right.png,,,,0,21,21,122,1,,,,,
,,,,,,$1416672916,2020-07-16_17h20.52.983,fisher_task,2020.1.3,Win32,60,0.059259273,-0.225925937,1,0,0,4.197245,scale,,,,,,0.302267034,0.244948974,0.2468,0.2,stimuli/lakes/603028_left.png,stimuli/lakes/603028_right.png,,,space,0,22,22,28,1,52.111995,,,,
,,,,,,$1416672916,2020-07-16_17h20.52.983,fisher_task,2020.1.3,Win32,60,-0.149999989,-0.289814827,1,0,0,5.664545,scale,,,,,,0.2468,0.2,0.302267034,0.244948974,stimuli/lakes/4090123_left.png,stimuli/lakes/4090123_right.png,,,,0,23,23,123,1,,,,,
,,,,,,$1416672916,2020-07-16_17h20.52.983,fisher_task,2020.1.3,Win32,60,-0.107407396,-0.246296307,1,0,0,5.113695,scale,,,,,,0.326485712,0.264575131,0.21373507,0.173205081,stimuli/lakes/705067_left.png,stimuli/lakes/705067_right.png,,,,0,24,24,67,1,,,,,
,,,,,,$1416672916,2020-07-16_17h20.52.983,fisher_task,2020.1.3,Win32,60,0.1101852,-0.249074085,1,0,0,3.18225,scale,,,,,,0.1234,0.1,0.3702,0.3,stimuli/lakes/107089_left.png,stimuli/lakes/107089_right.png,,,,0,25,25,89,1,,,,,
,,,,,,$1416672916,2020-07-16_17h20.52.983,fisher_task,2020.1.3,Win32,60,0.163888905,-0.306481493,1,0,0,3.0823,scale,,,,,,0.1234,0.1,0.3702,0.3,stimuli/lakes/106080_left.png,stimuli/lakes/106080_right.png,,,,0,26,26,80,1,,,,,
,,,,,,$1416672916,2020-07-16_17h20.52.983,fisher_task,2020.1.3,Win32,60,-0.186111101,-0.35277779,1,0,0,4.632065,scale,,,,,,0.326485712,0.264575131,0.21373507,0.173205081,stimuli/lakes/7090128_left.png,stimuli/lakes/7090128_right.png,,,,0,27,27,128,1,,,,,
,,,,,,$1416672916,2020-07-16_17h20.52.983,fisher_task,2020.1.3,Win32,60,-0.150925858,-0.283333345,1,0,0,4.265515,scale,,,,,,0.326485712,0.264575131,0.21373507,0.173205081,stimuli/lakes/706077_left.png,stimuli/lakes/706077_right.png,,,,0,28,28,77,1,,,,,
,,,,,,$1416672916,2020-07-16_17h20.52.983,fisher_task,2020.1.3,Win32,60,-0.039814746,-0.218518529,1,0,0,13.4454,scale,,,,,,0.302267034,0.244948974,0.2468,0.2,stimuli/lakes/605065_left.png,stimuli/lakes/605065_right.png,,,,0,29,29,65,1,,,,,
,,,,,,$1416672916,2020-07-16_17h20.52.983,fisher_task,2020.1.3,Win32,60,-0.179629619,-0.341666679,1,0,0,3.915155,scale,,,,,,0.302267034,0.244948974,0.2468,0.2,stimuli/lakes/6090126_left.png,stimuli/lakes/6090126_right.png,,,,0,30,30,126,1,,,,,
,,,,,,$1416672916,2020-07-16_17h20.52.983,fisher_task,2020.1.3,Win32,60,0.02592594,-0.219444512,1,0,0,7.147045,scale,,,,,,0.326485712,0.264575131,0.21373507,0.173205081,stimuli/lakes/702019_left.png,stimuli/lakes/702019_right.png,,,,0,31,31,19,1,,,,,
,,,,,,$1416672916,2020-07-16_17h20.52.983,fisher_task,2020.1.3,Win32,60,-0.009259246,-0.212037048,1,0,0,1.815695,scale,,,,,,0.3702,0.3,0.1234,0.1,stimuli/lakes/902022_left.png,stimuli/lakes/902022_right.png,,,,0,32,32,22,1,,,,,
,,,,,,$1416672916,2020-07-16_17h20.52.983,fisher_task,2020.1.3,Win32,60,-0.062037025,-0.221296307,1,0,0,5.347145,scale,,,,,,0.302267034,0.244948974,0.2468,0.2,stimuli/lakes/605066_left.png,stimuli/lakes/605066_right.png,,,,0,33,33,66,1,,,,,
,,,,,,$1416672916,2020-07-16_17h20.52.983,fisher_task,2020.1.3,Win32,60,0.070370385,-0.225925937,1,0,0,2.59853,scale,,,,,,0.302267034,0.244948974,0.2468,0.2,stimuli/lakes/604046_left.png,stimuli/lakes/604046_right.png,,,,0,34,34,46,1,,,,,
,,,,,,$1416672916,2020-07-16_17h20.52.983,fisher_task,2020.1.3,Win32,60,-0.186111101,-0.348148161,1,0,0,3.131835,scale,,,,,,0.275930788,0.223606798,0.275930788,0.223606798,stimuli/lakes/5090125_left.png,stimuli/lakes/5090125_right.png,,,,0,35,35,125,1,,,,,
,,,,,,$1416672916,2020-07-16_17h20.52.983,fisher_task,2020.1.3,Win32,60,0.182407423,-0.347222235,1,0,0,3.780865,scale,,,,,,0.21373507,0.173205081,0.326485712,0.264575131,stimuli/lakes/30101_left.png,stimuli/lakes/30101_right.png,,,,0,36,36,1,1,,,,,
,,,,,,$1416672916,2020-07-16_17h20.52.983,fisher_task,2020.1.3,Win32,60,-0.174074007,-0.318518531,1,0,0,3.248405,scale,,,,,,0.349027907,0.282842712,0.174513954,0.141421356,stimuli/lakes/806087_left.png,stimuli/lakes/806087_right.png,,,,0,37,37,87,1,,,,,
,,,,,,$1416672916,2020-07-16_17h20.52.983,fisher_task,2020.1.3,Win32,60,0.05092594,-0.217592603,1,0,0,4.215165,scale,,,,,,0.2468,0.2,0.302267034,0.244948974,stimuli/lakes/405064_left.png,stimuli/lakes/405064_right.png,,,,0,38,38,64,1,,,,,
,,,,,,$1416672916,2020-07-16_17h20.52.983,fisher_task,2020.1.3,Win32,60,0.147222238,-0.285185197,1,0,0,5.89767,scale,,,,,,0.2468,0.2,0.302267034,0.244948974,stimuli/lakes/404053_left.png,stimuli/lakes/404053_right.png,,,,0,39,39,53,1,,,,,
,,,,,,$1416672916,2020-07-16_17h20.52.983,fisher_task,2020.1.3,Win32,60,0.006481551,-0.224074141,1,0,0,5.431085,scale,,,,,,0.349027907,0.282842712,0.174513954,0.141421356,stimuli/lakes/804048_left.png,stimuli/lakes/804048_right.png,,,,0,40,40,48,1,,,,,
,,,,,,$1416672916,2020-07-16_17h20.52.983,fisher_task,2020.1.3,Win32,60,-0.182407397,-0.339814884,1,0,0,3.915575,scale,,,,,,0.349027907,0.282842712,0.174513954,0.141421356,stimuli/lakes/8070105_left.png,stimuli/lakes/8070105_right.png,,,,0,41,41,105,1,,,,,
,,,,,,$1416672916,2020-07-16_17h20.52.983,fisher_task,2020.1.3,Win32,60,0.121296311,-0.256481549,1,0,0,3.88183,scale,,,,,,0.174513954,0.141421356,0.349027907,0.282842712,stimuli/lakes/205060_left.png,stimuli/lakes/205060_right.png,,,,0,42,42,60,1,,,,,
,,,,,,$1416672916,2020-07-16_17h20.52.983,fisher_task,2020.1.3,Win32,60,-0.036111098,-0.212962974,1,0,0,6.181825,scale,,,,,,0.174513954,0.141421356,0.349027907,0.282842712,stimuli/lakes/2080108_left.png,stimuli/lakes/2080108_right.png,,,,0,43,43,108,1,,,,,
,,,,,,$1416672916,2020-07-16_17h20.52.983,fisher_task,2020.1.3,Win32,60,0.162037053,-0.302777846,1,0,0,4.215515,scale,,,,,,0.2468,0.2,0.302267034,0.244948974,stimuli/lakes/40102_left.png,stimuli/lakes/40102_right.png,,,space,0,44,44,2,1,2.775815,,,,
,,,,,,$1416672916,2020-07-16_17h20.52.983,fisher_task,2020.1.3,Win32,60,-0.162037026,-0.298148217,1,0,0,2.24904,scale,,,,,,0.326485712,0.264575131,0.21373507,0.173205081,stimuli/lakes/7090129_left.png,stimuli/lakes/7090129_right.png,,,,0,45,45,129,1,,,,,
,,,,,,$1416672916,2020-07-16_17h20.52.983,fisher_task,2020.1.3,Win32,60,0.039814829,-0.220370381,1,0,0,5.99757,scale,,,,,,0.326485712,0.264575131,0.21373507,0.173205081,stimuli/lakes/70107_left.png,stimuli/lakes/70107_right.png,,,,0,46,46,7,1,,,,,
,,,,,,$1416672916,2020-07-16_17h20.52.983,fisher_task,2020.1.3,Win32,60,0.086111126,-0.23425927,1,0,0,4.981225,scale,,,,,,0.1234,0.1,0.3702,0.3,stimuli/lakes/104050_left.png,stimuli/lakes/104050_right.png,,,,0,47,47,50,1,,,,,
,,,,,,$1416672916,2020-07-16_17h20.52.983,fisher_task,2020.1.3,Win32,60,0.17407409,-0.324074086,1,0,0,3.06566,scale,,,,,,0.21373507,0.173205081,0.326485712,0.264575131,stimuli/lakes/302013_left.png,stimuli/lakes/302013_right.png,,,,0,48,48,13,1,,,,,
,,,,,,$1416672916,2020-07-16_17h20.52.983,fisher_task,2020.1.3,Win32,60,-0.129629618,-0.265740809,1,0,0,10.49633,scale,,,,,,0.275930788,0.223606798,0.275930788,0.223606798,stimuli/lakes/507093_left.png,stimuli/lakes/507093_right.png,,,,0,49,49,93,1,,,,,
,,,,,,$1416672916,2020-07-16_17h20.52.983,fisher_task,2020.1.3,Win32,60,0.171296312,-0.317592605,1,0,0,2.198795,scale,,,,,,0.21373507,0.173205081,0.326485712,0.264575131,stimuli/lakes/303034_left.png,stimuli/lakes/303034_right.png,,,,0,50,50,34,1,,,,,
,,,,,,$1416672916,2020-07-16_17h20.52.983,fisher_task,2020.1.3,Win32,60,-0.157407397,-0.293518587,1,0,0,5.48022,scale,,,,,,0.275930788,0.223606798,0.275930788,0.223606798,stimuli/lakes/5070102_left.png,stimuli/lakes/5070102_right.png,,,,0,51,51,102,1,,,,,
,,,,,,$1416672916,2020-07-16_17h20.52.983,fisher_task,2020.1.3,Win32,60,0.082407422,-0.23425927,1,0,0,4.798065,scale,,,,,,0.2468,0.2,0.302267034,0.244948974,stimuli/lakes/404044_left.png,stimuli/lakes/404044_right.png,,,,0,52,52,44,1,,,,,
,,,,,,$1416672916,2020-07-16_17h20.52.983,fisher_task,2020.1.3,Win32,60,0.103703718,-0.239814826,1,0,0,2.5323,scale,,,,,,0.174513954,0.141421356,0.349027907,0.282842712,stimuli/lakes/204042_left.png,stimuli/lakes/204042_right.png,,,,0,53,53,42,1,,,,,
,,,,,,$1416672916,2020-07-16_17h20.52.983,fisher_task,2020.1.3,Win32,60,-0.119444433,-0.249074085,1,0,0,4.09825,scale,,,,,,0.326485712,0.264575131,0.21373507,0.173205081,stimuli/lakes/706086_left.png,stimuli/lakes/706086_right.png,,,,0,54,54,86,1,,,,,
,,,,,,$1416672916,2020-07-16_17h20.52.983,fisher_task,2020.1.3,Win32,60,-0.078703692,-0.228703771,1,0,0,2.232375,scale,,,,,,0.302267034,0.244948974,0.2468,0.2,stimuli/lakes/604055_left.png,stimuli/lakes/604055_right.png,,,,0,55,55,55,1,,,,,
,,,,,,$1416672916,2020-07-16_17h20.52.983,fisher_task,2020.1.3,Win32,60,-0.04259258,-0.214814882,1,0,0,7.995985,scale,,,,,,0.3702,0.3,0.1234,0.1,stimuli/lakes/904049_left.png,stimuli/lakes/904049_right.png,,,,0,56,56,49,1,,,,,
,,,,,,$1416672916,2020-07-16_17h20.52.983,fisher_task,2020.1.3,Win32,60,-0.021296227,-0.215740751,1,0,0,8.16302,scale,,,,,,0.21373507,0.173205081,0.326485712,0.264575131,stimuli/lakes/3080110_left.png,stimuli/lakes/3080110_right.png,,,,0,57,57,110,1,,,,,
,,,,,,$1416672916,2020-07-16_17h20.52.983,fisher_task,2020.1.3,Win32,60,0.041666681,-0.219444512,1,0,0,5.080985,scale,,,,,,0.2468,0.2,0.302267034,0.244948974,stimuli/lakes/405063_left.png,stimuli/lakes/405063_right.png,,,,0,58,58,63,1,,,,,
,,,,,,$1416672916,2020-07-16_17h20.52.983,fisher_task,2020.1.3,Win32,60,-0.086111043,-0.230555566,1,0,0,5.815385,scale,,,,,,0.174513954,0.141421356,0.349027907,0.282842712,stimuli/lakes/2090120_left.png,stimuli/lakes/2090120_right.png,,,,0,59,59,120,1,,,,,
,,,,,,$1416672916,2020-07-16_17h20.52.983,fisher_task,2020.1.3,Win32,60,-0.084259247,-0.232407418,1,0,0,7.097485,scale,,,,,,0.275930788,0.223606798,0.275930788,0.223606798,stimuli/lakes/506075_left.png,stimuli/lakes/506075_right.png,,,,0,60,60,75,1,,,,,
,,,,,,$1416672916,2020-07-16_17h20.52.983,fisher_task,2020.1.3,Win32,60,-0.116666655,-0.252777789,1,0,0,4.514735,scale,,,,,,0.2468,0.2,0.302267034,0.244948974,stimuli/lakes/4070101_left.png,stimuli/lakes/4070101_right.png,,,,0,61,61,101,1,,,,,
,,,,,,$1416672916,2020-07-16_17h20.52.983,fisher_task,2020.1.3,Win32,60,-0.080555544,-0.228703771,1,0,0,8.830065,scale,,,,,,0.326485712,0.264575131,0.21373507,0.173205081,stimuli/lakes/704047_left.png,stimuli/lakes/704047_right.png,,,,0,62,62,47,1,,,,,
,,,,,,$1416672916,2020-07-16_17h20.52.983,fisher_task,2020.1.3,Win32,60,0.011111181,-0.2138889,1,0,0,2.64973,scale,,,,,,0.2468,0.2,0.302267034,0.244948974,stimuli/lakes/406074_left.png,stimuli/lakes/406074_right.png,,,,0,63,63,74,1,,,,,
,,,,,,$1416672916,2020-07-16_17h20.52.983,fisher_task,2020.1.3,Win32,60,-0.032407395,-0.216666677,1,0,0,6.39706,scale,,,,,,0.2468,0.2,0.302267034,0.244948974,stimuli/lakes/4080111_left.png,stimuli/lakes/4080111_right.png,,,,0,64,64,111,1,,,,,
,,,,,,$1416672916,2020-07-16_17h20.52.983,fisher_task,2020.1.3,Win32,60,-0.073148136,-0.226851863,1,0,0,23.475025,scale,,,,,,0.349027907,0.282842712,0.174513954,0.141421356,stimuli/lakes/804057_left.png,stimuli/lakes/804057_right.png,,,,0,65,65,57,1,,,,,
,,,,,,$1416672916,2020-07-16_17h20.52.983,fisher_task,2020.1.3,Win32,60,0.155555571,-0.295370382,1,0,0,2.898785,scale,,,,,,0.1234,0.1,0.3702,0.3,stimuli/lakes/103023_left.png,stimuli/lakes/103023_right.png,,,space,0,66,66,23,1,8.24964,,,,
,,,,,,$1416672916,2020-07-16_17h20.52.983,fisher_task,2020.1.3,Win32,60,-0.007407338,-0.212037048,1,0,0,4.4316,scale,,,,,,0.3702,0.3,0.1234,0.1,stimuli/lakes/903040_left.png,stimuli/lakes/903040_right.png,,,,0,67,67,40,1,,,,,
,,,,,,$1416672916,2020-07-16_17h20.52.983,fisher_task,2020.1.3,Win32,60,0.05092594,-0.220370381,1,0,0,2.84909,scale,,,,,,0.2468,0.2,0.302267034,0.244948974,stimuli/lakes/403026_left.png,stimuli/lakes/403026_right.png,,,,0,68,68,26,1,,,,,
,,,,,,$1416672916,2020-07-16_17h20.52.983,fisher_task,2020.1.3,Win32,60,0.03425933,-0.2138889,1,0,0,2.3981,scale,,,,,,0.275930788,0.223606798,0.275930788,0.223606798,stimuli/lakes/504045_left.png,stimuli/lakes/504045_right.png,,,,0,69,69,45,1,,,,,
,,,,,,$1416672916,2020-07-16_17h20.52.983,fisher_task,2020.1.3,Win32,60,0.069444459,-0.224074141,1,0,0,8.18048,scale,,,,,,0.326485712,0.264575131,0.21373507,0.173205081,stimuli/lakes/703029_left.png,stimuli/lakes/703029_right.png,,,,0,70,70,29,1,,,,,
,,,,,,$1416672916,2020-07-16_17h20.52.983,fisher_task,2020.1.3,Win32,60,0.0296297,-0.2138889,1,0,0,11.22946,scale,,,,,,0.21373507,0.173205081,0.326485712,0.264575131,stimuli/lakes/3080109_left.png,stimuli/lakes/3080109_right.png,,,,0,71,71,109,1,,,,,
,,,,,,$1416672916,2020-07-16_17h20.52.983,fisher_task,2020.1.3,Win32,60,0.064814829,-0.223148159,1,0,0,2.91524,scale,,,,,,0.2468,0.2,0.302267034,0.244948974,stimuli/lakes/402015_left.png,stimuli/lakes/402015_right.png,,,,0,72,72,15,1,,,,,
,,,,,,$1416672916,2020-07-16_17h20.52.983,fisher_task,2020.1.3,Win32,60,-0.028703691,-0.212037048,1,0,0,2.03261,scale,,,,,,0.302267034,0.244948974,0.2468,0.2,stimuli/lakes/606085_left.png,stimuli/lakes/606085_right.png,,,,0,73,73,85,1,,,,,
,,,,,,$1416672916,2020-07-16_17h20.52.983,fisher_task,2020.1.3,Win32,60,0.146296312,-0.292592604,1,0,0,1.99953,scale,,,,,,0.1234,0.1,0.3702,0.3,stimuli/lakes/104041_left.png,stimuli/lakes/104041_right.png,,,,0,74,74,41,1,,,,,
,,,,,,$1416672916,2020-07-16_17h20.52.983,fisher_task,2020.1.3,Win32,60,0.087037052,-0.232407418,1,0,0,6.74787,scale,,,,,,0.302267034,0.244948974,0.2468,0.2,stimuli/lakes/603037_left.png,stimuli/lakes/603037_right.png,,,,0,75,75,37,1,,,,,
,,,,,,$1416672916,2020-07-16_17h20.52.983,fisher_task,2020.1.3,Win32,60,0.062037051,-0.223148159,1,0,0,3.01552,scale,,,,,,0.349027907,0.282842712,0.174513954,0.141421356,stimuli/lakes/803039_left.png,stimuli/lakes/803039_right.png,,,,0,76,76,39,1,,,,,
,,,,,,$1416672916,2020-07-16_17h20.52.983,fisher_task,2020.1.3,Win32,60,0.001851922,-0.212037048,1,0,0,2.04926,scale,,,,,,0.3702,0.3,0.1234,0.1,stimuli/lakes/901010_left.png,stimuli/lakes/901010_right.png,,,,0,77,77,10,1,,,,,
,,,,,,$1416672916,2020-07-16_17h20.52.983,fisher_task,2020.1.3,Win32,60,-0.034259247,-0.210185252,1,0,0,2.94875,scale,,,,,,0.3702,0.3,0.1234,0.1,stimuli/lakes/903031_left.png,stimuli/lakes/903031_right.png,,,,0,78,78,31,1,,,,,
,,,,,,$1416672916,2020-07-16_17h20.52.983,fisher_task,2020.1.3,Win32,60,0.02129631,-0.212037048,1,0,0,2.86547,scale,,,,,,0.21373507,0.173205081,0.326485712,0.264575131,stimuli/lakes/3090121_left.png,stimuli/lakes/3090121_right.png,,,,0,79,79,121,1,,,,,
,,,,,,$1416672916,2020-07-16_17h20.52.983,fisher_task,2020.1.3,Win32,60,0.018518532,-0.212037048,1,0,0,5.19825,scale,,,,,,0.174513954,0.141421356,0.349027907,0.282842712,stimuli/lakes/207099_left.png,stimuli/lakes/207099_right.png,,,,0,80,80,99,1,,,,,
,,,,,,$1416672916,2020-07-16_17h20.52.983,fisher_task,2020.1.3,Win32,60,0.037962977,-0.217592603,1,0,0,4.598085,scale,,,,,,0.21373507,0.173205081,0.326485712,0.264575131,stimuli/lakes/306073_left.png,stimuli/lakes/306073_right.png,,,,0,81,81,73,1,,,,,
,,,,,,$1416672916,2020-07-16_17h20.52.983,fisher_task,2020.1.3,Win32,60,-0.137036969,-0.272222234,1,0,0,3.881605,scale,,,,,,0.349027907,0.282842712,0.174513954,0.141421356,stimuli/lakes/806078_left.png,stimuli/lakes/806078_right.png,,,,0,82,82,78,1,,,,,
,,,,,,$1416672916,2020-07-16_17h20.52.983,fisher_task,2020.1.3,Win32,60,-0.13240734,-0.266666678,1,0,0,3.94881,scale,,,,,,0.349027907,0.282842712,0.174513954,0.141421356,stimuli/lakes/807096_left.png,stimuli/lakes/807096_right.png,,,,0,83,83,96,1,,,,,
,,,,,,$1416672916,2020-07-16_17h20.52.983,fisher_task,2020.1.3,Win32,60,-0.116666655,-0.254629641,1,0,0,3.41516,scale,,,,,,0.326485712,0.264575131,0.21373507,0.173205081,stimuli/lakes/705068_left.png,stimuli/lakes/705068_right.png,,,,0,84,84,68,1,,,,,
,,,,,,$1416672916,2020-07-16_17h20.52.983,fisher_task,2020.1.3,Win32,60,-0.121296285,-0.257407419,1,0,0,5.413725,scale,,,,,,0.3702,0.3,0.1234,0.1,stimuli/lakes/905070_left.png,stimuli/lakes/905070_right.png,,,,0,85,85,70,1,,,,,
,,,,,,$1416672916,2020-07-16_17h20.52.983,fisher_task,2020.1.3,Win32,60,-0.152777767,-0.288888957,1,0,0,2.96599,scale,,,,,,0.326485712,0.264575131,0.21373507,0.173205081,stimuli/lakes/707095_left.png,stimuli/lakes/707095_right.png,,,,0,86,86,95,1,,,,,
,,,,,,$1416672916,2020-07-16_17h20.52.983,fisher_task,2020.1.3,Win32,60,-0.071296284,-0.223148159,1,0,0,3.282075,scale,,,,,,0.2468,0.2,0.302267034,0.244948974,stimuli/lakes/407092_left.png,stimuli/lakes/407092_right.png,,,,0,87,87,92,1,,,,,
,,,,,,$1416672916,2020-07-16_17h20.52.983,fisher_task,2020.1.3,Win32,60,-0.055555543,-0.217592603,1,0,0,7.764925,scale,,,,,,0.21373507,0.173205081,0.326485712,0.264575131,stimuli/lakes/3070100_left.png,stimuli/lakes/3070100_right.png,,,space,0,88,88,100,1,114.711665,,,,
,,,,,,$1416672916,2020-07-16_17h20.52.983,fisher_task,2020.1.3,Win32,60,-0.112037025,-0.25185192,1,0,0,2.382295,scale,,,,,,0.302267034,0.244948974,0.2468,0.2,stimuli/lakes/6080114_left.png,stimuli/lakes/6080114_right.png,,,,0,89,89,114,1,,,,,
,,,,,,$1416672916,2020-07-16_17h20.52.983,fisher_task,2020.1.3,Win32,60,0.157407423,-0.298148217,1,0,0,2.53172,scale,,,,,,0.1234,0.1,0.3702,0.3,stimuli/lakes/105059_left.png,stimuli/lakes/105059_right.png,,,,0,90,90,59,1,,,,,
,,,,,,$1416672916,2020-07-16_17h20.52.983,fisher_task,2020.1.3,Win32,60,-0.12777771,-0.260185197,1,0,0,2.248875,scale,,,,,,0.302267034,0.244948974,0.2468,0.2,stimuli/lakes/6070103_left.png,stimuli/lakes/6070103_right.png,,,,0,91,91,103,1,,,,,
,,,,,,$1416672916,2020-07-16_17h20.52.983,fisher_task,2020.1.3,Win32,60,-0.157407397,-0.294444456,1,0,0,2.78282,scale,,,,,,0.349027907,0.282842712,0.174513954,0.141421356,stimuli/lakes/8080118_left.png,stimuli/lakes/8080118_right.png,,,,0,92,92,118,1,,,,,
,,,,,,$1416672916,2020-07-16_17h20.52.983,fisher_task,2020.1.3,Win32,60,-0.125925915,-0.2638889,1,0,0,3.26501,scale,,,,,,0.2468,0.2,0.302267034,0.244948974,stimuli/lakes/4080112_left.png,stimuli/lakes/4080112_right.png,,,,0,93,93,112,1,,,,,
,,,,,,$1416672916,2020-07-16_17h20.52.983,fisher_task,2020.1.3,Win32,60,-0.181481471,-0.349074143,1,0,0,2.08255,scale,,,,,,0.3702,0.3,0.1234,0.1,stimuli/lakes/907097_left.png,stimuli/lakes/907097_right.png,,,,0,94,94,97,1,,,,,
,,,,,,$1416672916,2020-07-16_17h20.52.983,fisher_task,2020.1.3,Win32,60,-0.080555544,-0.228703771,1,0,0,4.132025,scale,,,,,,0.302267034,0.244948974,0.2468,0.2,stimuli/lakes/602017_left.png,stimuli/lakes/602017_right.png,,,,0,95,95,17,1,,,,,
,,,,,,$1416672916,2020-07-16_17h20.52.983,fisher_task,2020.1.3,Win32,60,-0.112037025,-0.249074085,1,0,0,3.99864,scale,,,,,,0.302267034,0.244948974,0.2468,0.2,stimuli/lakes/606076_left.png,stimuli/lakes/606076_right.png,,,,0,96,96,76,1,,,,,
,,,,,,$1416672916,2020-07-16_17h20.52.983,fisher_task,2020.1.3,Win32,60,0.186111127,-0.360185198,1,0,0,2.8494,scale,,,,,,0.302267034,0.244948974,0.2468,0.2,stimuli/lakes/60105_left.png,stimuli/lakes/60105_right.png,,,,0,97,97,5,1,,,,,
,,,,,,$1416672916,2020-07-16_17h20.52.983,fisher_task,2020.1.3,Win32,60,-0.116666655,-0.25185192,1,0,0,12.046535,scale,,,,,,0.302267034,0.244948974,0.2468,0.2,stimuli/lakes/607094_left.png,stimuli/lakes/607094_right.png,,,,0,98,98,94,1,,,,,
,,,,,,$1416672916,2020-07-16_17h20.52.983,fisher_task,2020.1.3,Win32,60,0.194444461,-0.36666668,1,0,0,3.01482,scale,,,,,,0.174513954,0.141421356,0.349027907,0.282842712,stimuli/lakes/202011_left.png,stimuli/lakes/202011_right.png,,,,0,99,99,11,1,,,,,
,,,,,,$1416672916,2020-07-16_17h20.52.983,fisher_task,2020.1.3,Win32,60,0.193518535,-0.388888902,1,0,0,8.196865,scale,,,,,,0.302267034,0.244948974,0.2468,0.2,stimuli/lakes/602018_left.png,stimuli/lakes/602018_right.png,,,,0,100,100,18,1,,,,,
,,,,,,$1416672916,2020-07-16_17h20.52.983,fisher_task,2020.1.3,Win32,60,-0.142592581,-0.274074086,1,0,0,2.999215,scale,,,,,,0.349027907,0.282842712,0.174513954,0.141421356,stimuli/lakes/805069_left.png,stimuli/lakes/805069_right.png,,,,0,101,101,69,1,,,,,
,,,,,,$1416672916,2020-07-16_17h20.52.983,fisher_task,2020.1.3,Win32,60,0.181481497,-0.335185254,1,0,0,3.431875,scale,,,,,,0.21373507,0.173205081,0.326485712,0.264575131,stimuli/lakes/304043_left.png,stimuli/lakes/304043_right.png,,,,0,102,102,43,1,,,,,
,,,,,,$1416672916,2020-07-16_17h20.52.983,fisher_task,2020.1.3,Win32,60,-0.17037036,-0.302777846,1,0,0,2.76564,scale,,,,,,0.326485712,0.264575131,0.21373507,0.173205081,stimuli/lakes/7070104_left.png,stimuli/lakes/7070104_right.png,,,,0,103,103,104,1,,,,,
,,,,,,$1416672916,2020-07-16_17h20.52.983,fisher_task,2020.1.3,Win32,60,-0.045370358,-0.220370381,1,0,0,3.13182,scale,,,,,,0.275930788,0.223606798,0.275930788,0.223606798,stimuli/lakes/506084_left.png,stimuli/lakes/506084_right.png,,,,0,104,104,84,1,,,,,
,,,,,,$1416672916,2020-07-16_17h20.52.983,fisher_task,2020.1.3,Win32,60,-0.12777771,-0.261111179,1,0,0,1.965925,scale,,,,,,0.302267034,0.244948974,0.2468,0.2,stimuli/lakes/6080115_left.png,stimuli/lakes/6080115_right.png,,,,0,105,105,115,1,,,,,
,,,,,,$1416672916,2020-07-16_17h20.52.983,fisher_task,2020.1.3,Win32,60,0.051851866,-0.221296307,1,0,0,3.382305,scale,,,,,,0.326485712,0.264575131,0.21373507,0.173205081,stimuli/lakes/702020_left.png,stimuli/lakes/702020_right.png,,,,0,106,106,20,1,,,,,
,,,,,,$1416672916,2020-07-16_17h20.52.983,fisher_task,2020.1.3,Win32,60,0.023148162,-0.212037048,1,0,0,5.998095,scale,,,,,,0.174513954,0.141421356,0.349027907,0.282842712,stimuli/lakes/206072_left.png,stimuli/lakes/206072_right.png,,,,0,107,107,72,1,,,,,
,,,,,,$1416672916,2020-07-16_17h20.52.983,fisher_task,2020.1.3,Win32,60,0.083333348,-0.229629641,1,0,0,2.3497,scale,,,,,,0.21373507,0.173205081,0.326485712,0.264575131,stimuli/lakes/305062_left.png,stimuli/lakes/305062_right.png,,,,0,108,108,62,1,,,,,
,,,,,,$1416672916,2020-07-16_17h20.52.983,fisher_task,2020.1.3,Win32,60,0.11481483,-0.255555567,1,0,0,6.014545,scale,,,,,,0.1234,0.1,0.3702,0.3,stimuli/lakes/103032_left.png,stimuli/lakes/103032_right.png,,,,0,109,109,32,1,,,,,
,,,,,,$1416672916,2020-07-16_17h20.52.983,fisher_task,2020.1.3,Win32,60,0.061111125,-0.222222233,1,0,0,4.448425,scale,,,,,,0.349027907,0.282842712,0.174513954,0.141421356,stimuli/lakes/802021_left.png,stimuli/lakes/802021_right.png,,,space,0,110,110,21,1,1.539405,,,,
,,,,,,$1416672916,2020-07-16_17h20.52.983,fisher_task,2020.1.3,Win32,60,-0.182407397,-0.338888901,1,0,0,5.381555,scale,,,,,,0.275930788,0.223606798,0.275930788,0.223606798,stimuli/lakes/5080113_left.png,stimuli/lakes/5080113_right.png,,,,0,111,111,113,1,,,,,
,,,,,,$1416672916,2020-07-16_17h20.52.983,fisher_task,2020.1.3,Win32,60,0.007407421,-0.191666733,1,0,0,7.89654,scale,,,,,,0.326485712,0.264575131,0.21373507,0.173205081,stimuli/lakes/704056_left.png,stimuli/lakes/704056_right.png,,,,0,112,112,56,1,,,,,
,,,,,,$1416672916,2020-07-16_17h20.52.983,fisher_task,2020.1.3,Win32,60,0.045370384,-0.217592603,1,0,0,5.16355,scale,,,,,,0.349027907,0.282842712,0.174513954,0.141421356,stimuli/lakes/803030_left.png,stimuli/lakes/803030_right.png,,,,0,113,113,30,1,,,,,
,,,,,,$1416672916,2020-07-16_17h20.52.983,fisher_task,2020.1.3,Win32,60,-0.163888878,-0.307407476,1,0,0,4.615655,scale,,,,,,0.302267034,0.244948974,0.2468,0.2,stimuli/lakes/6090127_left.png,stimuli/lakes/6090127_right.png,,,,0,114,114,127,1,,,,,
,,,,,,$1416672916,2020-07-16_17h20.52.983,fisher_task,2020.1.3,Win32,60,-0.177777767,-0.32314816,1,0,0,3.69822,scale,,,,,,0.326485712,0.264575131,0.21373507,0.173205081,stimuli/lakes/7080116_left.png,stimuli/lakes/7080116_right.png,,,,0,115,115,116,1,,,,,
,,,,,,$1416672916,2020-07-16_17h20.52.983,fisher_task,2020.1.3,Win32,60,-0.016666597,-0.212037048,1,0,0,2.849015,scale,,,,,,0.21373507,0.173205081,0.326485712,0.264575131,stimuli/lakes/307091_left.png,stimuli/lakes/307091_right.png,,,,0,116,116,91,1,,,,,
,,,,,,$1416672916,2020-07-16_17h20.52.983,fisher_task,2020.1.3,Win32,60,-0.022222209,-0.216666677,1,0,0,6.130785,scale,,,,,,0.2468,0.2,0.302267034,0.244948974,stimuli/lakes/406083_left.png,stimuli/lakes/406083_right.png,,,,0,117,117,83,1,,,,,
,,,,,,$1416672916,2020-07-16_17h20.52.983,fisher_task,2020.1.3,Win32,60,0.017592606,-0.217592603,1,0,0,3.18197,scale,,,,,,0.326485712,0.264575131,0.21373507,0.173205081,stimuli/lakes/703038_left.png,stimuli/lakes/703038_right.png,,,,0,118,118,38,1,,,,,
,,,,,,$1416672916,2020-07-16_17h20.52.983,fisher_task,2020.1.3,Win32,60,-0.00833332,-0.214814882,1,0,0,2.249495,scale,,,,,,0.21373507,0.173205081,0.326485712,0.264575131,stimuli/lakes/306082_left.png,stimuli/lakes/306082_right.png,,,,0,119,119,82,1,,,,,
,,,,,,$1416672916,2020-07-16_17h20.52.983,fisher_task,2020.1.3,Win32,60,0.087962978,-0.240740752,1,0,0,2.132355,scale,,,,,,0.174513954,0.141421356,0.349027907,0.282842712,stimuli/lakes/204051_left.png,stimuli/lakes/204051_right.png,,,,0,120,120,51,1,,,,,
,,,,,,$1416672916,2020-07-16_17h20.52.983,fisher_task,2020.1.3,Win32,60,-0.062962894,-0.223148159,1,0,0,2.31545,scale,,,,,,0.3702,0.3,0.1234,0.1,stimuli/lakes/904058_left.png,stimuli/lakes/904058_right.png,,,,0,121,121,58,1,,,,,
,,,,,,$1416672916,2020-07-16_17h20.52.983,fisher_task,2020.1.3,Win32,60,0.187962979,-0.385185198,1,0,0,2.71568,scale,,,,,,0.21373507,0.173205081,0.326485712,0.264575131,stimuli/lakes/30100_left.png,stimuli/lakes/30100_right.png,,,,0,122,122,0,1,,,,,
,,,,,,$1416672916,2020-07-16_17h20.52.983,fisher_task,2020.1.3,Win32,60,0.151851867,-0.288888957,1,0,0,3.54825,scale,,,,,,0.2468,0.2,0.302267034,0.244948974,stimuli/lakes/402014_left.png,stimuli/lakes/402014_right.png,,,,0,123,123,14,1,,,,,
,,,,,,$1416672916,2020-07-16_17h20.52.983,fisher_task,2020.1.3,Win32,60,-0.144444433,-0.27314816,1,0,0,2.69817,scale,,,,,,0.326485712,0.264575131,0.21373507,0.173205081,stimuli/lakes/7080117_left.png,stimuli/lakes/7080117_right.png,,,,0,124,124,117,1,,,,,
,,,,,,$1416672916,2020-07-16_17h20.52.983,fisher_task,2020.1.3,Win32,60,0.152777793,-0.289814827,1,0,0,2.33309,scale,,,,,,0.2468,0.2,0.302267034,0.244948974,stimuli/lakes/40103_left.png,stimuli/lakes/40103_right.png,,,,0,125,125,3,1,,,,,
,,,,,,$1416672916,2020-07-16_17h20.52.983,fisher_task,2020.1.3,Win32,60,0.176851868,-0.340740753,1,0,0,3.93183,scale,,,,,,0.21373507,0.173205081,0.326485712,0.264575131,stimuli/lakes/302012_left.png,stimuli/lakes/302012_right.png,,,,0,126,126,12,1,,,,,
,,,,,,$1416672916,2020-07-16_17h20.52.983,fisher_task,2020.1.3,Win32,60,0.189814831,-0.371296309,1,0,0,4.431415,scale,,,,,,0.275930788,0.223606798,0.275930788,0.223606798,stimuli/lakes/502016_left.png,stimuli/lakes/502016_right.png,,,,0,127,127,16,1,,,,,
,,,,,,$1416672916,2020-07-16_17h20.52.983,fisher_task,2020.1.3,Win32,60,0.100000015,-0.24351853,1,0,0,3.9984,scale,,,,,,0.1234,0.1,0.3702,0.3,stimuli/lakes/106071_left.png,stimuli/lakes/106071_right.png,,,,0,128,128,71,1,,,,,
,,,,,,$1416672916,2020-07-16_17h20.52.983,fisher_task,2020.1.3,Win32,60,-0.167592582,-0.300000012,1,0,0,3.91514,scale,,,,,,0.2468,0.2,0.302267034,0.244948974,stimuli/lakes/4090124_left.png,stimuli/lakes/4090124_right.png,,,,0,129,129,124,1,,,,,
,,,,,,$1416672916,2020-07-16_17h20.52.983,fisher_task,2020.1.3,Win32,60,,,,,,,,,,,,,,,,,,,,,,,,,,,,space,6.27408,space,24.76221
