keySpace.keys,instructions.thisRepN,instructions.thisTrialN,instructions.thisN,instructions.thisIndex,instructions.ran,participant,date,expName,psychopyVersion,OS,frameRate,mouse.x,mouse.y,mouse.leftButton,mouse.midButton,mouse.rightButton,mouse.time,mouse.clicked_name,training.thisRepN,training.thisTrialN,training.thisN,training.thisIndex,training.ran,widthBasketLeft,heightBasketLeft,widthBasketRight,heightBasketRight,leftLake,rightLake,space2.keys,space2.rt,space1.keys,trials.thisRepN,trials.thisTrialN,trials.thisN,trials.thisIndex,trials.ran,space1.rt,finalSpace1.keys,finalSpace1.rt,finalSpace2.keys,finalSpace2.rt
,0,0,0,0,1,$7561968921,2020-07-16_19h37.17.551,fisher_task,2020.1.3,Win32,60,,,,,,,,,,,,,,,,,,,,,,,,,,,,,,,
,,,,,,$7561968921,2020-07-16_19h37.17.551,fisher_task,2020.1.3,Win32,60,0.18359375,-0.434895833,1,0,0,2.00659,scale,0,0,0,0,1,0.275930788,0.223606798,0.275930788,0.223606798,stimuli/training/20_left.png,stimuli/training/20_right.png,,,,,,,,,,,,,
,,,,,,$7561968921,2020-07-16_19h37.17.551,fisher_task,2020.1.3,Win32,60,-0.151041667,-0.42578125,1,0,0,1.50553,scale,0,1,1,1,1,0.275930788,0.223606798,0.275930788,0.223606798,stimuli/training/80_left.png,stimuli/training/80_right.png,,,,,,,,,,,,,
,,,,,,$7561968921,2020-07-16_19h37.17.551,fisher_task,2020.1.3,Win32,60,0.118489583,-0.299479167,1,0,0,1.840975,scale,0,2,2,2,1,0.174513954,0.141421356,0.349027907,0.282842712,stimuli/training/50_left.png,stimuli/training/50_right.png,,,,,,,,,,,,,
,,,,,,$7561968921,2020-07-16_19h37.17.551,fisher_task,2020.1.3,Win32,60,0.115885417,-0.322916667,1,0,0,3.113605,scale,0,3,3,3,1,0.349027907,0.282842712,0.174513954,0.141421356,stimuli/training/50_left.png,stimuli/training/50_right.png,,,,,,,,,,,,,
,,,,,,$7561968921,2020-07-16_19h37.17.551,fisher_task,2020.1.3,Win32,60,0.143229167,-0.350260417,1,0,0,1.97641,scale,0,4,4,4,1,0.275930788,0.223606798,0.275930788,0.223606798,stimuli/training/50_left.png,stimuli/training/50_right.png,,,,,,,,,,,,,
,,,,,,$7561968921,2020-07-16_19h37.17.551,fisher_task,2020.1.3,Win32,60,0.170572917,-0.42578125,1,0,0,1.45277,scale,0,5,5,5,1,0.174513954,0.141421356,0.349027907,0.282842712,stimuli/training/20_left.png,stimuli/training/20_right.png,,,,,,,,,,,,,
,,,,,,$7561968921,2020-07-16_19h37.17.551,fisher_task,2020.1.3,Win32,60,-0.15625,-0.420572917,1,0,0,1.37106,scale,0,6,6,6,1,0.349027907,0.282842712,0.174513954,0.141421356,stimuli/training/80_left.png,stimuli/training/80_right.png,,,,,,,,,,,,,
,,,,,,$7561968921,2020-07-16_19h37.17.551,fisher_task,2020.1.3,Win32,60,0.178385417,-0.432291667,1,0,0,1.88994,scale,0,7,7,7,1,0.1234,0.1,0.3702,0.3,stimuli/training/30_left.png,stimuli/training/30_right.png,,,,,,,,,,,,,
,,,,,,$7561968921,2020-07-16_19h37.17.551,fisher_task,2020.1.3,Win32,60,-0.162760417,-0.423177083,1,0,0,1.705495,scale,0,8,8,8,1,0.3702,0.3,0.1234,0.1,stimuli/training/70_left.png,stimuli/training/70_right.png,,,,,,,,,,,,,
,,,,,,$7561968921,2020-07-16_19h37.17.551,fisher_task,2020.1.3,Win32,60,-0.16015625,-0.420572917,1,0,0,1.52836,scale,0,9,9,9,1,0.326485712,0.264575131,0.21373507,0.173205081,stimuli/training/90_left.png,stimuli/training/90_right.png,,,,,,,,,,,,,
,,,,,,$7561968921,2020-07-16_19h37.17.551,fisher_task,2020.1.3,Win32,60,0.157552083,-0.432291667,1,0,0,1.588605,scale,0,10,10,10,1,0.21373507,0.173205081,0.326485712,0.264575131,stimuli/training/10_left.png,stimuli/training/10_right.png,,,,,,,,,,,,,
,,,,,,$7561968921,2020-07-16_19h37.17.551,fisher_task,2020.1.3,Win32,60,0.1640625,-0.3984375,1,0,0,1.57252,scale,,,,,,0.1234,0.1,0.3702,0.3,stimuli/lakes/104041_left.png,stimuli/lakes/104041_right.png,space,9.358445,,0,0,0,41,1,,,,,
,,,,,,$7561968921,2020-07-16_19h37.17.551,fisher_task,2020.1.3,Win32,60,0.002604167,-0.244791667,1,0,0,2.324725,scale,,,,,,0.302267034,0.244948974,0.2468,0.2,stimuli/lakes/604046_left.png,stimuli/lakes/604046_right.png,,,,0,1,1,46,1,,,,,
,,,,,,$7561968921,2020-07-16_19h37.17.551,fisher_task,2020.1.3,Win32,60,-0.1171875,-0.295572917,1,0,0,3.044455,scale,,,,,,0.2468,0.2,0.302267034,0.244948974,stimuli/lakes/4080111_left.png,stimuli/lakes/4080111_right.png,,,,0,2,2,111,1,,,,,
,,,,,,$7561968921,2020-07-16_19h37.17.551,fisher_task,2020.1.3,Win32,60,-0.145833333,-0.419270833,1,0,0,2.34063,scale,,,,,,0.302267034,0.244948974,0.2468,0.2,stimuli/lakes/6090127_left.png,stimuli/lakes/6090127_right.png,,,,0,3,3,127,1,,,,,
,,,,,,$7561968921,2020-07-16_19h37.17.551,fisher_task,2020.1.3,Win32,60,-0.092447917,-0.266927083,1,0,0,2.74844,scale,,,,,,0.326485712,0.264575131,0.21373507,0.173205081,stimuli/lakes/704056_left.png,stimuli/lakes/704056_right.png,,,,0,4,4,56,1,,,,,
,,,,,,$7561968921,2020-07-16_19h37.17.551,fisher_task,2020.1.3,Win32,60,-0.153645833,-0.369791667,1,0,0,3.244225,scale,,,,,,0.275930788,0.223606798,0.275930788,0.223606798,stimuli/lakes/5070102_left.png,stimuli/lakes/5070102_right.png,,,,0,5,5,102,1,,,,,
,,,,,,$7561968921,2020-07-16_19h37.17.551,fisher_task,2020.1.3,Win32,60,0.1484375,-0.384114583,1,0,0,3.7297,scale,,,,,,0.2468,0.2,0.302267034,0.244948974,stimuli/lakes/402014_left.png,stimuli/lakes/402014_right.png,,,,0,6,6,14,1,,,,,
,,,,,,$7561968921,2020-07-16_19h37.17.551,fisher_task,2020.1.3,Win32,60,0.154947917,-0.407552083,1,0,0,6.176905,scale,,,,,,0.326485712,0.264575131,0.21373507,0.173205081,stimuli/lakes/70108_left.png,stimuli/lakes/70108_right.png,,,,0,7,7,8,1,,,,,
,,,,,,$7561968921,2020-07-16_19h37.17.551,fisher_task,2020.1.3,Win32,60,0.087239583,-0.3046875,1,0,0,3.393765,scale,,,,,,0.349027907,0.282842712,0.174513954,0.141421356,stimuli/lakes/804048_left.png,stimuli/lakes/804048_right.png,,,,0,8,8,48,1,,,,,
,,,,,,$7561968921,2020-07-16_19h37.17.551,fisher_task,2020.1.3,Win32,60,-0.135416667,-0.313802083,1,0,0,3.647775,scale,,,,,,0.174513954,0.141421356,0.349027907,0.282842712,stimuli/lakes/2090120_left.png,stimuli/lakes/2090120_right.png,,,,0,9,9,120,1,,,,,
,,,,,,$7561968921,2020-07-16_19h37.17.551,fisher_task,2020.1.3,Win32,60,-0.002604167,-0.235677083,1,0,0,2.74252,scale,,,,,,0.302267034,0.244948974,0.2468,0.2,stimuli/lakes/605065_left.png,stimuli/lakes/605065_right.png,,,,0,10,10,65,1,,,,,
,,,,,,$7561968921,2020-07-16_19h37.17.551,fisher_task,2020.1.3,Win32,60,0.131510417,-0.33203125,1,0,0,1.457925,scale,,,,,,0.21373507,0.173205081,0.326485712,0.264575131,stimuli/lakes/303025_left.png,stimuli/lakes/303025_right.png,,,,0,11,11,25,1,,,,,
,,,,,,$7561968921,2020-07-16_19h37.17.551,fisher_task,2020.1.3,Win32,60,-0.127604167,-0.328125,1,0,0,2.174985,scale,,,,,,0.302267034,0.244948974,0.2468,0.2,stimuli/lakes/606076_left.png,stimuli/lakes/606076_right.png,,,,0,12,12,76,1,,,,,
,,,,,,$7561968921,2020-07-16_19h37.17.551,fisher_task,2020.1.3,Win32,60,0.154947917,-0.397135417,1,0,0,1.67156,scale,,,,,,0.275930788,0.223606798,0.275930788,0.223606798,stimuli/lakes/503036_left.png,stimuli/lakes/503036_right.png,,,,0,13,13,36,1,,,,,
,,,,,,$7561968921,2020-07-16_19h37.17.551,fisher_task,2020.1.3,Win32,60,-0.149739583,-0.39453125,1,0,0,1.587525,scale,,,,,,0.275930788,0.223606798,0.275930788,0.223606798,stimuli/lakes/5080113_left.png,stimuli/lakes/5080113_right.png,,,,0,14,14,113,1,,,,,
,,,,,,$7561968921,2020-07-16_19h37.17.551,fisher_task,2020.1.3,Win32,60,-0.063802083,-0.268229167,1,0,0,2.743565,scale,,,,,,0.174513954,0.141421356,0.349027907,0.282842712,stimuli/lakes/2080108_left.png,stimuli/lakes/2080108_right.png,,,,0,15,15,108,1,,,,,
,,,,,,$7561968921,2020-07-16_19h37.17.551,fisher_task,2020.1.3,Win32,60,0.135416667,-0.338541667,1,0,0,1.672535,scale,,,,,,0.1234,0.1,0.3702,0.3,stimuli/lakes/104050_left.png,stimuli/lakes/104050_right.png,,,,0,16,16,50,1,,,,,
,,,,,,$7561968921,2020-07-16_19h37.17.551,fisher_task,2020.1.3,Win32,60,-0.153645833,-0.34765625,1,0,0,1.639305,scale,,,,,,0.349027907,0.282842712,0.174513954,0.141421356,stimuli/lakes/807096_left.png,stimuli/lakes/807096_right.png,,,,0,17,17,96,1,,,,,
,,,,,,$7561968921,2020-07-16_19h37.17.551,fisher_task,2020.1.3,Win32,60,-0.114583333,-0.313802083,1,0,0,4.199505,scale,,,,,,0.21373507,0.173205081,0.326485712,0.264575131,stimuli/lakes/3090122_left.png,stimuli/lakes/3090122_right.png,,,,0,18,18,122,1,,,,,
,,,,,,$7561968921,2020-07-16_19h37.17.551,fisher_task,2020.1.3,Win32,60,0.118489583,-0.32421875,1,0,0,1.72398,scale,,,,,,0.349027907,0.282842712,0.174513954,0.141421356,stimuli/lakes/80109_left.png,stimuli/lakes/80109_right.png,,,,0,19,19,9,1,,,,,
,,,,,,$7561968921,2020-07-16_19h37.17.551,fisher_task,2020.1.3,Win32,60,0.149739583,-0.389322917,1,0,0,1.704605,scale,,,,,,0.275930788,0.223606798,0.275930788,0.223606798,stimuli/lakes/503027_left.png,stimuli/lakes/503027_right.png,,,,0,20,20,27,1,,,,,
,,,,,,$7561968921,2020-07-16_19h37.17.551,fisher_task,2020.1.3,Win32,60,-0.013020833,-0.24609375,1,0,0,1.99192,scale,,,,,,0.3702,0.3,0.1234,0.1,stimuli/lakes/904058_left.png,stimuli/lakes/904058_right.png,,,,0,21,21,58,1,,,,,
,,,,,,$7561968921,2020-07-16_19h37.17.551,fisher_task,2020.1.3,Win32,60,-0.134114583,-0.334635417,1,0,0,2.541585,scale,,,,,,0.3702,0.3,0.1234,0.1,stimuli/lakes/906088_left.png,stimuli/lakes/906088_right.png,,,space,0,22,22,88,1,9.10473,,,,
,,,,,,$7561968921,2020-07-16_19h37.17.551,fisher_task,2020.1.3,Win32,60,-0.07421875,-0.2734375,1,0,0,2.20881,scale,,,,,,0.349027907,0.282842712,0.174513954,0.141421356,stimuli/lakes/805069_left.png,stimuli/lakes/805069_right.png,,,,0,23,23,69,1,,,,,
,,,,,,$7561968921,2020-07-16_19h37.17.551,fisher_task,2020.1.3,Win32,60,-0.122395833,-0.319010417,1,0,0,2.743235,scale,,,,,,0.302267034,0.244948974,0.2468,0.2,stimuli/lakes/606085_left.png,stimuli/lakes/606085_right.png,,,,0,24,24,85,1,,,,,
,,,,,,$7561968921,2020-07-16_19h37.17.551,fisher_task,2020.1.3,Win32,60,0.088541667,-0.274739583,1,0,0,2.410205,scale,,,,,,0.302267034,0.244948974,0.2468,0.2,stimuli/lakes/602018_left.png,stimuli/lakes/602018_right.png,,,,0,25,25,18,1,,,,,
,,,,,,$7561968921,2020-07-16_19h37.17.551,fisher_task,2020.1.3,Win32,60,-0.158854167,-0.40234375,1,0,0,2.12352,scale,,,,,,0.3702,0.3,0.1234,0.1,stimuli/lakes/906079_left.png,stimuli/lakes/906079_right.png,,,,0,26,26,79,1,,,,,
,,,,,,$7561968921,2020-07-16_19h37.17.551,fisher_task,2020.1.3,Win32,60,-0.14453125,-0.350260417,1,0,0,1.421835,scale,,,,,,0.326485712,0.264575131,0.21373507,0.173205081,stimuli/lakes/7070104_left.png,stimuli/lakes/7070104_right.png,,,,0,27,27,104,1,,,,,
,,,,,,$7561968921,2020-07-16_19h37.17.551,fisher_task,2020.1.3,Win32,60,-0.0078125,-0.247395833,1,0,0,1.873435,scale,,,,,,0.326485712,0.264575131,0.21373507,0.173205081,stimuli/lakes/702019_left.png,stimuli/lakes/702019_right.png,,,,0,28,28,19,1,,,,,
,,,,,,$7561968921,2020-07-16_19h37.17.551,fisher_task,2020.1.3,Win32,60,-0.096354167,-0.286458333,1,0,0,2.02344,scale,,,,,,0.2468,0.2,0.302267034,0.244948974,stimuli/lakes/4070101_left.png,stimuli/lakes/4070101_right.png,,,,0,29,29,101,1,,,,,
,,,,,,$7561968921,2020-07-16_19h37.17.551,fisher_task,2020.1.3,Win32,60,0.140625,-0.37109375,1,0,0,2.66606,scale,,,,,,0.1234,0.1,0.3702,0.3,stimuli/lakes/107098_left.png,stimuli/lakes/107098_right.png,,,,0,30,30,98,1,,,,,
,,,,,,$7561968921,2020-07-16_19h37.17.551,fisher_task,2020.1.3,Win32,60,0.11328125,-0.322916667,1,0,0,1.97335,scale,,,,,,0.2468,0.2,0.302267034,0.244948974,stimuli/lakes/405064_left.png,stimuli/lakes/405064_right.png,,,,0,31,31,64,1,,,,,
,,,,,,$7561968921,2020-07-16_19h37.17.551,fisher_task,2020.1.3,Win32,60,0.125,-0.315104167,1,0,0,1.571215,scale,,,,,,0.2468,0.2,0.302267034,0.244948974,stimuli/lakes/404053_left.png,stimuli/lakes/404053_right.png,,,,0,32,32,53,1,,,,,
,,,,,,$7561968921,2020-07-16_19h37.17.551,fisher_task,2020.1.3,Win32,60,0.15625,-0.41015625,1,0,0,1.989425,scale,,,,,,0.21373507,0.173205081,0.326485712,0.264575131,stimuli/lakes/30100_left.png,stimuli/lakes/30100_right.png,,,,0,33,33,0,1,,,,,
,,,,,,$7561968921,2020-07-16_19h37.17.551,fisher_task,2020.1.3,Win32,60,0.15625,-0.41015625,1,0,0,2.041895,scale,,,,,,0.174513954,0.141421356,0.349027907,0.282842712,stimuli/lakes/203024_left.png,stimuli/lakes/203024_right.png,,,,0,34,34,24,1,,,,,
,,,,,,$7561968921,2020-07-16_19h37.17.551,fisher_task,2020.1.3,Win32,60,-0.046875,-0.259114583,1,0,0,2.708955,scale,,,,,,0.326485712,0.264575131,0.21373507,0.173205081,stimuli/lakes/705067_left.png,stimuli/lakes/705067_right.png,,,,0,35,35,67,1,,,,,
,,,,,,$7561968921,2020-07-16_19h37.17.551,fisher_task,2020.1.3,Win32,60,0.088541667,-0.28125,1,0,0,5.80614,scale,,,,,,0.2468,0.2,0.302267034,0.244948974,stimuli/lakes/4090124_left.png,stimuli/lakes/4090124_right.png,,,,0,36,36,124,1,,,,,
,,,,,,$7561968921,2020-07-16_19h37.17.551,fisher_task,2020.1.3,Win32,60,-0.158854167,-0.4140625,1,0,0,2.361405,scale,,,,,,0.3702,0.3,0.1234,0.1,stimuli/lakes/905070_left.png,stimuli/lakes/905070_right.png,,,,0,37,37,70,1,,,,,
,,,,,,$7561968921,2020-07-16_19h37.17.551,fisher_task,2020.1.3,Win32,60,0.118489583,-0.326822917,1,0,0,1.76434,scale,,,,,,0.2468,0.2,0.302267034,0.244948974,stimuli/lakes/404044_left.png,stimuli/lakes/404044_right.png,,,,0,38,38,44,1,,,,,
,,,,,,$7561968921,2020-07-16_19h37.17.551,fisher_task,2020.1.3,Win32,60,-0.069010417,-0.26171875,1,0,0,1.65612,scale,,,,,,0.2468,0.2,0.302267034,0.244948974,stimuli/lakes/407092_left.png,stimuli/lakes/407092_right.png,,,,0,39,39,92,1,,,,,
,,,,,,$7561968921,2020-07-16_19h37.17.551,fisher_task,2020.1.3,Win32,60,0.145833333,-0.35546875,1,0,0,5.42077,scale,,,,,,0.2468,0.2,0.302267034,0.244948974,stimuli/lakes/40103_left.png,stimuli/lakes/40103_right.png,,,,0,40,40,3,1,,,,,
,,,,,,$7561968921,2020-07-16_19h37.17.551,fisher_task,2020.1.3,Win32,60,-0.15234375,-0.416666667,1,0,0,1.33946,scale,,,,,,0.326485712,0.264575131,0.21373507,0.173205081,stimuli/lakes/707095_left.png,stimuli/lakes/707095_right.png,,,,0,41,41,95,1,,,,,
,,,,,,$7561968921,2020-07-16_19h37.17.551,fisher_task,2020.1.3,Win32,60,-0.147135417,-0.3671875,1,0,0,1.371625,scale,,,,,,0.326485712,0.264575131,0.21373507,0.173205081,stimuli/lakes/7080116_left.png,stimuli/lakes/7080116_right.png,,,,0,42,42,116,1,,,,,
,,,,,,$7561968921,2020-07-16_19h37.17.551,fisher_task,2020.1.3,Win32,60,-0.053385417,-0.2734375,1,0,0,2.14059,scale,,,,,,0.275930788,0.223606798,0.275930788,0.223606798,stimuli/lakes/506075_left.png,stimuli/lakes/506075_right.png,,,,0,43,43,75,1,,,,,
,,,,,,$7561968921,2020-07-16_19h37.17.551,fisher_task,2020.1.3,Win32,60,0.05859375,-0.26171875,1,0,0,2.82621,scale,,,,,,0.302267034,0.244948974,0.2468,0.2,stimuli/lakes/603028_left.png,stimuli/lakes/603028_right.png,,,space,0,44,44,28,1,16.687615,,,,
,,,,,,$7561968921,2020-07-16_19h37.17.551,fisher_task,2020.1.3,Win32,60,-0.03515625,-0.255208333,1,0,0,2.09093,scale,,,,,,0.302267034,0.244948974,0.2468,0.2,stimuli/lakes/604055_left.png,stimuli/lakes/604055_right.png,,,,0,45,45,55,1,,,,,
,,,,,,$7561968921,2020-07-16_19h37.17.551,fisher_task,2020.1.3,Win32,60,-0.088541667,-0.282552083,1,0,0,2.509255,scale,,,,,,0.349027907,0.282842712,0.174513954,0.141421356,stimuli/lakes/804057_left.png,stimuli/lakes/804057_right.png,,,,0,46,46,57,1,,,,,
,,,,,,$7561968921,2020-07-16_19h37.17.551,fisher_task,2020.1.3,Win32,60,0.0546875,-0.270833333,1,0,0,1.95646,scale,,,,,,0.2468,0.2,0.302267034,0.244948974,stimuli/lakes/406074_left.png,stimuli/lakes/406074_right.png,,,,0,47,47,74,1,,,,,
,,,,,,$7561968921,2020-07-16_19h37.17.551,fisher_task,2020.1.3,Win32,60,0.119791667,-0.30859375,1,0,0,7.26179,scale,,,,,,0.326485712,0.264575131,0.21373507,0.173205081,stimuli/lakes/70107_left.png,stimuli/lakes/70107_right.png,,,,0,48,48,7,1,,,,,
,,,,,,$7561968921,2020-07-16_19h37.17.551,fisher_task,2020.1.3,Win32,60,0.143229167,-0.346354167,1,0,0,5.754445,scale,,,,,,0.3702,0.3,0.1234,0.1,stimuli/lakes/901010_left.png,stimuli/lakes/901010_right.png,,,,0,49,49,10,1,,,,,
,,,,,,$7561968921,2020-07-16_19h37.17.551,fisher_task,2020.1.3,Win32,60,-0.098958333,-0.29296875,1,0,0,2.65896,scale,,,,,,0.2468,0.2,0.302267034,0.244948974,stimuli/lakes/4090123_left.png,stimuli/lakes/4090123_right.png,,,,0,50,50,123,1,,,,,
,,,,,,$7561968921,2020-07-16_19h37.17.551,fisher_task,2020.1.3,Win32,60,-0.125,-0.329427083,1,0,0,1.793345,scale,,,,,,0.326485712,0.264575131,0.21373507,0.173205081,stimuli/lakes/706077_left.png,stimuli/lakes/706077_right.png,,,,0,51,51,77,1,,,,,
,,,,,,$7561968921,2020-07-16_19h37.17.551,fisher_task,2020.1.3,Win32,60,-0.1640625,-0.40234375,1,0,0,1.595025,scale,,,,,,0.326485712,0.264575131,0.21373507,0.173205081,stimuli/lakes/7080117_left.png,stimuli/lakes/7080117_right.png,,,,0,52,52,117,1,,,,,
,,,,,,$7561968921,2020-07-16_19h37.17.551,fisher_task,2020.1.3,Win32,60,0.12109375,-0.33203125,1,0,0,2.208815,scale,,,,,,0.1234,0.1,0.3702,0.3,stimuli/lakes/106080_left.png,stimuli/lakes/106080_right.png,,,,0,53,53,80,1,,,,,
,,,,,,$7561968921,2020-07-16_19h37.17.551,fisher_task,2020.1.3,Win32,60,0.154947917,-0.416666667,1,0,0,1.78838,scale,,,,,,0.174513954,0.141421356,0.349027907,0.282842712,stimuli/lakes/202011_left.png,stimuli/lakes/202011_right.png,,,,0,54,54,11,1,,,,,
,,,,,,$7561968921,2020-07-16_19h37.17.551,fisher_task,2020.1.3,Win32,60,0.130208333,-0.350260417,1,0,0,1.589305,scale,,,,,,0.1234,0.1,0.3702,0.3,stimuli/lakes/105059_left.png,stimuli/lakes/105059_right.png,,,,0,55,55,59,1,,,,,
,,,,,,$7561968921,2020-07-16_19h37.17.551,fisher_task,2020.1.3,Win32,60,-0.140625,-0.3671875,1,0,0,1.60403,scale,,,,,,0.3702,0.3,0.1234,0.1,stimuli/lakes/9070106_left.png,stimuli/lakes/9070106_right.png,,,,0,56,56,106,1,,,,,
,,,,,,$7561968921,2020-07-16_19h37.17.551,fisher_task,2020.1.3,Win32,60,0.122395833,-0.3203125,1,0,0,1.35492,scale,,,,,,0.2468,0.2,0.302267034,0.244948974,stimuli/lakes/402015_left.png,stimuli/lakes/402015_right.png,,,,0,57,57,15,1,,,,,
,,,,,,$7561968921,2020-07-16_19h37.17.551,fisher_task,2020.1.3,Win32,60,0.139322917,-0.369791667,1,0,0,1.45975,scale,,,,,,0.174513954,0.141421356,0.349027907,0.282842712,stimuli/lakes/203033_left.png,stimuli/lakes/203033_right.png,,,,0,58,58,33,1,,,,,
,,,,,,$7561968921,2020-07-16_19h37.17.551,fisher_task,2020.1.3,Win32,60,-0.153645833,-0.359375,1,0,0,1.659815,scale,,,,,,0.302267034,0.244948974,0.2468,0.2,stimuli/lakes/607094_left.png,stimuli/lakes/607094_right.png,,,,0,59,59,94,1,,,,,
,,,,,,$7561968921,2020-07-16_19h37.17.551,fisher_task,2020.1.3,Win32,60,-0.0625,-0.27734375,1,0,0,2.291735,scale,,,,,,0.302267034,0.244948974,0.2468,0.2,stimuli/lakes/605066_left.png,stimuli/lakes/605066_right.png,,,,0,60,60,66,1,,,,,
,,,,,,$7561968921,2020-07-16_19h37.17.551,fisher_task,2020.1.3,Win32,60,0.002604167,-0.247395833,1,0,0,1.78871,scale,,,,,,0.349027907,0.282842712,0.174513954,0.141421356,stimuli/lakes/802021_left.png,stimuli/lakes/802021_right.png,,,,0,61,61,21,1,,,,,
,,,,,,$7561968921,2020-07-16_19h37.17.551,fisher_task,2020.1.3,Win32,60,-0.0234375,-0.264322917,1,0,0,2.59163,scale,,,,,,0.21373507,0.173205081,0.326485712,0.264575131,stimuli/lakes/306073_left.png,stimuli/lakes/306073_right.png,,,,0,62,62,73,1,,,,,
,,,,,,$7561968921,2020-07-16_19h37.17.551,fisher_task,2020.1.3,Win32,60,-0.005208333,-0.255208333,1,0,0,4.85155,scale,,,,,,0.3702,0.3,0.1234,0.1,stimuli/lakes/903031_left.png,stimuli/lakes/903031_right.png,,,,0,63,63,31,1,,,,,
,,,,,,$7561968921,2020-07-16_19h37.17.551,fisher_task,2020.1.3,Win32,60,-0.078125,-0.283854167,1,0,0,2.07703,scale,,,,,,0.21373507,0.173205081,0.326485712,0.264575131,stimuli/lakes/305061_left.png,stimuli/lakes/305061_right.png,,,,0,64,64,61,1,,,,,
,,,,,,$7561968921,2020-07-16_19h37.17.551,fisher_task,2020.1.3,Win32,60,0.109375,-0.315104167,1,0,0,1.60481,scale,,,,,,0.21373507,0.173205081,0.326485712,0.264575131,stimuli/lakes/303034_left.png,stimuli/lakes/303034_right.png,,,,0,65,65,34,1,,,,,
,,,,,,$7561968921,2020-07-16_19h37.17.551,fisher_task,2020.1.3,Win32,60,-0.00390625,-0.2578125,1,0,0,1.65518,scale,,,,,,0.2468,0.2,0.302267034,0.244948974,stimuli/lakes/406083_left.png,stimuli/lakes/406083_right.png,,,space,0,66,66,83,1,3.973055,,,,
,,,,,,$7561968921,2020-07-16_19h37.17.551,fisher_task,2020.1.3,Win32,60,-0.139322917,-0.350260417,1,0,0,5.57282,scale,,,,,,0.302267034,0.244948974,0.2468,0.2,stimuli/lakes/6090126_left.png,stimuli/lakes/6090126_right.png,,,,0,67,67,126,1,,,,,
,,,,,,$7561968921,2020-07-16_19h37.17.551,fisher_task,2020.1.3,Win32,60,0.162760417,-0.385416667,1,0,0,1.76212,scale,,,,,,0.21373507,0.173205081,0.326485712,0.264575131,stimuli/lakes/302013_left.png,stimuli/lakes/302013_right.png,,,,0,68,68,13,1,,,,,
,,,,,,$7561968921,2020-07-16_19h37.17.551,fisher_task,2020.1.3,Win32,60,-0.092447917,-0.2734375,1,0,0,2.256725,scale,,,,,,0.21373507,0.173205081,0.326485712,0.264575131,stimuli/lakes/307091_left.png,stimuli/lakes/307091_right.png,,,,0,69,69,91,1,,,,,
,,,,,,$7561968921,2020-07-16_19h37.17.551,fisher_task,2020.1.3,Win32,60,0.161458333,-0.42578125,1,0,0,2.02491,scale,,,,,,0.275930788,0.223606798,0.275930788,0.223606798,stimuli/lakes/50104_left.png,stimuli/lakes/50104_right.png,,,,0,70,70,4,1,,,,,
,,,,,,$7561968921,2020-07-16_19h37.17.551,fisher_task,2020.1.3,Win32,60,0.14453125,-0.37109375,1,0,0,1.857135,scale,,,,,,0.174513954,0.141421356,0.349027907,0.282842712,stimuli/lakes/206081_left.png,stimuli/lakes/206081_right.png,,,,0,71,71,81,1,,,,,
,,,,,,$7561968921,2020-07-16_19h37.17.551,fisher_task,2020.1.3,Win32,60,0.158854167,-0.424479167,1,0,0,1.20326,scale,,,,,,0.275930788,0.223606798,0.275930788,0.223606798,stimuli/lakes/502016_left.png,stimuli/lakes/502016_right.png,,,,0,72,72,16,1,,,,,
,,,,,,$7561968921,2020-07-16_19h37.17.551,fisher_task,2020.1.3,Win32,60,-0.009114583,-0.2578125,1,0,0,1.90622,scale,,,,,,0.302267034,0.244948974,0.2468,0.2,stimuli/lakes/603037_left.png,stimuli/lakes/603037_right.png,,,,0,73,73,37,1,,,,,
,,,,,,$7561968921,2020-07-16_19h37.17.551,fisher_task,2020.1.3,Win32,60,-0.125,-0.315104167,1,0,0,1.70645,scale,,,,,,0.302267034,0.244948974,0.2468,0.2,stimuli/lakes/6080115_left.png,stimuli/lakes/6080115_right.png,,,,0,74,74,115,1,,,,,
,,,,,,$7561968921,2020-07-16_19h37.17.551,fisher_task,2020.1.3,Win32,60,-0.1484375,-0.373697917,1,0,0,1.556655,scale,,,,,,0.3702,0.3,0.1234,0.1,stimuli/lakes/907097_left.png,stimuli/lakes/907097_right.png,,,,0,75,75,97,1,,,,,
,,,,,,$7561968921,2020-07-16_19h37.17.551,fisher_task,2020.1.3,Win32,60,-0.088541667,-0.282552083,1,0,0,2.409125,scale,,,,,,0.275930788,0.223606798,0.275930788,0.223606798,stimuli/lakes/507093_left.png,stimuli/lakes/507093_right.png,,,,0,76,76,93,1,,,,,
,,,,,,$7561968921,2020-07-16_19h37.17.551,fisher_task,2020.1.3,Win32,60,0.00390625,-0.24609375,1,0,0,4.3333,scale,,,,,,0.3702,0.3,0.1234,0.1,stimuli/lakes/903040_left.png,stimuli/lakes/903040_right.png,,,,0,77,77,40,1,,,,,
,,,,,,$7561968921,2020-07-16_19h37.17.551,fisher_task,2020.1.3,Win32,60,-0.106770833,-0.303385417,1,0,0,1.972885,scale,,,,,,0.21373507,0.173205081,0.326485712,0.264575131,stimuli/lakes/3080109_left.png,stimuli/lakes/3080109_right.png,,,,0,78,78,109,1,,,,,
,,,,,,$7561968921,2020-07-16_19h37.17.551,fisher_task,2020.1.3,Win32,60,0.14453125,-0.384114583,1,0,0,1.555695,scale,,,,,,0.1234,0.1,0.3702,0.3,stimuli/lakes/103032_left.png,stimuli/lakes/103032_right.png,,,,0,79,79,32,1,,,,,
,,,,,,$7561968921,2020-07-16_19h37.17.551,fisher_task,2020.1.3,Win32,60,0.001302083,-0.26171875,1,0,0,1.87337,scale,,,,,,0.326485712,0.264575131,0.21373507,0.173205081,stimuli/lakes/703029_left.png,stimuli/lakes/703029_right.png,,,,0,80,80,29,1,,,,,
,,,,,,$7561968921,2020-07-16_19h37.17.551,fisher_task,2020.1.3,Win32,60,-0.1171875,-0.311197917,1,0,0,2.342045,scale,,,,,,0.302267034,0.244948974,0.2468,0.2,stimuli/lakes/6080114_left.png,stimuli/lakes/6080114_right.png,,,,0,81,81,114,1,,,,,
,,,,,,$7561968921,2020-07-16_19h37.17.551,fisher_task,2020.1.3,Win32,60,0.158854167,-0.423177083,1,0,0,1.805375,scale,,,,,,0.1234,0.1,0.3702,0.3,stimuli/lakes/103023_left.png,stimuli/lakes/103023_right.png,,,,0,82,82,23,1,,,,,
,,,,,,$7561968921,2020-07-16_19h37.17.551,fisher_task,2020.1.3,Win32,60,-0.12109375,-0.322916667,1,0,0,2.97717,scale,,,,,,0.349027907,0.282842712,0.174513954,0.141421356,stimuli/lakes/803030_left.png,stimuli/lakes/803030_right.png,,,,0,83,83,30,1,,,,,
,,,,,,$7561968921,2020-07-16_19h37.17.551,fisher_task,2020.1.3,Win32,60,0.106770833,-0.302083333,1,0,0,2.391755,scale,,,,,,0.174513954,0.141421356,0.349027907,0.282842712,stimuli/lakes/206072_left.png,stimuli/lakes/206072_right.png,,,,0,84,84,72,1,,,,,
,,,,,,$7561968921,2020-07-16_19h37.17.551,fisher_task,2020.1.3,Win32,60,0.002604167,-0.255208333,1,0,0,3.90273,scale,,,,,,0.326485712,0.264575131,0.21373507,0.173205081,stimuli/lakes/703038_left.png,stimuli/lakes/703038_right.png,,,,0,85,85,38,1,,,,,
,,,,,,$7561968921,2020-07-16_19h37.17.551,fisher_task,2020.1.3,Win32,60,-0.069010417,-0.265625,1,0,0,2.491915,scale,,,,,,0.21373507,0.173205081,0.326485712,0.264575131,stimuli/lakes/306082_left.png,stimuli/lakes/306082_right.png,,,,0,86,86,82,1,,,,,
,,,,,,$7561968921,2020-07-16_19h37.17.551,fisher_task,2020.1.3,Win32,60,0.135416667,-0.33984375,1,0,0,3.279015,scale,,,,,,0.302267034,0.244948974,0.2468,0.2,stimuli/lakes/602017_left.png,stimuli/lakes/602017_right.png,,,,0,87,87,17,1,,,,,
,,,,,,$7561968921,2020-07-16_19h37.17.551,fisher_task,2020.1.3,Win32,60,-0.119791667,-0.309895833,1,0,0,2.391055,scale,,,,,,0.3702,0.3,0.1234,0.1,stimuli/lakes/904049_left.png,stimuli/lakes/904049_right.png,,,space,0,88,88,49,1,3.59852,,,,
,,,,,,$7561968921,2020-07-16_19h37.17.551,fisher_task,2020.1.3,Win32,60,0.151041667,-0.376302083,1,0,0,1.690795,scale,,,,,,0.174513954,0.141421356,0.349027907,0.282842712,stimuli/lakes/204051_left.png,stimuli/lakes/204051_right.png,,,,0,89,89,51,1,,,,,
,,,,,,$7561968921,2020-07-16_19h37.17.551,fisher_task,2020.1.3,Win32,60,0.151041667,-0.376302083,1,0,0,1.572155,scale,,,,,,0.2468,0.2,0.302267034,0.244948974,stimuli/lakes/403035_left.png,stimuli/lakes/403035_right.png,,,,0,90,90,35,1,,,,,
,,,,,,$7561968921,2020-07-16_19h37.17.551,fisher_task,2020.1.3,Win32,60,0.108072917,-0.313802083,1,0,0,1.94102,scale,,,,,,0.1234,0.1,0.3702,0.3,stimuli/lakes/106071_left.png,stimuli/lakes/106071_right.png,,,,0,91,91,71,1,,,,,
,,,,,,$7561968921,2020-07-16_19h37.17.551,fisher_task,2020.1.3,Win32,60,0.084635417,-0.291666667,1,0,0,4.801665,scale,,,,,,0.21373507,0.173205081,0.326485712,0.264575131,stimuli/lakes/30101_left.png,stimuli/lakes/30101_right.png,,,,0,92,92,1,1,,,,,
,,,,,,$7561968921,2020-07-16_19h37.17.551,fisher_task,2020.1.3,Win32,60,-0.149739583,-0.408854167,1,0,0,1.35546,scale,,,,,,0.349027907,0.282842712,0.174513954,0.141421356,stimuli/lakes/8080118_left.png,stimuli/lakes/8080118_right.png,,,,0,93,93,118,1,,,,,
,,,,,,$7561968921,2020-07-16_19h37.17.551,fisher_task,2020.1.3,Win32,60,-0.005208333,-0.256510417,1,0,0,1.740595,scale,,,,,,0.2468,0.2,0.302267034,0.244948974,stimuli/lakes/405063_left.png,stimuli/lakes/405063_right.png,,,,0,94,94,63,1,,,,,
,,,,,,$7561968921,2020-07-16_19h37.17.551,fisher_task,2020.1.3,Win32,60,-0.046875,-0.2578125,1,0,0,1.1701,scale,,,,,,0.326485712,0.264575131,0.21373507,0.173205081,stimuli/lakes/705068_left.png,stimuli/lakes/705068_right.png,,,,0,95,95,68,1,,,,,
,,,,,,$7561968921,2020-07-16_19h37.17.551,fisher_task,2020.1.3,Win32,60,0.08203125,-0.287760417,1,0,0,1.68977,scale,,,,,,0.21373507,0.173205081,0.326485712,0.264575131,stimuli/lakes/305062_left.png,stimuli/lakes/305062_right.png,,,,0,96,96,62,1,,,,,
,,,,,,$7561968921,2020-07-16_19h37.17.551,fisher_task,2020.1.3,Win32,60,-0.076822917,-0.266927083,1,0,0,1.43956,scale,,,,,,0.21373507,0.173205081,0.326485712,0.264575131,stimuli/lakes/3080110_left.png,stimuli/lakes/3080110_right.png,,,,0,97,97,110,1,,,,,
,,,,,,$7561968921,2020-07-16_19h37.17.551,fisher_task,2020.1.3,Win32,60,-0.138020833,-0.3359375,1,0,0,3.245865,scale,,,,,,0.21373507,0.173205081,0.326485712,0.264575131,stimuli/lakes/3090121_left.png,stimuli/lakes/3090121_right.png,,,,0,98,98,121,1,,,,,
,,,,,,$7561968921,2020-07-16_19h37.17.551,fisher_task,2020.1.3,Win32,60,-0.100260417,-0.291666667,1,0,0,3.48273,scale,,,,,,0.2468,0.2,0.302267034,0.244948974,stimuli/lakes/4080112_left.png,stimuli/lakes/4080112_right.png,,,,0,99,99,112,1,,,,,
,,,,,,$7561968921,2020-07-16_19h37.17.551,fisher_task,2020.1.3,Win32,60,0.11328125,-0.326822917,1,0,0,1.388475,scale,,,,,,0.21373507,0.173205081,0.326485712,0.264575131,stimuli/lakes/302012_left.png,stimuli/lakes/302012_right.png,,,,0,100,100,12,1,,,,,
,,,,,,$7561968921,2020-07-16_19h37.17.551,fisher_task,2020.1.3,Win32,60,-0.109375,-0.278645833,1,0,0,1.65688,scale,,,,,,0.21373507,0.173205081,0.326485712,0.264575131,stimuli/lakes/3070100_left.png,stimuli/lakes/3070100_right.png,,,,0,101,101,100,1,,,,,
,,,,,,$7561968921,2020-07-16_19h37.17.551,fisher_task,2020.1.3,Win32,60,-0.1328125,-0.334635417,1,0,0,3.185855,scale,,,,,,0.349027907,0.282842712,0.174513954,0.141421356,stimuli/lakes/806078_left.png,stimuli/lakes/806078_right.png,,,,0,102,102,78,1,,,,,
,,,,,,$7561968921,2020-07-16_19h37.17.551,fisher_task,2020.1.3,Win32,60,0.138020833,-0.356770833,1,0,0,3.563885,scale,,,,,,0.1234,0.1,0.3702,0.3,stimuli/lakes/107089_left.png,stimuli/lakes/107089_right.png,,,,0,103,103,89,1,,,,,
,,,,,,$7561968921,2020-07-16_19h37.17.551,fisher_task,2020.1.3,Win32,60,0.002604167,-0.26171875,1,0,0,2.01242,scale,,,,,,0.275930788,0.223606798,0.275930788,0.223606798,stimuli/lakes/504045_left.png,stimuli/lakes/504045_right.png,,,,0,104,104,45,1,,,,,
,,,,,,$7561968921,2020-07-16_19h37.17.551,fisher_task,2020.1.3,Win32,60,-0.088541667,-0.265625,1,0,0,5.7065,scale,,,,,,0.1234,0.1,0.3702,0.3,stimuli/lakes/1080107_left.png,stimuli/lakes/1080107_right.png,,,,0,105,105,107,1,,,,,
,,,,,,$7561968921,2020-07-16_19h37.17.551,fisher_task,2020.1.3,Win32,60,-0.139322917,-0.333333333,1,0,0,2.258375,scale,,,,,,0.275930788,0.223606798,0.275930788,0.223606798,stimuli/lakes/5090125_left.png,stimuli/lakes/5090125_right.png,,,,0,106,106,125,1,,,,,
,,,,,,$7561968921,2020-07-16_19h37.17.551,fisher_task,2020.1.3,Win32,60,0.006510417,-0.25390625,1,0,0,2.576015,scale,,,,,,0.174513954,0.141421356,0.349027907,0.282842712,stimuli/lakes/207099_left.png,stimuli/lakes/207099_right.png,,,,0,107,107,99,1,,,,,
,,,,,,$7561968921,2020-07-16_19h37.17.551,fisher_task,2020.1.3,Win32,60,0.09375,-0.290364583,1,0,0,1.40532,scale,,,,,,0.326485712,0.264575131,0.21373507,0.173205081,stimuli/lakes/702020_left.png,stimuli/lakes/702020_right.png,,,,0,108,108,20,1,,,,,
,,,,,,$7561968921,2020-07-16_19h37.17.551,fisher_task,2020.1.3,Win32,60,-0.143229167,-0.345052083,1,0,0,1.35008,scale,,,,,,0.302267034,0.244948974,0.2468,0.2,stimuli/lakes/6070103_left.png,stimuli/lakes/6070103_right.png,,,,0,109,109,103,1,,,,,
,,,,,,$7561968921,2020-07-16_19h37.17.551,fisher_task,2020.1.3,Win32,60,0.095052083,-0.27734375,1,0,0,3.886335,scale,,,,,,0.21373507,0.173205081,0.326485712,0.264575131,stimuli/lakes/304043_left.png,stimuli/lakes/304043_right.png,,,space,0,110,110,43,1,18.86526,,,,
,,,,,,$7561968921,2020-07-16_19h37.17.551,fisher_task,2020.1.3,Win32,60,0.0625,-0.2734375,1,0,0,1.841505,scale,,,,,,0.275930788,0.223606798,0.275930788,0.223606798,stimuli/lakes/504054_left.png,stimuli/lakes/504054_right.png,,,,0,111,111,54,1,,,,,
,,,,,,$7561968921,2020-07-16_19h37.17.551,fisher_task,2020.1.3,Win32,60,0.127604167,-0.321614583,1,0,0,2.12454,scale,,,,,,0.302267034,0.244948974,0.2468,0.2,stimuli/lakes/60106_left.png,stimuli/lakes/60106_right.png,,,,0,112,112,6,1,,,,,
,,,,,,$7561968921,2020-07-16_19h37.17.551,fisher_task,2020.1.3,Win32,60,-0.13671875,-0.33203125,1,0,0,3.06356,scale,,,,,,0.326485712,0.264575131,0.21373507,0.173205081,stimuli/lakes/7090128_left.png,stimuli/lakes/7090128_right.png,,,,0,113,113,128,1,,,,,
,,,,,,$7561968921,2020-07-16_19h37.17.551,fisher_task,2020.1.3,Win32,60,-0.002604167,-0.255208333,1,0,0,2.831365,scale,,,,,,0.1234,0.1,0.3702,0.3,stimuli/lakes/1090119_left.png,stimuli/lakes/1090119_right.png,,,,0,114,114,119,1,,,,,
,,,,,,$7561968921,2020-07-16_19h37.17.551,fisher_task,2020.1.3,Win32,60,-0.110677083,-0.313802083,1,0,0,3.079715,scale,,,,,,0.326485712,0.264575131,0.21373507,0.173205081,stimuli/lakes/7090129_left.png,stimuli/lakes/7090129_right.png,,,,0,115,115,129,1,,,,,
,,,,,,$7561968921,2020-07-16_19h37.17.551,fisher_task,2020.1.3,Win32,60,0.07421875,-0.272135417,1,0,0,1.49461,scale,,,,,,0.349027907,0.282842712,0.174513954,0.141421356,stimuli/lakes/803039_left.png,stimuli/lakes/803039_right.png,,,,0,116,116,39,1,,,,,
,,,,,,$7561968921,2020-07-16_19h37.17.551,fisher_task,2020.1.3,Win32,60,0.06640625,-0.26953125,1,0,0,2.34188,scale,,,,,,0.326485712,0.264575131,0.21373507,0.173205081,stimuli/lakes/704047_left.png,stimuli/lakes/704047_right.png,,,,0,117,117,47,1,,,,,
,,,,,,$7561968921,2020-07-16_19h37.17.551,fisher_task,2020.1.3,Win32,60,0.065104167,-0.279947917,1,0,0,1.171315,scale,,,,,,0.2468,0.2,0.302267034,0.244948974,stimuli/lakes/403026_left.png,stimuli/lakes/403026_right.png,,,,0,118,118,26,1,,,,,
,,,,,,$7561968921,2020-07-16_19h37.17.551,fisher_task,2020.1.3,Win32,60,0.098958333,-0.2890625,1,0,0,2.695375,scale,,,,,,0.174513954,0.141421356,0.349027907,0.282842712,stimuli/lakes/205060_left.png,stimuli/lakes/205060_right.png,,,,0,119,119,60,1,,,,,
,,,,,,$7561968921,2020-07-16_19h37.17.551,fisher_task,2020.1.3,Win32,60,0.135416667,-0.341145833,1,0,0,1.338425,scale,,,,,,0.302267034,0.244948974,0.2468,0.2,stimuli/lakes/60105_left.png,stimuli/lakes/60105_right.png,,,,0,120,120,5,1,,,,,
,,,,,,$7561968921,2020-07-16_19h37.17.551,fisher_task,2020.1.3,Win32,60,0.14453125,-0.364583333,1,0,0,1.689895,scale,,,,,,0.21373507,0.173205081,0.326485712,0.264575131,stimuli/lakes/304052_left.png,stimuli/lakes/304052_right.png,,,,0,121,121,52,1,,,,,
,,,,,,$7561968921,2020-07-16_19h37.17.551,fisher_task,2020.1.3,Win32,60,-0.02734375,-0.259114583,1,0,0,3.295865,scale,,,,,,0.275930788,0.223606798,0.275930788,0.223606798,stimuli/lakes/506084_left.png,stimuli/lakes/506084_right.png,,,,0,122,122,84,1,,,,,
,,,,,,$7561968921,2020-07-16_19h37.17.551,fisher_task,2020.1.3,Win32,60,-0.130208333,-0.341145833,1,0,0,1.977225,scale,,,,,,0.349027907,0.282842712,0.174513954,0.141421356,stimuli/lakes/8070105_left.png,stimuli/lakes/8070105_right.png,,,,0,123,123,105,1,,,,,
,,,,,,$7561968921,2020-07-16_19h37.17.551,fisher_task,2020.1.3,Win32,60,0.135416667,-0.348958333,1,0,0,2.876845,scale,,,,,,0.2468,0.2,0.302267034,0.244948974,stimuli/lakes/40102_left.png,stimuli/lakes/40102_right.png,,,,0,124,124,2,1,,,,,
,,,,,,$7561968921,2020-07-16_19h37.17.551,fisher_task,2020.1.3,Win32,60,0.063802083,-0.278645833,1,0,0,3.4966,scale,,,,,,0.174513954,0.141421356,0.349027907,0.282842712,stimuli/lakes/207090_left.png,stimuli/lakes/207090_right.png,,,,0,125,125,90,1,,,,,
,,,,,,$7561968921,2020-07-16_19h37.17.551,fisher_task,2020.1.3,Win32,60,0.110677083,-0.319010417,1,0,0,1.60382,scale,,,,,,0.174513954,0.141421356,0.349027907,0.282842712,stimuli/lakes/204042_left.png,stimuli/lakes/204042_right.png,,,,0,126,126,42,1,,,,,
,,,,,,$7561968921,2020-07-16_19h37.17.551,fisher_task,2020.1.3,Win32,60,-0.141927083,-0.36328125,1,0,0,1.492165,scale,,,,,,0.349027907,0.282842712,0.174513954,0.141421356,stimuli/lakes/806087_left.png,stimuli/lakes/806087_right.png,,,,0,127,127,87,1,,,,,
,,,,,,$7561968921,2020-07-16_19h37.17.551,fisher_task,2020.1.3,Win32,60,0.05078125,-0.263020833,1,0,0,2.710655,scale,,,,,,0.3702,0.3,0.1234,0.1,stimuli/lakes/902022_left.png,stimuli/lakes/902022_right.png,,,,0,128,128,22,1,,,,,
,,,,,,$7561968921,2020-07-16_19h37.17.551,fisher_task,2020.1.3,Win32,60,-0.100260417,-0.28515625,1,0,0,1.70563,scale,,,,,,0.326485712,0.264575131,0.21373507,0.173205081,stimuli/lakes/706086_left.png,stimuli/lakes/706086_right.png,,,,0,129,129,86,1,,,,,
,,,,,,$7561968921,2020-07-16_19h37.17.551,fisher_task,2020.1.3,Win32,60,,,,,,,,,,,,,,,,,,,,,,,,,,,,space,8.58497,space,50.38632
