keySpace.keys,keySpace.rt,instructions.thisRepN,instructions.thisTrialN,instructions.thisN,instructions.thisIndex,instructions.ran,participant,date,expName,psychopyVersion,OS,frameRate,mouse.x,mouse.y,mouse.leftButton,mouse.midButton,mouse.rightButton,mouse.time,mouse.clicked_name,training.thisRepN,training.thisTrialN,training.thisN,training.thisIndex,training.ran,widthBasketLeft,heightBasketLeft,widthBasketRight,heightBasketRight,leftLake,rightLake,space2.keys,space2.rt,space1.keys,trials.thisRepN,trials.thisTrialN,trials.thisN,trials.thisIndex,trials.ran,space1.rt,finalSpace1.keys,finalSpace1.rt,finalSpace2.keys,finalSpace2.rt
space,1.96648,0,0,0,0,1,$1510745171,2020-07-18_11h35.57.219,fisher_task,2020.1.3,MacIntel,60,,,,,,,,,,,,,,,,,,,,,,,,,,,,,,,
,,1,0,1,0,1,$1510745171,2020-07-18_11h35.57.219,fisher_task,2020.1.3,MacIntel,60,,,,,,,,,,,,,,,,,,,,,,,,,,,,,,,
,,,,,,,$1510745171,2020-07-18_11h35.57.219,fisher_task,2020.1.3,MacIntel,60,0.167430556,-0.428476562,1,0,0,7.5663,scale,0,0,0,0,1,0.275930788,0.223606798,0.275930788,0.223606798,stimuli/training/20_left.png,stimuli/training/20_right.png,,,,,,,,,,,,,
,,,,,,,$1510745171,2020-07-18_11h35.57.219,fisher_task,2020.1.3,MacIntel,60,-0.16280816,-0.429071181,1,0,0,3.33296,scale,0,1,1,1,1,0.275930788,0.223606798,0.275930788,0.223606798,stimuli/training/80_left.png,stimuli/training/80_right.png,,,,,,,,,,,,,
,,,,,,,$1510745171,2020-07-18_11h35.57.219,fisher_task,2020.1.3,MacIntel,60,0.166427951,-0.382925347,1,0,0,6.19914,scale,0,2,2,2,1,0.174513954,0.141421356,0.349027907,0.282842712,stimuli/training/50_left.png,stimuli/training/50_right.png,,,,,,,,,,,,,
,,,,,,,$1510745171,2020-07-18_11h35.57.219,fisher_task,2020.1.3,MacIntel,60,-0.003984375,-0.255442708,1,0,0,7.79921,scale,0,3,3,3,1,0.349027907,0.282842712,0.174513954,0.141421356,stimuli/training/50_left.png,stimuli/training/50_right.png,,,,,,,,,,,,,
,,,,,,,$1510745171,2020-07-18_11h35.57.219,fisher_task,2020.1.3,MacIntel,60,0.186688368,-0.431753472,1,0,0,10.38232,scale,0,4,4,4,1,0.275930788,0.223606798,0.275930788,0.223606798,stimuli/training/50_left.png,stimuli/training/50_right.png,,,,,,,,,,,,,
,,,,,,,$1510745171,2020-07-18_11h35.57.219,fisher_task,2020.1.3,MacIntel,60,0.192456597,-0.438229167,1,0,0,2.081855,scale,0,5,5,5,1,0.174513954,0.141421356,0.349027907,0.282842712,stimuli/training/20_left.png,stimuli/training/20_right.png,,,,,,,,,,,,,
,,,,,,,$1510745171,2020-07-18_11h35.57.219,fisher_task,2020.1.3,MacIntel,60,-0.167304687,-0.439240451,1,0,0,1.883965,scale,0,6,6,6,1,0.349027907,0.282842712,0.174513954,0.141421356,stimuli/training/80_left.png,stimuli/training/80_right.png,,,,,,,,,,,,,
,,,,,,,$1510745171,2020-07-18_11h35.57.219,fisher_task,2020.1.3,MacIntel,60,0.166961806,-0.435868056,1,0,0,2.00013,scale,0,7,7,7,1,0.1234,0.1,0.3702,0.3,stimuli/training/30_left.png,stimuli/training/30_right.png,,,,,,,,,,,,,
,,,,,,,$1510745171,2020-07-18_11h35.57.219,fisher_task,2020.1.3,MacIntel,60,-0.179774306,-0.434500868,1,0,0,3.59946,scale,0,8,8,8,1,0.3702,0.3,0.1234,0.1,stimuli/training/70_left.png,stimuli/training/70_right.png,,,,,,,,,,,,,
,,,,,,,$1510745171,2020-07-18_11h35.57.219,fisher_task,2020.1.3,MacIntel,60,-0.183932292,-0.436184896,1,0,0,1.449285,scale,0,9,9,9,1,0.326485712,0.264575131,0.21373507,0.173205081,stimuli/training/90_left.png,stimuli/training/90_right.png,,,,,,,,,,,,,
,,,,,,,$1510745171,2020-07-18_11h35.57.219,fisher_task,2020.1.3,MacIntel,60,0.178888889,-0.44078559,1,0,0,2.015915,scale,0,10,10,10,1,0.21373507,0.173205081,0.326485712,0.264575131,stimuli/training/10_left.png,stimuli/training/10_right.png,,,,,,,,,,,,,
,,,,,,,$1510745171,2020-07-18_11h35.57.219,fisher_task,2020.1.3,MacIntel,60,-0.184600694,-0.440872396,1,0,0,4.14956,scale,,,,,,0.3702,0.3,0.1234,0.1,stimuli/lakes/907097_left.png,stimuli/lakes/907097_right.png,space,5.615885,,0,0,0,97,1,,,,,
,,,,,,,$1510745171,2020-07-18_11h35.57.219,fisher_task,2020.1.3,MacIntel,60,0.093216146,-0.307638889,1,0,0,3.6829,scale,,,,,,0.1234,0.1,0.3702,0.3,stimuli/lakes/106080_left.png,stimuli/lakes/106080_right.png,,,,0,1,1,80,1,,,,,
,,,,,,,$1510745171,2020-07-18_11h35.57.219,fisher_task,2020.1.3,MacIntel,60,0.158663194,-0.379487847,1,0,0,3.266005,scale,,,,,,0.1234,0.1,0.3702,0.3,stimuli/lakes/103032_left.png,stimuli/lakes/103032_right.png,,,,0,2,2,32,1,,,,,
,,,,,,,$1510745171,2020-07-18_11h35.57.219,fisher_task,2020.1.3,MacIntel,60,0.07921441,-0.264253472,1,0,0,6.69911,scale,,,,,,0.349027907,0.282842712,0.174513954,0.141421356,stimuli/lakes/80109_left.png,stimuli/lakes/80109_right.png,,,,0,3,3,9,1,,,,,
,,,,,,,$1510745171,2020-07-18_11h35.57.219,fisher_task,2020.1.3,MacIntel,60,0.171710069,-0.4228125,1,0,0,3.766075,scale,,,,,,0.21373507,0.173205081,0.326485712,0.264575131,stimuli/lakes/303034_left.png,stimuli/lakes/303034_right.png,,,,0,4,4,34,1,,,,,
,,,,,,,$1510745171,2020-07-18_11h35.57.219,fisher_task,2020.1.3,MacIntel,60,0.0084375,-0.267881944,1,0,0,3.8319,scale,,,,,,0.302267034,0.244948974,0.2468,0.2,stimuli/lakes/602017_left.png,stimuli/lakes/602017_right.png,,,,0,5,5,17,1,,,,,
,,,,,,,$1510745171,2020-07-18_11h35.57.219,fisher_task,2020.1.3,MacIntel,60,-0.16421875,-0.399891493,1,0,0,1.84999,scale,,,,,,0.326485712,0.264575131,0.21373507,0.173205081,stimuli/lakes/707095_left.png,stimuli/lakes/707095_right.png,,,,0,6,6,95,1,,,,,
,,,,,,,$1510745171,2020-07-18_11h35.57.219,fisher_task,2020.1.3,MacIntel,60,-0.154552951,-0.365173611,1,0,0,2.399275,scale,,,,,,0.275930788,0.223606798,0.275930788,0.223606798,stimuli/lakes/506075_left.png,stimuli/lakes/506075_right.png,,,,0,7,7,75,1,,,,,
,,,,,,,$1510745171,2020-07-18_11h35.57.219,fisher_task,2020.1.3,MacIntel,60,0.176276042,-0.437456597,1,0,0,1.93233,scale,,,,,,0.21373507,0.173205081,0.326485712,0.264575131,stimuli/lakes/302013_left.png,stimuli/lakes/302013_right.png,,,,0,8,8,13,1,,,,,
,,,,,,,$1510745171,2020-07-18_11h35.57.219,fisher_task,2020.1.3,MacIntel,60,-0.105668403,-0.299605035,1,0,0,2.765515,scale,,,,,,0.302267034,0.244948974,0.2468,0.2,stimuli/lakes/604055_left.png,stimuli/lakes/604055_right.png,,,,0,9,9,55,1,,,,,
,,,,,,,$1510745171,2020-07-18_11h35.57.219,fisher_task,2020.1.3,MacIntel,60,-0.086427951,-0.29578559,1,0,0,3.26583,scale,,,,,,0.174513954,0.141421356,0.349027907,0.282842712,stimuli/lakes/2090120_left.png,stimuli/lakes/2090120_right.png,,,,0,10,10,120,1,,,,,
,,,,,,,$1510745171,2020-07-18_11h35.57.219,fisher_task,2020.1.3,MacIntel,60,0.160881076,-0.436853299,1,0,0,1.69927,scale,,,,,,0.21373507,0.173205081,0.326485712,0.264575131,stimuli/lakes/30100_left.png,stimuli/lakes/30100_right.png,,,,0,11,11,0,1,,,,,
,,,,,,,$1510745171,2020-07-18_11h35.57.219,fisher_task,2020.1.3,MacIntel,60,-0.137274306,-0.340247396,1,0,0,8.01634,scale,,,,,,0.3702,0.3,0.1234,0.1,stimuli/lakes/905070_left.png,stimuli/lakes/905070_right.png,,,,0,12,12,70,1,,,,,
,,,,,,,$1510745171,2020-07-18_11h35.57.219,fisher_task,2020.1.3,MacIntel,60,-0.172873264,-0.421223958,1,0,0,3.36554,scale,,,,,,0.326485712,0.264575131,0.21373507,0.173205081,stimuli/lakes/7080116_left.png,stimuli/lakes/7080116_right.png,,,,0,13,13,116,1,,,,,
,,,,,,,$1510745171,2020-07-18_11h35.57.219,fisher_task,2020.1.3,MacIntel,60,-0.026931424,-0.266306424,1,0,0,6.198835,scale,,,,,,0.302267034,0.244948974,0.2468,0.2,stimuli/lakes/60106_left.png,stimuli/lakes/60106_right.png,,,,0,14,14,6,1,,,,,
,,,,,,,$1510745171,2020-07-18_11h35.57.219,fisher_task,2020.1.3,MacIntel,60,-0.172894965,-0.433020833,1,0,0,2.69943,scale,,,,,,0.326485712,0.264575131,0.21373507,0.173205081,stimuli/lakes/7080117_left.png,stimuli/lakes/7080117_right.png,,,,0,15,15,117,1,,,,,
,,,,,,,$1510745171,2020-07-18_11h35.57.219,fisher_task,2020.1.3,MacIntel,60,0.055377604,-0.258697917,1,0,0,1.516355,scale,,,,,,0.21373507,0.173205081,0.326485712,0.264575131,stimuli/lakes/3080109_left.png,stimuli/lakes/3080109_right.png,,,,0,16,16,109,1,,,,,
,,,,,,,$1510745171,2020-07-18_11h35.57.219,fisher_task,2020.1.3,MacIntel,60,-0.105403646,-0.283619792,1,0,0,3.66554,scale,,,,,,0.21373507,0.173205081,0.326485712,0.264575131,stimuli/lakes/306082_left.png,stimuli/lakes/306082_right.png,,,,0,17,17,82,1,,,,,
,,,,,,,$1510745171,2020-07-18_11h35.57.219,fisher_task,2020.1.3,MacIntel,60,-0.046419271,-0.26015191,1,0,0,1.883095,scale,,,,,,0.302267034,0.244948974,0.2468,0.2,stimuli/lakes/603028_left.png,stimuli/lakes/603028_right.png,,,,0,18,18,28,1,,,,,
,,,,,,,$1510745171,2020-07-18_11h35.57.219,fisher_task,2020.1.3,MacIntel,60,-0.055386285,-0.266124132,1,0,0,5.632245,scale,,,,,,0.302267034,0.244948974,0.2468,0.2,stimuli/lakes/606085_left.png,stimuli/lakes/606085_right.png,,,,0,19,19,85,1,,,,,
,,,,,,,$1510745171,2020-07-18_11h35.57.219,fisher_task,2020.1.3,MacIntel,60,0.059210069,-0.261119792,1,0,0,3.482545,scale,,,,,,0.302267034,0.244948974,0.2468,0.2,stimuli/lakes/60105_left.png,stimuli/lakes/60105_right.png,,,,0,20,20,5,1,,,,,
,,,,,,,$1510745171,2020-07-18_11h35.57.219,fisher_task,2020.1.3,MacIntel,60,0.123289931,-0.308164063,1,0,0,3.966625,scale,,,,,,0.1234,0.1,0.3702,0.3,stimuli/lakes/107089_left.png,stimuli/lakes/107089_right.png,,,,0,21,21,89,1,,,,,
,,,,,,,$1510745171,2020-07-18_11h35.57.219,fisher_task,2020.1.3,MacIntel,60,-0.149088542,-0.36546875,1,0,0,1.766135,scale,,,,,,0.302267034,0.244948974,0.2468,0.2,stimuli/lakes/6090127_left.png,stimuli/lakes/6090127_right.png,,,space,0,22,22,127,1,4.49918,,,,
,,,,,,,$1510745171,2020-07-18_11h35.57.219,fisher_task,2020.1.3,MacIntel,60,0.126375868,-0.287677951,1,0,0,2.28206,scale,,,,,,0.174513954,0.141421356,0.349027907,0.282842712,stimuli/lakes/205060_left.png,stimuli/lakes/205060_right.png,,,,0,23,23,60,1,,,,,
,,,,,,,$1510745171,2020-07-18_11h35.57.219,fisher_task,2020.1.3,MacIntel,60,0.187096354,-0.438272569,1,0,0,1.499295,scale,,,,,,0.174513954,0.141421356,0.349027907,0.282842712,stimuli/lakes/202011_left.png,stimuli/lakes/202011_right.png,,,,0,24,24,11,1,,,,,
,,,,,,,$1510745171,2020-07-18_11h35.57.219,fisher_task,2020.1.3,MacIntel,60,0.10984375,-0.284040799,1,0,0,2.99945,scale,,,,,,0.21373507,0.173205081,0.326485712,0.264575131,stimuli/lakes/306073_left.png,stimuli/lakes/306073_right.png,,,,0,25,25,73,1,,,,,
,,,,,,,$1510745171,2020-07-18_11h35.57.219,fisher_task,2020.1.3,MacIntel,60,-0.14812066,-0.377413194,1,0,0,1.43319,scale,,,,,,0.302267034,0.244948974,0.2468,0.2,stimuli/lakes/6080114_left.png,stimuli/lakes/6080114_right.png,,,,0,26,26,114,1,,,,,
,,,,,,,$1510745171,2020-07-18_11h35.57.219,fisher_task,2020.1.3,MacIntel,60,0.191323785,-0.422565104,1,0,0,1.965245,scale,,,,,,0.1234,0.1,0.3702,0.3,stimuli/lakes/104050_left.png,stimuli/lakes/104050_right.png,,,,0,27,27,50,1,,,,,
,,,,,,,$1510745171,2020-07-18_11h35.57.219,fisher_task,2020.1.3,MacIntel,60,0.041736111,-0.229179688,1,0,0,2.51639,scale,,,,,,0.2468,0.2,0.302267034,0.244948974,stimuli/lakes/407092_left.png,stimuli/lakes/407092_right.png,,,,0,28,28,92,1,,,,,
,,,,,,,$1510745171,2020-07-18_11h35.57.219,fisher_task,2020.1.3,MacIntel,60,0.156766493,-0.309361979,1,0,0,4.91643,scale,,,,,,0.21373507,0.173205081,0.326485712,0.264575131,stimuli/lakes/304052_left.png,stimuli/lakes/304052_right.png,,,,0,29,29,52,1,,,,,
,,,,,,,$1510745171,2020-07-18_11h35.57.219,fisher_task,2020.1.3,MacIntel,60,-0.122460938,-0.287022569,1,0,0,2.416625,scale,,,,,,0.302267034,0.244948974,0.2468,0.2,stimuli/lakes/605065_left.png,stimuli/lakes/605065_right.png,,,,0,30,30,65,1,,,,,
,,,,,,,$1510745171,2020-07-18_11h35.57.219,fisher_task,2020.1.3,MacIntel,60,0.04234375,-0.224704861,1,0,0,1.83257,scale,,,,,,0.21373507,0.173205081,0.326485712,0.264575131,stimuli/lakes/3080110_left.png,stimuli/lakes/3080110_right.png,,,,0,31,31,110,1,,,,,
,,,,,,,$1510745171,2020-07-18_11h35.57.219,fisher_task,2020.1.3,MacIntel,60,0.142708333,-0.295724826,1,0,0,1.799055,scale,,,,,,0.2468,0.2,0.302267034,0.244948974,stimuli/lakes/403026_left.png,stimuli/lakes/403026_right.png,,,,0,32,32,26,1,,,,,
,,,,,,,$1510745171,2020-07-18_11h35.57.219,fisher_task,2020.1.3,MacIntel,60,-0.034088542,-0.223424479,1,0,0,3.816535,scale,,,,,,0.302267034,0.244948974,0.2468,0.2,stimuli/lakes/602018_left.png,stimuli/lakes/602018_right.png,,,,0,33,33,18,1,,,,,
,,,,,,,$1510745171,2020-07-18_11h35.57.219,fisher_task,2020.1.3,MacIntel,60,-0.186106771,-0.385386285,1,0,0,1.89899,scale,,,,,,0.3702,0.3,0.1234,0.1,stimuli/lakes/906079_left.png,stimuli/lakes/906079_right.png,,,,0,34,34,79,1,,,,,
,,,,,,,$1510745171,2020-07-18_11h35.57.219,fisher_task,2020.1.3,MacIntel,60,0.172799479,-0.349188368,1,0,0,3.93218,scale,,,,,,0.275930788,0.223606798,0.275930788,0.223606798,stimuli/lakes/503027_left.png,stimuli/lakes/503027_right.png,,,,0,35,35,27,1,,,,,
,,,,,,,$1510745171,2020-07-18_11h35.57.219,fisher_task,2020.1.3,MacIntel,60,-0.167703993,-0.374752604,1,0,0,1.58312,scale,,,,,,0.275930788,0.223606798,0.275930788,0.223606798,stimuli/lakes/5080113_left.png,stimuli/lakes/5080113_right.png,,,,0,36,36,113,1,,,,,
,,,,,,,$1510745171,2020-07-18_11h35.57.219,fisher_task,2020.1.3,MacIntel,60,-0.165377604,-0.349969618,1,0,0,2.349535,scale,,,,,,0.326485712,0.264575131,0.21373507,0.173205081,stimuli/lakes/706077_left.png,stimuli/lakes/706077_right.png,,,,0,37,37,77,1,,,,,
,,,,,,,$1510745171,2020-07-18_11h35.57.219,fisher_task,2020.1.3,MacIntel,60,-0.11984375,-0.266076389,1,0,0,6.215565,scale,,,,,,0.3702,0.3,0.1234,0.1,stimuli/lakes/903031_left.png,stimuli/lakes/903031_right.png,,,,0,38,38,31,1,,,,,
,,,,,,,$1510745171,2020-07-18_11h35.57.219,fisher_task,2020.1.3,MacIntel,60,0.176341146,-0.369027778,1,0,0,1.61545,scale,,,,,,0.2468,0.2,0.302267034,0.244948974,stimuli/lakes/404053_left.png,stimuli/lakes/404053_right.png,,,,0,39,39,53,1,,,,,
,,,,,,,$1510745171,2020-07-18_11h35.57.219,fisher_task,2020.1.3,MacIntel,60,0.032591146,-0.221549479,1,0,0,3.465625,scale,,,,,,0.2468,0.2,0.302267034,0.244948974,stimuli/lakes/4090123_left.png,stimuli/lakes/4090123_right.png,,,,0,40,40,123,1,,,,,
,,,,,,,$1510745171,2020-07-18_11h35.57.219,fisher_task,2020.1.3,MacIntel,60,-0.074505208,-0.233980035,1,0,0,2.14946,scale,,,,,,0.275930788,0.223606798,0.275930788,0.223606798,stimuli/lakes/504054_left.png,stimuli/lakes/504054_right.png,,,,0,41,41,54,1,,,,,
,,,,,,,$1510745171,2020-07-18_11h35.57.219,fisher_task,2020.1.3,MacIntel,60,-0.143046875,-0.297560764,1,0,0,1.600705,scale,,,,,,0.326485712,0.264575131,0.21373507,0.173205081,stimuli/lakes/705068_left.png,stimuli/lakes/705068_right.png,,,,0,42,42,68,1,,,,,
,,,,,,,$1510745171,2020-07-18_11h35.57.219,fisher_task,2020.1.3,MacIntel,60,0.114470486,-0.261766493,1,0,0,2.96653,scale,,,,,,0.174513954,0.141421356,0.349027907,0.282842712,stimuli/lakes/207099_left.png,stimuli/lakes/207099_right.png,,,,0,43,43,99,1,,,,,
,,,,,,,$1510745171,2020-07-18_11h35.57.219,fisher_task,2020.1.3,MacIntel,60,-0.1559375,-0.307821181,1,0,0,2.0492,scale,,,,,,0.302267034,0.244948974,0.2468,0.2,stimuli/lakes/607094_left.png,stimuli/lakes/607094_right.png,,,space,0,44,44,94,1,6.251855,,,,
,,,,,,,$1510745171,2020-07-18_11h35.57.219,fisher_task,2020.1.3,MacIntel,60,0.161124132,-0.314626736,1,0,0,1.331385,scale,,,,,,0.21373507,0.173205081,0.326485712,0.264575131,stimuli/lakes/304043_left.png,stimuli/lakes/304043_right.png,,,,0,45,45,43,1,,,,,
,,,,,,,$1510745171,2020-07-18_11h35.57.219,fisher_task,2020.1.3,MacIntel,60,-0.116861979,-0.261545139,1,0,0,3.233105,scale,,,,,,0.326485712,0.264575131,0.21373507,0.173205081,stimuli/lakes/703029_left.png,stimuli/lakes/703029_right.png,,,,0,46,46,29,1,,,,,
,,,,,,,$1510745171,2020-07-18_11h35.57.219,fisher_task,2020.1.3,MacIntel,60,0.019318576,-0.214709201,1,0,0,3.83211,scale,,,,,,0.2468,0.2,0.302267034,0.244948974,stimuli/lakes/4090124_left.png,stimuli/lakes/4090124_right.png,,,,0,47,47,124,1,,,,,
,,,,,,,$1510745171,2020-07-18_11h35.57.219,fisher_task,2020.1.3,MacIntel,60,-0.169270833,-0.366553819,1,0,0,1.71598,scale,,,,,,0.349027907,0.282842712,0.174513954,0.141421356,stimuli/lakes/806087_left.png,stimuli/lakes/806087_right.png,,,,0,48,48,87,1,,,,,
,,,,,,,$1510745171,2020-07-18_11h35.57.219,fisher_task,2020.1.3,MacIntel,60,0.170837674,-0.336540799,1,0,0,1.848725,scale,,,,,,0.275930788,0.223606798,0.275930788,0.223606798,stimuli/lakes/502016_left.png,stimuli/lakes/502016_right.png,,,,0,49,49,16,1,,,,,
,,,,,,,$1510745171,2020-07-18_11h35.57.219,fisher_task,2020.1.3,MacIntel,60,-0.155707465,-0.328519965,1,0,0,2.599055,scale,,,,,,0.326485712,0.264575131,0.21373507,0.173205081,stimuli/lakes/705067_left.png,stimuli/lakes/705067_right.png,,,,0,50,50,67,1,,,,,
,,,,,,,$1510745171,2020-07-18_11h35.57.219,fisher_task,2020.1.3,MacIntel,60,0.105651042,-0.250707465,1,0,0,1.86565,scale,,,,,,0.1234,0.1,0.3702,0.3,stimuli/lakes/1090119_left.png,stimuli/lakes/1090119_right.png,,,,0,51,51,119,1,,,,,
,,,,,,,$1510745171,2020-07-18_11h35.57.219,fisher_task,2020.1.3,MacIntel,60,0.173949653,-0.340364583,1,0,0,1.94912,scale,,,,,,0.174513954,0.141421356,0.349027907,0.282842712,stimuli/lakes/203024_left.png,stimuli/lakes/203024_right.png,,,,0,52,52,24,1,,,,,
,,,,,,,$1510745171,2020-07-18_11h35.57.219,fisher_task,2020.1.3,MacIntel,60,0.18828125,-0.402790799,1,0,0,1.24963,scale,,,,,,0.2468,0.2,0.302267034,0.244948974,stimuli/lakes/40102_left.png,stimuli/lakes/40102_right.png,,,,0,53,53,2,1,,,,,
,,,,,,,$1510745171,2020-07-18_11h35.57.219,fisher_task,2020.1.3,MacIntel,60,-0.116436632,-0.262460937,1,0,0,1.981835,scale,,,,,,0.302267034,0.244948974,0.2468,0.2,stimuli/lakes/603037_left.png,stimuli/lakes/603037_right.png,,,,0,54,54,37,1,,,,,
,,,,,,,$1510745171,2020-07-18_11h35.57.219,fisher_task,2020.1.3,MacIntel,60,0.182395833,-0.375078125,1,0,0,1.499595,scale,,,,,,0.2468,0.2,0.302267034,0.244948974,stimuli/lakes/403035_left.png,stimuli/lakes/403035_right.png,,,,0,55,55,35,1,,,,,
,,,,,,,$1510745171,2020-07-18_11h35.57.219,fisher_task,2020.1.3,MacIntel,60,-0.177421875,-0.380889757,1,0,0,2.298875,scale,,,,,,0.275930788,0.223606798,0.275930788,0.223606798,stimuli/lakes/507093_left.png,stimuli/lakes/507093_right.png,,,,0,56,56,93,1,,,,,
,,,,,,,$1510745171,2020-07-18_11h35.57.219,fisher_task,2020.1.3,MacIntel,60,-0.037144097,-0.224618056,1,0,0,2.58203,scale,,,,,,0.3702,0.3,0.1234,0.1,stimuli/lakes/901010_left.png,stimuli/lakes/901010_right.png,,,,0,57,57,10,1,,,,,
,,,,,,,$1510745171,2020-07-18_11h35.57.219,fisher_task,2020.1.3,MacIntel,60,-0.101423611,-0.249166667,1,0,0,1.61543,scale,,,,,,0.349027907,0.282842712,0.174513954,0.141421356,stimuli/lakes/804048_left.png,stimuli/lakes/804048_right.png,,,,0,58,58,48,1,,,,,
,,,,,,,$1510745171,2020-07-18_11h35.57.219,fisher_task,2020.1.3,MacIntel,60,-0.104670139,-0.259982639,1,0,0,3.41576,scale,,,,,,0.302267034,0.244948974,0.2468,0.2,stimuli/lakes/604046_left.png,stimuli/lakes/604046_right.png,,,,0,59,59,46,1,,,,,
,,,,,,,$1510745171,2020-07-18_11h35.57.219,fisher_task,2020.1.3,MacIntel,60,-0.024865451,-0.220911458,1,0,0,2.1332,scale,,,,,,0.326485712,0.264575131,0.21373507,0.173205081,stimuli/lakes/70107_left.png,stimuli/lakes/70107_right.png,,,,0,60,60,7,1,,,,,
,,,,,,,$1510745171,2020-07-18_11h35.57.219,fisher_task,2020.1.3,MacIntel,60,-0.159648437,-0.343394097,1,0,0,3.216125,scale,,,,,,0.3702,0.3,0.1234,0.1,stimuli/lakes/906088_left.png,stimuli/lakes/906088_right.png,,,,0,61,61,88,1,,,,,
,,,,,,,$1510745171,2020-07-18_11h35.57.219,fisher_task,2020.1.3,MacIntel,60,0.172018229,-0.360863715,1,0,0,2.682755,scale,,,,,,0.174513954,0.141421356,0.349027907,0.282842712,stimuli/lakes/203033_left.png,stimuli/lakes/203033_right.png,,,,0,62,62,33,1,,,,,
,,,,,,,$1510745171,2020-07-18_11h35.57.219,fisher_task,2020.1.3,MacIntel,60,0.078615451,-0.256983507,1,0,0,2.89929,scale,,,,,,0.1234,0.1,0.3702,0.3,stimuli/lakes/106071_left.png,stimuli/lakes/106071_right.png,,,,0,63,63,71,1,,,,,
,,,,,,,$1510745171,2020-07-18_11h35.57.219,fisher_task,2020.1.3,MacIntel,60,-0.171506076,-0.347621528,1,0,0,2.116195,scale,,,,,,0.349027907,0.282842712,0.174513954,0.141421356,stimuli/lakes/807096_left.png,stimuli/lakes/807096_right.png,,,,0,64,64,96,1,,,,,
,,,,,,,$1510745171,2020-07-18_11h35.57.219,fisher_task,2020.1.3,MacIntel,60,-0.122113715,-0.286362847,1,0,0,2.04929,scale,,,,,,0.3702,0.3,0.1234,0.1,stimuli/lakes/903040_left.png,stimuli/lakes/903040_right.png,,,,0,65,65,40,1,,,,,
,,,,,,,$1510745171,2020-07-18_11h35.57.219,fisher_task,2020.1.3,MacIntel,60,-0.106341146,-0.266931424,1,0,0,2.416045,scale,,,,,,0.3702,0.3,0.1234,0.1,stimuli/lakes/904058_left.png,stimuli/lakes/904058_right.png,,,space,0,66,66,58,1,3.416895,,,,
,,,,,,,$1510745171,2020-07-18_11h35.57.219,fisher_task,2020.1.3,MacIntel,60,-0.153463542,-0.311180556,1,0,0,1.74919,scale,,,,,,0.349027907,0.282842712,0.174513954,0.141421356,stimuli/lakes/805069_left.png,stimuli/lakes/805069_right.png,,,,0,67,67,69,1,,,,,
,,,,,,,$1510745171,2020-07-18_11h35.57.219,fisher_task,2020.1.3,MacIntel,60,-0.038706597,-0.225017361,1,0,0,2.64919,scale,,,,,,0.326485712,0.264575131,0.21373507,0.173205081,stimuli/lakes/702019_left.png,stimuli/lakes/702019_right.png,,,,0,68,68,19,1,,,,,
,,,,,,,$1510745171,2020-07-18_11h35.57.219,fisher_task,2020.1.3,MacIntel,60,0.159075521,-0.330047743,1,0,0,5.21615,scale,,,,,,0.2468,0.2,0.302267034,0.244948974,stimuli/lakes/405063_left.png,stimuli/lakes/405063_right.png,,,,0,69,69,63,1,,,,,
,,,,,,,$1510745171,2020-07-18_11h35.57.219,fisher_task,2020.1.3,MacIntel,60,0.182491319,-0.405342882,1,0,0,1.46605,scale,,,,,,0.1234,0.1,0.3702,0.3,stimuli/lakes/103023_left.png,stimuli/lakes/103023_right.png,,,,0,70,70,23,1,,,,,
,,,,,,,$1510745171,2020-07-18_11h35.57.219,fisher_task,2020.1.3,MacIntel,60,-0.178949653,-0.37077691,1,0,0,3.099225,scale,,,,,,0.302267034,0.244948974,0.2468,0.2,stimuli/lakes/6070103_left.png,stimuli/lakes/6070103_right.png,,,,0,71,71,103,1,,,,,
,,,,,,,$1510745171,2020-07-18_11h35.57.219,fisher_task,2020.1.3,MacIntel,60,-0.181219618,-0.377664931,1,0,0,1.966585,scale,,,,,,0.302267034,0.244948974,0.2468,0.2,stimuli/lakes/605066_left.png,stimuli/lakes/605066_right.png,,,,0,72,72,66,1,,,,,
,,,,,,,$1510745171,2020-07-18_11h35.57.219,fisher_task,2020.1.3,MacIntel,60,-0.161106771,-0.331914062,1,0,0,2.899525,scale,,,,,,0.3702,0.3,0.1234,0.1,stimuli/lakes/904049_left.png,stimuli/lakes/904049_right.png,,,,0,73,73,49,1,,,,,
,,,,,,,$1510745171,2020-07-18_11h35.57.219,fisher_task,2020.1.3,MacIntel,60,0.018415799,-0.224466146,1,0,0,4.116555,scale,,,,,,0.2468,0.2,0.302267034,0.244948974,stimuli/lakes/4080112_left.png,stimuli/lakes/4080112_right.png,,,,0,74,74,112,1,,,,,
,,,,,,,$1510745171,2020-07-18_11h35.57.219,fisher_task,2020.1.3,MacIntel,60,0.014292535,-0.221996528,1,0,0,1.416185,scale,,,,,,0.2468,0.2,0.302267034,0.244948974,stimuli/lakes/406074_left.png,stimuli/lakes/406074_right.png,,,,0,75,75,74,1,,,,,
,,,,,,,$1510745171,2020-07-18_11h35.57.219,fisher_task,2020.1.3,MacIntel,60,0.188645833,-0.403307292,1,0,0,1.66618,scale,,,,,,0.275930788,0.223606798,0.275930788,0.223606798,stimuli/lakes/50104_left.png,stimuli/lakes/50104_right.png,,,,0,76,76,4,1,,,,,
,,,,,,,$1510745171,2020-07-18_11h35.57.219,fisher_task,2020.1.3,MacIntel,60,-0.160920139,-0.406671007,1,0,0,1.59923,scale,,,,,,0.326485712,0.264575131,0.21373507,0.173205081,stimuli/lakes/706086_left.png,stimuli/lakes/706086_right.png,,,,0,77,77,86,1,,,,,
,,,,,,,$1510745171,2020-07-18_11h35.57.219,fisher_task,2020.1.3,MacIntel,60,0.050069444,-0.233684896,1,0,0,2.683925,scale,,,,,,0.1234,0.1,0.3702,0.3,stimuli/lakes/107098_left.png,stimuli/lakes/107098_right.png,,,,0,78,78,98,1,,,,,
,,,,,,,$1510745171,2020-07-18_11h35.57.219,fisher_task,2020.1.3,MacIntel,60,-0.150217014,-0.312534722,1,0,0,3.349415,scale,,,,,,0.326485712,0.264575131,0.21373507,0.173205081,stimuli/lakes/704056_left.png,stimuli/lakes/704056_right.png,,,,0,79,79,56,1,,,,,
,,,,,,,$1510745171,2020-07-18_11h35.57.219,fisher_task,2020.1.3,MacIntel,60,0.188897569,-0.423046875,1,0,0,1.565,scale,,,,,,0.2468,0.2,0.302267034,0.244948974,stimuli/lakes/402014_left.png,stimuli/lakes/402014_right.png,,,,0,80,80,14,1,,,,,
,,,,,,,$1510745171,2020-07-18_11h35.57.219,fisher_task,2020.1.3,MacIntel,60,0.049179687,-0.225013021,1,0,0,4.032975,scale,,,,,,0.326485712,0.264575131,0.21373507,0.173205081,stimuli/lakes/70108_left.png,stimuli/lakes/70108_right.png,,,,0,81,81,8,1,,,,,
,,,,,,,$1510745171,2020-07-18_11h35.57.219,fisher_task,2020.1.3,MacIntel,60,0.183841146,-0.411484375,1,0,0,4.86608,scale,,,,,,0.275930788,0.223606798,0.275930788,0.223606798,stimuli/lakes/504045_left.png,stimuli/lakes/504045_right.png,,,,0,82,82,45,1,,,,,
,,,,,,,$1510745171,2020-07-18_11h35.57.219,fisher_task,2020.1.3,MacIntel,60,-0.095390625,-0.249804688,1,0,0,2.16653,scale,,,,,,0.326485712,0.264575131,0.21373507,0.173205081,stimuli/lakes/702020_left.png,stimuli/lakes/702020_right.png,,,,0,83,83,20,1,,,,,
,,,,,,,$1510745171,2020-07-18_11h35.57.219,fisher_task,2020.1.3,MacIntel,60,0.177113715,-0.423723958,1,0,0,1.766,scale,,,,,,0.2468,0.2,0.302267034,0.244948974,stimuli/lakes/40103_left.png,stimuli/lakes/40103_right.png,,,,0,84,84,3,1,,,,,
,,,,,,,$1510745171,2020-07-18_11h35.57.219,fisher_task,2020.1.3,MacIntel,60,0.019739583,-0.221263021,1,0,0,2.99952,scale,,,,,,0.1234,0.1,0.3702,0.3,stimuli/lakes/1080107_left.png,stimuli/lakes/1080107_right.png,,,,0,85,85,107,1,,,,,
,,,,,,,$1510745171,2020-07-18_11h35.57.219,fisher_task,2020.1.3,MacIntel,60,0.114665799,-0.308428819,1,0,0,2.84954,scale,,,,,,0.174513954,0.141421356,0.349027907,0.282842712,stimuli/lakes/204042_left.png,stimuli/lakes/204042_right.png,,,,0,86,86,42,1,,,,,
,,,,,,,$1510745171,2020-07-18_11h35.57.219,fisher_task,2020.1.3,MacIntel,60,-0.18452691,-0.426770833,1,0,0,1.315865,scale,,,,,,0.349027907,0.282842712,0.174513954,0.141421356,stimuli/lakes/8080118_left.png,stimuli/lakes/8080118_right.png,,,,0,87,87,118,1,,,,,
,,,,,,,$1510745171,2020-07-18_11h35.57.219,fisher_task,2020.1.3,MacIntel,60,0.174322917,-0.384874132,1,0,0,2.766545,scale,,,,,,0.1234,0.1,0.3702,0.3,stimuli/lakes/104041_left.png,stimuli/lakes/104041_right.png,,,space,0,88,88,41,1,4.12038,,,,
,,,,,,,$1510745171,2020-07-18_11h35.57.219,fisher_task,2020.1.3,MacIntel,60,-0.163897569,-0.413767361,1,0,0,1.233615,scale,,,,,,0.302267034,0.244948974,0.2468,0.2,stimuli/lakes/606076_left.png,stimuli/lakes/606076_right.png,,,,0,89,89,76,1,,,,,
,,,,,,,$1510745171,2020-07-18_11h35.57.219,fisher_task,2020.1.3,MacIntel,60,-0.137682292,-0.296992188,1,0,0,2.282895,scale,,,,,,0.349027907,0.282842712,0.174513954,0.141421356,stimuli/lakes/804057_left.png,stimuli/lakes/804057_right.png,,,,0,90,90,57,1,,,,,
,,,,,,,$1510745171,2020-07-18_11h35.57.219,fisher_task,2020.1.3,MacIntel,60,0.175251736,-0.438415799,1,0,0,2.21476,scale,,,,,,0.21373507,0.173205081,0.326485712,0.264575131,stimuli/lakes/30101_left.png,stimuli/lakes/30101_right.png,,,,0,91,91,1,1,,,,,
,,,,,,,$1510745171,2020-07-18_11h35.57.219,fisher_task,2020.1.3,MacIntel,60,0.172947049,-0.391362847,1,0,0,1.483235,scale,,,,,,0.174513954,0.141421356,0.349027907,0.282842712,stimuli/lakes/204051_left.png,stimuli/lakes/204051_right.png,,,,0,92,92,51,1,,,,,
,,,,,,,$1510745171,2020-07-18_11h35.57.219,fisher_task,2020.1.3,MacIntel,60,-0.166163194,-0.407465278,1,0,0,1.316295,scale,,,,,,0.326485712,0.264575131,0.21373507,0.173205081,stimuli/lakes/7090128_left.png,stimuli/lakes/7090128_right.png,,,,0,93,93,128,1,,,,,
,,,,,,,$1510745171,2020-07-18_11h35.57.219,fisher_task,2020.1.3,MacIntel,60,0.02328559,-0.236002604,1,0,0,2.80042,scale,,,,,,0.21373507,0.173205081,0.326485712,0.264575131,stimuli/lakes/3070100_left.png,stimuli/lakes/3070100_right.png,,,,0,94,94,100,1,,,,,
,,,,,,,$1510745171,2020-07-18_11h35.57.219,fisher_task,2020.1.3,MacIntel,60,0.14702691,-0.356419271,1,0,0,1.532875,scale,,,,,,0.2468,0.2,0.302267034,0.244948974,stimuli/lakes/402015_left.png,stimuli/lakes/402015_right.png,,,,0,95,95,15,1,,,,,
,,,,,,,$1510745171,2020-07-18_11h35.57.219,fisher_task,2020.1.3,MacIntel,60,0.14859375,-0.339383681,1,0,0,1.882575,scale,,,,,,0.2468,0.2,0.302267034,0.244948974,stimuli/lakes/404044_left.png,stimuli/lakes/404044_right.png,,,,0,96,96,44,1,,,,,
,,,,,,,$1510745171,2020-07-18_11h35.57.219,fisher_task,2020.1.3,MacIntel,60,0.13437934,-0.326796875,1,0,0,1.43244,scale,,,,,,0.21373507,0.173205081,0.326485712,0.264575131,stimuli/lakes/303025_left.png,stimuli/lakes/303025_right.png,,,,0,97,97,25,1,,,,,
,,,,,,,$1510745171,2020-07-18_11h35.57.219,fisher_task,2020.1.3,MacIntel,60,-0.185746528,-0.398585069,1,0,0,1.465965,scale,,,,,,0.275930788,0.223606798,0.275930788,0.223606798,stimuli/lakes/5090125_left.png,stimuli/lakes/5090125_right.png,,,,0,98,98,125,1,,,,,
,,,,,,,$1510745171,2020-07-18_11h35.57.219,fisher_task,2020.1.3,MacIntel,60,-0.184435764,-0.397261285,1,0,0,1.2992,scale,,,,,,0.326485712,0.264575131,0.21373507,0.173205081,stimuli/lakes/7090129_left.png,stimuli/lakes/7090129_right.png,,,,0,99,99,129,1,,,,,
,,,,,,,$1510745171,2020-07-18_11h35.57.219,fisher_task,2020.1.3,MacIntel,60,-0.164635417,-0.336267361,1,0,0,1.532675,scale,,,,,,0.275930788,0.223606798,0.275930788,0.223606798,stimuli/lakes/506084_left.png,stimuli/lakes/506084_right.png,,,,0,100,100,84,1,,,,,
,,,,,,,$1510745171,2020-07-18_11h35.57.219,fisher_task,2020.1.3,MacIntel,60,0.052400174,-0.246310764,1,0,0,2.24892,scale,,,,,,0.174513954,0.141421356,0.349027907,0.282842712,stimuli/lakes/206072_left.png,stimuli/lakes/206072_right.png,,,,0,101,101,72,1,,,,,
,,,,,,,$1510745171,2020-07-18_11h35.57.219,fisher_task,2020.1.3,MacIntel,60,-0.130182292,-0.30141059,1,0,0,1.86667,scale,,,,,,0.326485712,0.264575131,0.21373507,0.173205081,stimuli/lakes/7070104_left.png,stimuli/lakes/7070104_right.png,,,,0,102,102,104,1,,,,,
,,,,,,,$1510745171,2020-07-18_11h35.57.219,fisher_task,2020.1.3,MacIntel,60,-0.088190104,-0.275607639,1,0,0,1.64979,scale,,,,,,0.326485712,0.264575131,0.21373507,0.173205081,stimuli/lakes/704047_left.png,stimuli/lakes/704047_right.png,,,,0,103,103,47,1,,,,,
,,,,,,,$1510745171,2020-07-18_11h35.57.219,fisher_task,2020.1.3,MacIntel,60,0.061757813,-0.238519965,1,0,0,3.24858,scale,,,,,,0.2468,0.2,0.302267034,0.244948974,stimuli/lakes/406083_left.png,stimuli/lakes/406083_right.png,,,,0,104,104,83,1,,,,,
,,,,,,,$1510745171,2020-07-18_11h35.57.219,fisher_task,2020.1.3,MacIntel,60,0.027087674,-0.229830729,1,0,0,2.548815,scale,,,,,,0.21373507,0.173205081,0.326485712,0.264575131,stimuli/lakes/307091_left.png,stimuli/lakes/307091_right.png,,,,0,105,105,91,1,,,,,
,,,,,,,$1510745171,2020-07-18_11h35.57.219,fisher_task,2020.1.3,MacIntel,60,-0.151111111,-0.334861111,1,0,0,2.24935,scale,,,,,,0.349027907,0.282842712,0.174513954,0.141421356,stimuli/lakes/8070105_left.png,stimuli/lakes/8070105_right.png,,,,0,106,106,105,1,,,,,
,,,,,,,$1510745171,2020-07-18_11h35.57.219,fisher_task,2020.1.3,MacIntel,60,-0.186835937,-0.379171007,1,0,0,1.21616,scale,,,,,,0.275930788,0.223606798,0.275930788,0.223606798,stimuli/lakes/5070102_left.png,stimuli/lakes/5070102_right.png,,,,0,107,107,102,1,,,,,
,,,,,,,$1510745171,2020-07-18_11h35.57.219,fisher_task,2020.1.3,MacIntel,60,0.169713542,-0.401636285,1,0,0,1.50008,scale,,,,,,0.21373507,0.173205081,0.326485712,0.264575131,stimuli/lakes/302012_left.png,stimuli/lakes/302012_right.png,,,,0,108,108,12,1,,,,,
,,,,,,,$1510745171,2020-07-18_11h35.57.219,fisher_task,2020.1.3,MacIntel,60,0.151736111,-0.327491319,1,0,0,3.766,scale,,,,,,0.21373507,0.173205081,0.326485712,0.264575131,stimuli/lakes/305061_left.png,stimuli/lakes/305061_right.png,,,,0,109,109,61,1,,,,,
,,,,,,,$1510745171,2020-07-18_11h35.57.219,fisher_task,2020.1.3,MacIntel,60,-0.069804688,-0.250277778,1,0,0,2.9163,scale,,,,,,0.349027907,0.282842712,0.174513954,0.141421356,stimuli/lakes/803030_left.png,stimuli/lakes/803030_right.png,,,space,0,110,110,30,1,1.866935,,,,
,,,,,,,$1510745171,2020-07-18_11h35.57.219,fisher_task,2020.1.3,MacIntel,60,0.105872396,-0.262048611,1,0,0,7.01609,scale,,,,,,0.174513954,0.141421356,0.349027907,0.282842712,stimuli/lakes/207090_left.png,stimuli/lakes/207090_right.png,,,,0,111,111,90,1,,,,,
,,,,,,,$1510745171,2020-07-18_11h35.57.219,fisher_task,2020.1.3,MacIntel,60,-0.07266059,-0.241866319,1,0,0,1.53302,scale,,,,,,0.275930788,0.223606798,0.275930788,0.223606798,stimuli/lakes/503036_left.png,stimuli/lakes/503036_right.png,,,,0,112,112,36,1,,,,,
,,,,,,,$1510745171,2020-07-18_11h35.57.219,fisher_task,2020.1.3,MacIntel,60,-0.07266059,-0.241866319,1,0,0,1.666085,scale,,,,,,0.3702,0.3,0.1234,0.1,stimuli/lakes/902022_left.png,stimuli/lakes/902022_right.png,,,,0,113,113,22,1,,,,,
,,,,,,,$1510745171,2020-07-18_11h35.57.219,fisher_task,2020.1.3,MacIntel,60,0.137309028,-0.288177083,1,0,0,3.465995,scale,,,,,,0.21373507,0.173205081,0.326485712,0.264575131,stimuli/lakes/305062_left.png,stimuli/lakes/305062_right.png,,,,0,114,114,62,1,,,,,
,,,,,,,$1510745171,2020-07-18_11h35.57.219,fisher_task,2020.1.3,MacIntel,60,-0.133020833,-0.290277778,1,0,0,2.416115,scale,,,,,,0.349027907,0.282842712,0.174513954,0.141421356,stimuli/lakes/803039_left.png,stimuli/lakes/803039_right.png,,,,0,115,115,39,1,,,,,
,,,,,,,$1510745171,2020-07-18_11h35.57.219,fisher_task,2020.1.3,MacIntel,60,0.041297743,-0.236892361,1,0,0,3.11616,scale,,,,,,0.174513954,0.141421356,0.349027907,0.282842712,stimuli/lakes/2080108_left.png,stimuli/lakes/2080108_right.png,,,,0,116,116,108,1,,,,,
,,,,,,,$1510745171,2020-07-18_11h35.57.219,fisher_task,2020.1.3,MacIntel,60,-0.044136285,-0.231432292,1,0,0,2.18378,scale,,,,,,0.349027907,0.282842712,0.174513954,0.141421356,stimuli/lakes/802021_left.png,stimuli/lakes/802021_right.png,,,,0,117,117,21,1,,,,,
,,,,,,,$1510745171,2020-07-18_11h35.57.219,fisher_task,2020.1.3,MacIntel,60,-0.052491319,-0.233841146,1,0,0,1.66522,scale,,,,,,0.326485712,0.264575131,0.21373507,0.173205081,stimuli/lakes/703038_left.png,stimuli/lakes/703038_right.png,,,,0,118,118,38,1,,,,,
,,,,,,,$1510745171,2020-07-18_11h35.57.219,fisher_task,2020.1.3,MacIntel,60,0.171948785,-0.383081597,1,0,0,1.7495,scale,,,,,,0.1234,0.1,0.3702,0.3,stimuli/lakes/105059_left.png,stimuli/lakes/105059_right.png,,,,0,119,119,59,1,,,,,
,,,,,,,$1510745171,2020-07-18_11h35.57.219,fisher_task,2020.1.3,MacIntel,60,0.026050347,-0.217083333,1,0,0,3.416005,scale,,,,,,0.21373507,0.173205081,0.326485712,0.264575131,stimuli/lakes/3090121_left.png,stimuli/lakes/3090121_right.png,,,,0,120,120,121,1,,,,,
,,,,,,,$1510745171,2020-07-18_11h35.57.219,fisher_task,2020.1.3,MacIntel,60,-0.138532986,-0.371206597,1,0,0,1.998775,scale,,,,,,0.302267034,0.244948974,0.2468,0.2,stimuli/lakes/6080115_left.png,stimuli/lakes/6080115_right.png,,,,0,121,121,115,1,,,,,
,,,,,,,$1510745171,2020-07-18_11h35.57.219,fisher_task,2020.1.3,MacIntel,60,-0.175,-0.413224826,1,0,0,1.332535,scale,,,,,,0.349027907,0.282842712,0.174513954,0.141421356,stimuli/lakes/806078_left.png,stimuli/lakes/806078_right.png,,,,0,122,122,78,1,,,,,
,,,,,,,$1510745171,2020-07-18_11h35.57.219,fisher_task,2020.1.3,MacIntel,60,0.047647569,-0.229496528,1,0,0,9.016165,scale,,,,,,0.2468,0.2,0.302267034,0.244948974,stimuli/lakes/4070101_left.png,stimuli/lakes/4070101_right.png,,,,0,123,123,101,1,,,,,
,,,,,,,$1510745171,2020-07-18_11h35.57.219,fisher_task,2020.1.3,MacIntel,60,0.080863715,-0.243376736,1,0,0,1.83301,scale,,,,,,0.21373507,0.173205081,0.326485712,0.264575131,stimuli/lakes/3090122_left.png,stimuli/lakes/3090122_right.png,,,,0,124,124,122,1,,,,,
,,,,,,,$1510745171,2020-07-18_11h35.57.219,fisher_task,2020.1.3,MacIntel,60,-0.184713542,-0.428016493,1,0,0,1.79921,scale,,,,,,0.3702,0.3,0.1234,0.1,stimuli/lakes/9070106_left.png,stimuli/lakes/9070106_right.png,,,,0,125,125,106,1,,,,,
,,,,,,,$1510745171,2020-07-18_11h35.57.219,fisher_task,2020.1.3,MacIntel,60,-0.003923611,-0.265685764,1,0,0,3.41644,scale,,,,,,0.2468,0.2,0.302267034,0.244948974,stimuli/lakes/405064_left.png,stimuli/lakes/405064_right.png,,,,0,126,126,64,1,,,,,
,,,,,,,$1510745171,2020-07-18_11h35.57.219,fisher_task,2020.1.3,MacIntel,60,0.037899306,-0.256844618,1,0,0,2.79942,scale,,,,,,0.174513954,0.141421356,0.349027907,0.282842712,stimuli/lakes/206081_left.png,stimuli/lakes/206081_right.png,,,,0,127,127,81,1,,,,,
,,,,,,,$1510745171,2020-07-18_11h35.57.219,fisher_task,2020.1.3,MacIntel,60,-0.184900174,-0.427300347,1,0,0,2.115885,scale,,,,,,0.302267034,0.244948974,0.2468,0.2,stimuli/lakes/6090126_left.png,stimuli/lakes/6090126_right.png,,,,0,128,128,126,1,,,,,
,,,,,,,$1510745171,2020-07-18_11h35.57.219,fisher_task,2020.1.3,MacIntel,60,0.028832465,-0.23765625,1,0,0,1.6163,scale,,,,,,0.2468,0.2,0.302267034,0.244948974,stimuli/lakes/4080111_left.png,stimuli/lakes/4080111_right.png,,,,0,129,129,111,1,,,,,
,,,,,,,$1510745171,2020-07-18_11h35.57.219,fisher_task,2020.1.3,MacIntel,60,,,,,,,,,,,,,,,,,,,,,,,,,,,,space,3.14801,space,13.497135
