keySpace.keys,instructions.thisRepN,instructions.thisTrialN,instructions.thisN,instructions.thisIndex,instructions.ran,participant,date,expName,psychopyVersion,OS,frameRate,mouse.x,mouse.y,mouse.leftButton,mouse.midButton,mouse.rightButton,mouse.time,mouse.clicked_name,training.thisRepN,training.thisTrialN,training.thisN,training.thisIndex,training.ran,widthBasketLeft,heightBasketLeft,widthBasketRight,heightBasketRight,leftLake,rightLake,space2.keys,space2.rt,space1.keys,trials.thisRepN,trials.thisTrialN,trials.thisN,trials.thisIndex,trials.ran,space1.rt,finalSpace1.keys,finalSpace1.rt,finalSpace2.keys,finalSpace2.rt
,0,0,0,0,1,$5998093575,2020-07-18_22h28.14.312,fisher_task,2020.1.3,Win32,60,,,,,,,,,,,,,,,,,,,,,,,,,,,,,,,
,,,,,,$5998093575,2020-07-18_22h28.14.312,fisher_task,2020.1.3,Win32,60,0.152777778,-0.427777778,1,0,0,3.697,scale,0,0,0,0,1,0.275930788,0.223606798,0.275930788,0.223606798,stimuli/training/20_left.png,stimuli/training/20_right.png,,,,,,,,,,,,,
,,,,,,$5998093575,2020-07-18_22h28.14.312,fisher_task,2020.1.3,Win32,60,-0.154166667,-0.405555556,1,0,0,4.314,scale,0,1,1,1,1,0.275930788,0.223606798,0.275930788,0.223606798,stimuli/training/80_left.png,stimuli/training/80_right.png,,,,,,,,,,,,,
,,,,,,$5998093575,2020-07-18_22h28.14.312,fisher_task,2020.1.3,Win32,60,0.15,-0.35,1,0,0,3.815,scale,0,2,2,2,1,0.174513954,0.141421356,0.349027907,0.282842712,stimuli/training/50_left.png,stimuli/training/50_right.png,,,,,,,,,,,,,
,,,,,,$5998093575,2020-07-18_22h28.14.312,fisher_task,2020.1.3,Win32,60,0.0375,-0.255555556,1,0,0,3.163,scale,0,3,3,3,1,0.349027907,0.282842712,0.174513954,0.141421356,stimuli/training/50_left.png,stimuli/training/50_right.png,,,,,,,,,,,,,
,,,,,,$5998093575,2020-07-18_22h28.14.312,fisher_task,2020.1.3,Win32,60,-0.079166667,-0.269444444,1,0,0,3.819,scale,0,4,4,4,1,0.275930788,0.223606798,0.275930788,0.223606798,stimuli/training/50_left.png,stimuli/training/50_right.png,,,,,,,,,,,,,
,,,,,,$5998093575,2020-07-18_22h28.14.312,fisher_task,2020.1.3,Win32,60,0.170833333,-0.422222222,1,0,0,2.082,scale,0,5,5,5,1,0.174513954,0.141421356,0.349027907,0.282842712,stimuli/training/20_left.png,stimuli/training/20_right.png,,,,,,,,,,,,,
,,,,,,$5998093575,2020-07-18_22h28.14.312,fisher_task,2020.1.3,Win32,60,-0.161111111,-0.426388889,1,0,0,1.848,scale,0,6,6,6,1,0.349027907,0.282842712,0.174513954,0.141421356,stimuli/training/80_left.png,stimuli/training/80_right.png,,,,,,,,,,,,,
,,,,,,$5998093575,2020-07-18_22h28.14.312,fisher_task,2020.1.3,Win32,60,0.154166667,-0.418055556,1,0,0,1.599,scale,0,7,7,7,1,0.1234,0.1,0.3702,0.3,stimuli/training/30_left.png,stimuli/training/30_right.png,,,,,,,,,,,,,
,,,,,,$5998093575,2020-07-18_22h28.14.312,fisher_task,2020.1.3,Win32,60,-0.156944444,-0.4,1,0,0,1.848,scale,0,8,8,8,1,0.3702,0.3,0.1234,0.1,stimuli/training/70_left.png,stimuli/training/70_right.png,,,,,,,,,,,,,
,,,,,,$5998093575,2020-07-18_22h28.14.312,fisher_task,2020.1.3,Win32,60,-0.168055556,-0.4125,1,0,0,1.609,scale,0,9,9,9,1,0.326485712,0.264575131,0.21373507,0.173205081,stimuli/training/90_left.png,stimuli/training/90_right.png,,,,,,,,,,,,,
,,,,,,$5998093575,2020-07-18_22h28.14.312,fisher_task,2020.1.3,Win32,60,0.156944444,-0.4,1,0,0,1.498,scale,0,10,10,10,1,0.21373507,0.173205081,0.326485712,0.264575131,stimuli/training/10_left.png,stimuli/training/10_right.png,,,,,,,,,,,,,
,,,,,,$5998093575,2020-07-18_22h28.14.312,fisher_task,2020.1.3,Win32,60,0.169444444,-0.425,1,0,0,1.627,scale,,,,,,0.275930788,0.223606798,0.275930788,0.223606798,stimuli/lakes/503036_left.png,stimuli/lakes/503036_right.png,space,10.36,,0,0,0,36,1,,,,,
,,,,,,$5998093575,2020-07-18_22h28.14.312,fisher_task,2020.1.3,Win32,60,-0.179166667,-0.419444444,1,0,0,1.666,scale,,,,,,0.1234,0.1,0.3702,0.3,stimuli/lakes/1090119_left.png,stimuli/lakes/1090119_right.png,,,,0,1,1,119,1,,,,,
,,,,,,$5998093575,2020-07-18_22h28.14.312,fisher_task,2020.1.3,Win32,60,0.159722222,-0.418055556,1,0,0,1.832,scale,,,,,,0.302267034,0.244948974,0.2468,0.2,stimuli/lakes/60105_left.png,stimuli/lakes/60105_right.png,,,,0,2,2,5,1,,,,,
,,,,,,$5998093575,2020-07-18_22h28.14.312,fisher_task,2020.1.3,Win32,60,0.159722222,-0.418055556,1,0,0,0.825,scale,,,,,,0.174513954,0.141421356,0.349027907,0.282842712,stimuli/lakes/203033_left.png,stimuli/lakes/203033_right.png,,,,0,3,3,33,1,,,,,
,,,,,,$5998093575,2020-07-18_22h28.14.312,fisher_task,2020.1.3,Win32,60,0.159722222,-0.418055556,1,0,0,1.161,scale,,,,,,0.326485712,0.264575131,0.21373507,0.173205081,stimuli/lakes/702019_left.png,stimuli/lakes/702019_right.png,,,,0,4,4,19,1,,,,,
,,,,,,$5998093575,2020-07-18_22h28.14.312,fisher_task,2020.1.3,Win32,60,0.143055556,-0.355555556,1,0,0,3.11,scale,,,,,,0.302267034,0.244948974,0.2468,0.2,stimuli/lakes/604046_left.png,stimuli/lakes/604046_right.png,,,,0,5,5,46,1,,,,,
,,,,,,$5998093575,2020-07-18_22h28.14.312,fisher_task,2020.1.3,Win32,60,-0.145833333,-0.420833333,1,0,0,1.69,scale,,,,,,0.326485712,0.264575131,0.21373507,0.173205081,stimuli/lakes/707095_left.png,stimuli/lakes/707095_right.png,,,,0,6,6,95,1,,,,,
,,,,,,$5998093575,2020-07-18_22h28.14.312,fisher_task,2020.1.3,Win32,60,-0.145833333,-0.420833333,1,0,0,1.321,scale,,,,,,0.21373507,0.173205081,0.326485712,0.264575131,stimuli/lakes/306082_left.png,stimuli/lakes/306082_right.png,,,,0,7,7,82,1,,,,,
,,,,,,$5998093575,2020-07-18_22h28.14.312,fisher_task,2020.1.3,Win32,60,-0.141666667,-0.3875,1,0,0,3.032,scale,,,,,,0.275930788,0.223606798,0.275930788,0.223606798,stimuli/lakes/506084_left.png,stimuli/lakes/506084_right.png,,,,0,8,8,84,1,,,,,
,,,,,,$5998093575,2020-07-18_22h28.14.312,fisher_task,2020.1.3,Win32,60,-0.131944444,-0.3125,1,0,0,5.447,scale,,,,,,0.21373507,0.173205081,0.326485712,0.264575131,stimuli/lakes/305062_left.png,stimuli/lakes/305062_right.png,,,,0,9,9,62,1,,,,,
,,,,,,$5998093575,2020-07-18_22h28.14.312,fisher_task,2020.1.3,Win32,60,0.179166667,-0.415277778,1,0,0,1.833,scale,,,,,,0.275930788,0.223606798,0.275930788,0.223606798,stimuli/lakes/50104_left.png,stimuli/lakes/50104_right.png,,,,0,10,10,4,1,,,,,
,,,,,,$5998093575,2020-07-18_22h28.14.312,fisher_task,2020.1.3,Win32,60,-0.140277778,-0.375,1,0,0,2.515,scale,,,,,,0.174513954,0.141421356,0.349027907,0.282842712,stimuli/lakes/206072_left.png,stimuli/lakes/206072_right.png,,,,0,11,11,72,1,,,,,
,,,,,,$5998093575,2020-07-18_22h28.14.312,fisher_task,2020.1.3,Win32,60,0.168055556,-0.4125,1,0,0,1.533,scale,,,,,,0.21373507,0.173205081,0.326485712,0.264575131,stimuli/lakes/302012_left.png,stimuli/lakes/302012_right.png,,,,0,12,12,12,1,,,,,
,,,,,,$5998093575,2020-07-18_22h28.14.312,fisher_task,2020.1.3,Win32,60,0.168055556,-0.4125,1,0,0,0.783,scale,,,,,,0.349027907,0.282842712,0.174513954,0.141421356,stimuli/lakes/80109_left.png,stimuli/lakes/80109_right.png,,,,0,13,13,9,1,,,,,
,,,,,,$5998093575,2020-07-18_22h28.14.312,fisher_task,2020.1.3,Win32,60,-0.170833333,-0.406944444,1,0,0,1.835,scale,,,,,,0.3702,0.3,0.1234,0.1,stimuli/lakes/906088_left.png,stimuli/lakes/906088_right.png,,,,0,14,14,88,1,,,,,
,,,,,,$5998093575,2020-07-18_22h28.14.312,fisher_task,2020.1.3,Win32,60,0.154166667,-0.413888889,1,0,0,1.69,scale,,,,,,0.21373507,0.173205081,0.326485712,0.264575131,stimuli/lakes/302013_left.png,stimuli/lakes/302013_right.png,,,,0,15,15,13,1,,,,,
,,,,,,$5998093575,2020-07-18_22h28.14.312,fisher_task,2020.1.3,Win32,60,-0.154166667,-0.415277778,1,0,0,2.082,scale,,,,,,0.2468,0.2,0.302267034,0.244948974,stimuli/lakes/4070101_left.png,stimuli/lakes/4070101_right.png,,,,0,16,16,101,1,,,,,
,,,,,,$5998093575,2020-07-18_22h28.14.312,fisher_task,2020.1.3,Win32,60,-0.154166667,-0.415277778,1,0,0,1.407,scale,,,,,,0.275930788,0.223606798,0.275930788,0.223606798,stimuli/lakes/5070102_left.png,stimuli/lakes/5070102_right.png,,,,0,17,17,102,1,,,,,
,,,,,,$5998093575,2020-07-18_22h28.14.312,fisher_task,2020.1.3,Win32,60,0.161111111,-0.395833333,1,0,0,1.732,scale,,,,,,0.326485712,0.264575131,0.21373507,0.173205081,stimuli/lakes/703038_left.png,stimuli/lakes/703038_right.png,,,,0,18,18,38,1,,,,,
,,,,,,$5998093575,2020-07-18_22h28.14.312,fisher_task,2020.1.3,Win32,60,0.172222222,-0.413888889,1,0,0,2.383,scale,,,,,,0.2468,0.2,0.302267034,0.244948974,stimuli/lakes/403035_left.png,stimuli/lakes/403035_right.png,,,,0,19,19,35,1,,,,,
,,,,,,$5998093575,2020-07-18_22h28.14.312,fisher_task,2020.1.3,Win32,60,-0.165277778,-0.397222222,1,0,0,1.965,scale,,,,,,0.326485712,0.264575131,0.21373507,0.173205081,stimuli/lakes/7080116_left.png,stimuli/lakes/7080116_right.png,,,,0,20,20,116,1,,,,,
,,,,,,$5998093575,2020-07-18_22h28.14.312,fisher_task,2020.1.3,Win32,60,-0.165277778,-0.397222222,1,0,0,1.373,scale,,,,,,0.2468,0.2,0.302267034,0.244948974,stimuli/lakes/4080112_left.png,stimuli/lakes/4080112_right.png,,,,0,21,21,112,1,,,,,
,,,,,,$5998093575,2020-07-18_22h28.14.312,fisher_task,2020.1.3,Win32,60,-0.158333333,-0.370833333,1,0,0,3.581,scale,,,,,,0.302267034,0.244948974,0.2468,0.2,stimuli/lakes/606085_left.png,stimuli/lakes/606085_right.png,,,space,0,22,22,85,1,4.961,,,,
,,,,,,$5998093575,2020-07-18_22h28.14.312,fisher_task,2020.1.3,Win32,60,0.169444444,-0.379166667,1,0,0,2.549,scale,,,,,,0.2468,0.2,0.302267034,0.244948974,stimuli/lakes/404044_left.png,stimuli/lakes/404044_right.png,,,,0,23,23,44,1,,,,,
,,,,,,$5998093575,2020-07-18_22h28.14.312,fisher_task,2020.1.3,Win32,60,0.169444444,-0.379166667,1,0,0,1.011,scale,,,,,,0.2468,0.2,0.302267034,0.244948974,stimuli/lakes/40103_left.png,stimuli/lakes/40103_right.png,,,,0,24,24,3,1,,,,,
,,,,,,$5998093575,2020-07-18_22h28.14.312,fisher_task,2020.1.3,Win32,60,0.169444444,-0.379166667,1,0,0,0.931,scale,,,,,,0.302267034,0.244948974,0.2468,0.2,stimuli/lakes/602018_left.png,stimuli/lakes/602018_right.png,,,,0,25,25,18,1,,,,,
,,,,,,$5998093575,2020-07-18_22h28.14.312,fisher_task,2020.1.3,Win32,60,0.176388889,-0.394444444,1,0,0,1.878,scale,,,,,,0.2468,0.2,0.302267034,0.244948974,stimuli/lakes/403026_left.png,stimuli/lakes/403026_right.png,,,,0,26,26,26,1,,,,,
,,,,,,$5998093575,2020-07-18_22h28.14.312,fisher_task,2020.1.3,Win32,60,-0.155555556,-0.391666667,1,0,0,1.888,scale,,,,,,0.174513954,0.141421356,0.349027907,0.282842712,stimuli/lakes/207099_left.png,stimuli/lakes/207099_right.png,,,,0,27,27,99,1,,,,,
,,,,,,$5998093575,2020-07-18_22h28.14.312,fisher_task,2020.1.3,Win32,60,0.168055556,-0.394444444,1,0,0,1.76,scale,,,,,,0.302267034,0.244948974,0.2468,0.2,stimuli/lakes/604055_left.png,stimuli/lakes/604055_right.png,,,,0,28,28,55,1,,,,,
,,,,,,$5998093575,2020-07-18_22h28.14.312,fisher_task,2020.1.3,Win32,60,0.168055556,-0.394444444,1,0,0,1.895,scale,,,,,,0.349027907,0.282842712,0.174513954,0.141421356,stimuli/lakes/804057_left.png,stimuli/lakes/804057_right.png,,,,0,29,29,57,1,,,,,
,,,,,,$5998093575,2020-07-18_22h28.14.312,fisher_task,2020.1.3,Win32,60,-0.166666667,-0.4125,1,0,0,1.981,scale,,,,,,0.326485712,0.264575131,0.21373507,0.173205081,stimuli/lakes/7080117_left.png,stimuli/lakes/7080117_right.png,,,,0,30,30,117,1,,,,,
,,,,,,$5998093575,2020-07-18_22h28.14.312,fisher_task,2020.1.3,Win32,60,0.163888889,-0.404166667,1,0,0,1.851,scale,,,,,,0.174513954,0.141421356,0.349027907,0.282842712,stimuli/lakes/202011_left.png,stimuli/lakes/202011_right.png,,,,0,31,31,11,1,,,,,
,,,,,,$5998093575,2020-07-18_22h28.14.312,fisher_task,2020.1.3,Win32,60,-0.148611111,-0.390277778,1,0,0,1.643,scale,,,,,,0.275930788,0.223606798,0.275930788,0.223606798,stimuli/lakes/507093_left.png,stimuli/lakes/507093_right.png,,,,0,32,32,93,1,,,,,
,,,,,,$5998093575,2020-07-18_22h28.14.312,fisher_task,2020.1.3,Win32,60,-0.127777778,-0.323611111,1,0,0,3.119,scale,,,,,,0.174513954,0.141421356,0.349027907,0.282842712,stimuli/lakes/205060_left.png,stimuli/lakes/205060_right.png,,,,0,33,33,60,1,,,,,
,,,,,,$5998093575,2020-07-18_22h28.14.312,fisher_task,2020.1.3,Win32,60,-0.1625,-0.347222222,1,0,0,1.834,scale,,,,,,0.3702,0.3,0.1234,0.1,stimuli/lakes/907097_left.png,stimuli/lakes/907097_right.png,,,,0,34,34,97,1,,,,,
,,,,,,$5998093575,2020-07-18_22h28.14.312,fisher_task,2020.1.3,Win32,60,0.170833333,-0.4125,1,0,0,1.574,scale,,,,,,0.21373507,0.173205081,0.326485712,0.264575131,stimuli/lakes/30100_left.png,stimuli/lakes/30100_right.png,,,,0,35,35,0,1,,,,,
,,,,,,$5998093575,2020-07-18_22h28.14.312,fisher_task,2020.1.3,Win32,60,-0.166666667,-0.420833333,1,0,0,1.559,scale,,,,,,0.21373507,0.173205081,0.326485712,0.264575131,stimuli/lakes/3090122_left.png,stimuli/lakes/3090122_right.png,,,,0,36,36,122,1,,,,,
,,,,,,$5998093575,2020-07-18_22h28.14.312,fisher_task,2020.1.3,Win32,60,-0.173611111,-0.368055556,1,0,0,2.556,scale,,,,,,0.275930788,0.223606798,0.275930788,0.223606798,stimuli/lakes/506075_left.png,stimuli/lakes/506075_right.png,,,,0,37,37,75,1,,,,,
,,,,,,$5998093575,2020-07-18_22h28.14.312,fisher_task,2020.1.3,Win32,60,-0.173611111,-0.368055556,1,0,0,1.058,scale,,,,,,0.349027907,0.282842712,0.174513954,0.141421356,stimuli/lakes/807096_left.png,stimuli/lakes/807096_right.png,,,,0,38,38,96,1,,,,,
,,,,,,$5998093575,2020-07-18_22h28.14.312,fisher_task,2020.1.3,Win32,60,0.181944444,-0.416666667,1,0,0,1.757,scale,,,,,,0.21373507,0.173205081,0.326485712,0.264575131,stimuli/lakes/30101_left.png,stimuli/lakes/30101_right.png,,,,0,39,39,1,1,,,,,
,,,,,,$5998093575,2020-07-18_22h28.14.312,fisher_task,2020.1.3,Win32,60,-0.140277778,-0.420833333,1,0,0,1.581,scale,,,,,,0.21373507,0.173205081,0.326485712,0.264575131,stimuli/lakes/3090121_left.png,stimuli/lakes/3090121_right.png,,,,0,40,40,121,1,,,,,
,,,,,,$5998093575,2020-07-18_22h28.14.312,fisher_task,2020.1.3,Win32,60,0.168055556,-0.405555556,1,0,0,1.533,scale,,,,,,0.275930788,0.223606798,0.275930788,0.223606798,stimuli/lakes/502016_left.png,stimuli/lakes/502016_right.png,,,,0,41,41,16,1,,,,,
,,,,,,$5998093575,2020-07-18_22h28.14.312,fisher_task,2020.1.3,Win32,60,0.168055556,-0.405555556,1,0,0,1.299,scale,,,,,,0.1234,0.1,0.3702,0.3,stimuli/lakes/103032_left.png,stimuli/lakes/103032_right.png,,,,0,42,42,32,1,,,,,
,,,,,,$5998093575,2020-07-18_22h28.14.312,fisher_task,2020.1.3,Win32,60,-0.165277778,-0.397222222,1,0,0,1.798,scale,,,,,,0.21373507,0.173205081,0.326485712,0.264575131,stimuli/lakes/306073_left.png,stimuli/lakes/306073_right.png,,,,0,43,43,73,1,,,,,
,,,,,,$5998093575,2020-07-18_22h28.14.312,fisher_task,2020.1.3,Win32,60,0.144444444,-0.338888889,1,0,0,2.94,scale,,,,,,0.326485712,0.264575131,0.21373507,0.173205081,stimuli/lakes/705068_left.png,stimuli/lakes/705068_right.png,,,space,0,44,44,68,1,5.899,,,,
,,,,,,$5998093575,2020-07-18_22h28.14.312,fisher_task,2020.1.3,Win32,60,0.156944444,-0.383333333,1,0,0,3.29,scale,,,,,,0.174513954,0.141421356,0.349027907,0.282842712,stimuli/lakes/204051_left.png,stimuli/lakes/204051_right.png,,,,0,45,45,51,1,,,,,
,,,,,,$5998093575,2020-07-18_22h28.14.312,fisher_task,2020.1.3,Win32,60,0.156944444,-0.383333333,1,0,0,2.322,scale,,,,,,0.275930788,0.223606798,0.275930788,0.223606798,stimuli/lakes/504045_left.png,stimuli/lakes/504045_right.png,,,,0,46,46,45,1,,,,,
,,,,,,$5998093575,2020-07-18_22h28.14.312,fisher_task,2020.1.3,Win32,60,0.156944444,-0.383333333,1,0,0,1.053,scale,,,,,,0.174513954,0.141421356,0.349027907,0.282842712,stimuli/lakes/203024_left.png,stimuli/lakes/203024_right.png,,,,0,47,47,24,1,,,,,
,,,,,,$5998093575,2020-07-18_22h28.14.312,fisher_task,2020.1.3,Win32,60,-0.151388889,-0.393055556,1,0,0,1.944,scale,,,,,,0.174513954,0.141421356,0.349027907,0.282842712,stimuli/lakes/206081_left.png,stimuli/lakes/206081_right.png,,,,0,48,48,81,1,,,,,
,,,,,,$5998093575,2020-07-18_22h28.14.312,fisher_task,2020.1.3,Win32,60,0.143055556,-0.398611111,1,0,0,1.881,scale,,,,,,0.349027907,0.282842712,0.174513954,0.141421356,stimuli/lakes/803039_left.png,stimuli/lakes/803039_right.png,,,,0,49,49,39,1,,,,,
,,,,,,$5998093575,2020-07-18_22h28.14.312,fisher_task,2020.1.3,Win32,60,-0.168055556,-0.390277778,1,0,0,1.693,scale,,,,,,0.21373507,0.173205081,0.326485712,0.264575131,stimuli/lakes/3080109_left.png,stimuli/lakes/3080109_right.png,,,,0,50,50,109,1,,,,,
,,,,,,$5998093575,2020-07-18_22h28.14.312,fisher_task,2020.1.3,Win32,60,-0.168055556,-0.390277778,1,0,0,0.869,scale,,,,,,0.326485712,0.264575131,0.21373507,0.173205081,stimuli/lakes/7090128_left.png,stimuli/lakes/7090128_right.png,,,,0,51,51,128,1,,,,,
,,,,,,$5998093575,2020-07-18_22h28.14.312,fisher_task,2020.1.3,Win32,60,0.140277778,-0.416666667,1,0,0,1.591,scale,,,,,,0.326485712,0.264575131,0.21373507,0.173205081,stimuli/lakes/70108_left.png,stimuli/lakes/70108_right.png,,,,0,52,52,8,1,,,,,
,,,,,,$5998093575,2020-07-18_22h28.14.312,fisher_task,2020.1.3,Win32,60,0.140277778,-0.416666667,1,0,0,1.685,scale,,,,,,0.3702,0.3,0.1234,0.1,stimuli/lakes/904058_left.png,stimuli/lakes/904058_right.png,,,,0,53,53,58,1,,,,,
,,,,,,$5998093575,2020-07-18_22h28.14.312,fisher_task,2020.1.3,Win32,60,0.148611111,-0.390277778,1,0,0,2.84,scale,,,,,,0.3702,0.3,0.1234,0.1,stimuli/lakes/905070_left.png,stimuli/lakes/905070_right.png,,,,0,54,54,70,1,,,,,
,,,,,,$5998093575,2020-07-18_22h28.14.312,fisher_task,2020.1.3,Win32,60,-0.1625,-0.395833333,1,0,0,1.618,scale,,,,,,0.2468,0.2,0.302267034,0.244948974,stimuli/lakes/406083_left.png,stimuli/lakes/406083_right.png,,,,0,55,55,83,1,,,,,
,,,,,,$5998093575,2020-07-18_22h28.14.312,fisher_task,2020.1.3,Win32,60,0.183333333,-0.423611111,1,0,0,1.593,scale,,,,,,0.21373507,0.173205081,0.326485712,0.264575131,stimuli/lakes/303025_left.png,stimuli/lakes/303025_right.png,,,,0,56,56,25,1,,,,,
,,,,,,$5998093575,2020-07-18_22h28.14.312,fisher_task,2020.1.3,Win32,60,-0.170833333,-0.406944444,1,0,0,1.683,scale,,,,,,0.349027907,0.282842712,0.174513954,0.141421356,stimuli/lakes/806087_left.png,stimuli/lakes/806087_right.png,,,,0,57,57,87,1,,,,,
,,,,,,$5998093575,2020-07-18_22h28.14.312,fisher_task,2020.1.3,Win32,60,0.145833333,-0.4125,1,0,0,1.785,scale,,,,,,0.3702,0.3,0.1234,0.1,stimuli/lakes/903040_left.png,stimuli/lakes/903040_right.png,,,,0,58,58,40,1,,,,,
,,,,,,$5998093575,2020-07-18_22h28.14.312,fisher_task,2020.1.3,Win32,60,0.145833333,-0.4125,1,0,0,0.999,scale,,,,,,0.326485712,0.264575131,0.21373507,0.173205081,stimuli/lakes/704047_left.png,stimuli/lakes/704047_right.png,,,,0,59,59,47,1,,,,,
,,,,,,$5998093575,2020-07-18_22h28.14.312,fisher_task,2020.1.3,Win32,60,-0.15,-0.4125,1,0,0,1.832,scale,,,,,,0.2468,0.2,0.302267034,0.244948974,stimuli/lakes/4080111_left.png,stimuli/lakes/4080111_right.png,,,,0,60,60,111,1,,,,,
,,,,,,$5998093575,2020-07-18_22h28.14.312,fisher_task,2020.1.3,Win32,60,-0.15,-0.4125,1,0,0,0.816,scale,,,,,,0.2468,0.2,0.302267034,0.244948974,stimuli/lakes/4090124_left.png,stimuli/lakes/4090124_right.png,,,,0,61,61,124,1,,,,,
,,,,,,$5998093575,2020-07-18_22h28.14.312,fisher_task,2020.1.3,Win32,60,-0.15,-0.4125,1,0,0,1.125,scale,,,,,,0.326485712,0.264575131,0.21373507,0.173205081,stimuli/lakes/7090129_left.png,stimuli/lakes/7090129_right.png,,,,0,62,62,129,1,,,,,
,,,,,,$5998093575,2020-07-18_22h28.14.312,fisher_task,2020.1.3,Win32,60,0.163888889,-0.4,1,0,0,1.564,scale,,,,,,0.302267034,0.244948974,0.2468,0.2,stimuli/lakes/603037_left.png,stimuli/lakes/603037_right.png,,,,0,63,63,37,1,,,,,
,,,,,,$5998093575,2020-07-18_22h28.14.312,fisher_task,2020.1.3,Win32,60,0.163888889,-0.4,1,0,0,1.265,scale,,,,,,0.349027907,0.282842712,0.174513954,0.141421356,stimuli/lakes/804048_left.png,stimuli/lakes/804048_right.png,,,,0,64,64,48,1,,,,,
,,,,,,$5998093575,2020-07-18_22h28.14.312,fisher_task,2020.1.3,Win32,60,-0.159722222,-0.404166667,1,0,0,1.482,scale,,,,,,0.302267034,0.244948974,0.2468,0.2,stimuli/lakes/6090127_left.png,stimuli/lakes/6090127_right.png,,,,0,65,65,127,1,,,,,
,,,,,,$5998093575,2020-07-18_22h28.14.312,fisher_task,2020.1.3,Win32,60,-0.154166667,-0.393055556,1,0,0,1.534,scale,,,,,,0.2468,0.2,0.302267034,0.244948974,stimuli/lakes/406074_left.png,stimuli/lakes/406074_right.png,,,space,0,66,66,74,1,6.366,,,,
,,,,,,$5998093575,2020-07-18_22h28.14.312,fisher_task,2020.1.3,Win32,60,0.154166667,-0.411111111,1,0,0,1.628,scale,,,,,,0.3702,0.3,0.1234,0.1,stimuli/lakes/903031_left.png,stimuli/lakes/903031_right.png,,,,0,67,67,31,1,,,,,
,,,,,,$5998093575,2020-07-18_22h28.14.312,fisher_task,2020.1.3,Win32,60,0.154166667,-0.411111111,1,0,0,0.942,scale,,,,,,0.275930788,0.223606798,0.275930788,0.223606798,stimuli/lakes/503027_left.png,stimuli/lakes/503027_right.png,,,,0,68,68,27,1,,,,,
,,,,,,$5998093575,2020-07-18_22h28.14.312,fisher_task,2020.1.3,Win32,60,-0.155555556,-0.398611111,1,0,0,1.92,scale,,,,,,0.349027907,0.282842712,0.174513954,0.141421356,stimuli/lakes/806078_left.png,stimuli/lakes/806078_right.png,,,,0,69,69,78,1,,,,,
,,,,,,$5998093575,2020-07-18_22h28.14.312,fisher_task,2020.1.3,Win32,60,-0.155555556,-0.398611111,1,0,0,0.772,scale,,,,,,0.174513954,0.141421356,0.349027907,0.282842712,stimuli/lakes/2090120_left.png,stimuli/lakes/2090120_right.png,,,,0,70,70,120,1,,,,,
,,,,,,$5998093575,2020-07-18_22h28.14.312,fisher_task,2020.1.3,Win32,60,0.15,-0.413888889,1,0,0,1.822,scale,,,,,,0.275930788,0.223606798,0.275930788,0.223606798,stimuli/lakes/504054_left.png,stimuli/lakes/504054_right.png,,,,0,71,71,54,1,,,,,
,,,,,,$5998093575,2020-07-18_22h28.14.312,fisher_task,2020.1.3,Win32,60,0.15,-0.413888889,1,0,0,1.007,scale,,,,,,0.174513954,0.141421356,0.349027907,0.282842712,stimuli/lakes/204042_left.png,stimuli/lakes/204042_right.png,,,,0,72,72,42,1,,,,,
,,,,,,$5998093575,2020-07-18_22h28.14.312,fisher_task,2020.1.3,Win32,60,0.15,-0.413888889,1,0,0,1.195,scale,,,,,,0.3702,0.3,0.1234,0.1,stimuli/lakes/904049_left.png,stimuli/lakes/904049_right.png,,,,0,73,73,49,1,,,,,
,,,,,,$5998093575,2020-07-18_22h28.14.312,fisher_task,2020.1.3,Win32,60,0.15,-0.413888889,1,0,0,1.227,scale,,,,,,0.2468,0.2,0.302267034,0.244948974,stimuli/lakes/402014_left.png,stimuli/lakes/402014_right.png,,,,0,74,74,14,1,,,,,
,,,,,,$5998093575,2020-07-18_22h28.14.312,fisher_task,2020.1.3,Win32,60,-0.183333333,-0.405555556,1,0,0,1.672,scale,,,,,,0.1234,0.1,0.3702,0.3,stimuli/lakes/1080107_left.png,stimuli/lakes/1080107_right.png,,,,0,75,75,107,1,,,,,
,,,,,,$5998093575,2020-07-18_22h28.14.312,fisher_task,2020.1.3,Win32,60,-0.134722222,-0.306944444,1,0,0,3.013,scale,,,,,,0.1234,0.1,0.3702,0.3,stimuli/lakes/105059_left.png,stimuli/lakes/105059_right.png,,,,0,76,76,59,1,,,,,
,,,,,,$5998093575,2020-07-18_22h28.14.312,fisher_task,2020.1.3,Win32,60,0.169444444,-0.415277778,1,0,0,1.851,scale,,,,,,0.2468,0.2,0.302267034,0.244948974,stimuli/lakes/402015_left.png,stimuli/lakes/402015_right.png,,,,0,77,77,15,1,,,,,
,,,,,,$5998093575,2020-07-18_22h28.14.312,fisher_task,2020.1.3,Win32,60,-0.1625,-0.405555556,1,0,0,1.849,scale,,,,,,0.275930788,0.223606798,0.275930788,0.223606798,stimuli/lakes/5090125_left.png,stimuli/lakes/5090125_right.png,,,,0,78,78,125,1,,,,,
,,,,,,$5998093575,2020-07-18_22h28.14.312,fisher_task,2020.1.3,Win32,60,0.177777778,-0.429166667,1,0,0,1.666,scale,,,,,,0.326485712,0.264575131,0.21373507,0.173205081,stimuli/lakes/70107_left.png,stimuli/lakes/70107_right.png,,,,0,79,79,7,1,,,,,
,,,,,,$5998093575,2020-07-18_22h28.14.312,fisher_task,2020.1.3,Win32,60,-0.165277778,-0.422222222,1,0,0,2.379,scale,,,,,,0.1234,0.1,0.3702,0.3,stimuli/lakes/107098_left.png,stimuli/lakes/107098_right.png,,,,0,80,80,98,1,,,,,
,,,,,,$5998093575,2020-07-18_22h28.14.312,fisher_task,2020.1.3,Win32,60,0.186111111,-0.416666667,1,0,0,1.583,scale,,,,,,0.21373507,0.173205081,0.326485712,0.264575131,stimuli/lakes/303034_left.png,stimuli/lakes/303034_right.png,,,,0,81,81,34,1,,,,,
,,,,,,$5998093575,2020-07-18_22h28.14.312,fisher_task,2020.1.3,Win32,60,-0.168055556,-0.404166667,1,0,0,1.573,scale,,,,,,0.2468,0.2,0.302267034,0.244948974,stimuli/lakes/4090123_left.png,stimuli/lakes/4090123_right.png,,,,0,82,82,123,1,,,,,
,,,,,,$5998093575,2020-07-18_22h28.14.312,fisher_task,2020.1.3,Win32,60,-0.168055556,-0.404166667,1,0,0,1.398,scale,,,,,,0.21373507,0.173205081,0.326485712,0.264575131,stimuli/lakes/3070100_left.png,stimuli/lakes/3070100_right.png,,,,0,83,83,100,1,,,,,
,,,,,,$5998093575,2020-07-18_22h28.14.312,fisher_task,2020.1.3,Win32,60,-0.168055556,-0.404166667,1,0,0,1.233,scale,,,,,,0.21373507,0.173205081,0.326485712,0.264575131,stimuli/lakes/307091_left.png,stimuli/lakes/307091_right.png,,,,0,84,84,91,1,,,,,
,,,,,,$5998093575,2020-07-18_22h28.14.312,fisher_task,2020.1.3,Win32,60,0.159722222,-0.418055556,1,0,0,2.66,scale,,,,,,0.326485712,0.264575131,0.21373507,0.173205081,stimuli/lakes/704056_left.png,stimuli/lakes/704056_right.png,,,,0,85,85,56,1,,,,,
,,,,,,$5998093575,2020-07-18_22h28.14.312,fisher_task,2020.1.3,Win32,60,0.104166667,-0.273611111,1,0,0,5.406,scale,,,,,,0.2468,0.2,0.302267034,0.244948974,stimuli/lakes/405063_left.png,stimuli/lakes/405063_right.png,,,,0,86,86,63,1,,,,,
,,,,,,$5998093575,2020-07-18_22h28.14.312,fisher_task,2020.1.3,Win32,60,-0.151388889,-0.406944444,1,0,0,2.426,scale,,,,,,0.21373507,0.173205081,0.326485712,0.264575131,stimuli/lakes/3080110_left.png,stimuli/lakes/3080110_right.png,,,,0,87,87,110,1,,,,,
,,,,,,$5998093575,2020-07-18_22h28.14.312,fisher_task,2020.1.3,Win32,60,-0.179166667,-0.408333333,1,0,0,2.552,scale,,,,,,0.1234,0.1,0.3702,0.3,stimuli/lakes/107089_left.png,stimuli/lakes/107089_right.png,,,space,0,88,88,89,1,1.634,,,,
,,,,,,$5998093575,2020-07-18_22h28.14.312,fisher_task,2020.1.3,Win32,60,-0.077777778,-0.272222222,1,0,0,6.724,scale,,,,,,0.302267034,0.244948974,0.2468,0.2,stimuli/lakes/605066_left.png,stimuli/lakes/605066_right.png,,,,0,89,89,66,1,,,,,
,,,,,,$5998093575,2020-07-18_22h28.14.312,fisher_task,2020.1.3,Win32,60,-0.179166667,-0.415277778,1,0,0,1.533,scale,,,,,,0.349027907,0.282842712,0.174513954,0.141421356,stimuli/lakes/8080118_left.png,stimuli/lakes/8080118_right.png,,,,0,90,90,118,1,,,,,
,,,,,,$5998093575,2020-07-18_22h28.14.312,fisher_task,2020.1.3,Win32,60,0.148611111,-0.331944444,1,0,0,3.905,scale,,,,,,0.21373507,0.173205081,0.326485712,0.264575131,stimuli/lakes/304052_left.png,stimuli/lakes/304052_right.png,,,,0,91,91,52,1,,,,,
,,,,,,$5998093575,2020-07-18_22h28.14.312,fisher_task,2020.1.3,Win32,60,-0.165277778,-0.415277778,1,0,0,1.789,scale,,,,,,0.174513954,0.141421356,0.349027907,0.282842712,stimuli/lakes/2080108_left.png,stimuli/lakes/2080108_right.png,,,,0,92,92,108,1,,,,,
,,,,,,$5998093575,2020-07-18_22h28.14.312,fisher_task,2020.1.3,Win32,60,-0.165277778,-0.415277778,1,0,0,1.502,scale,,,,,,0.1234,0.1,0.3702,0.3,stimuli/lakes/106080_left.png,stimuli/lakes/106080_right.png,,,,0,93,93,80,1,,,,,
,,,,,,$5998093575,2020-07-18_22h28.14.312,fisher_task,2020.1.3,Win32,60,-0.165277778,-0.415277778,1,0,0,0.932,scale,,,,,,0.302267034,0.244948974,0.2468,0.2,stimuli/lakes/6080115_left.png,stimuli/lakes/6080115_right.png,,,,0,94,94,115,1,,,,,
,,,,,,$5998093575,2020-07-18_22h28.14.312,fisher_task,2020.1.3,Win32,60,-0.165277778,-0.415277778,1,0,0,1.784,scale,,,,,,0.3702,0.3,0.1234,0.1,stimuli/lakes/9070106_left.png,stimuli/lakes/9070106_right.png,,,,0,95,95,106,1,,,,,
,,,,,,$5998093575,2020-07-18_22h28.14.312,fisher_task,2020.1.3,Win32,60,-0.165277778,-0.415277778,1,0,0,0.759,scale,,,,,,0.302267034,0.244948974,0.2468,0.2,stimuli/lakes/6080114_left.png,stimuli/lakes/6080114_right.png,,,,0,96,96,114,1,,,,,
,,,,,,$5998093575,2020-07-18_22h28.14.312,fisher_task,2020.1.3,Win32,60,-0.165277778,-0.415277778,1,0,0,2.743,scale,,,,,,0.326485712,0.264575131,0.21373507,0.173205081,stimuli/lakes/706086_left.png,stimuli/lakes/706086_right.png,,,,0,97,97,86,1,,,,,
,,,,,,$5998093575,2020-07-18_22h28.14.312,fisher_task,2020.1.3,Win32,60,0.131944444,-0.413888889,1,0,0,1.6,scale,,,,,,0.349027907,0.282842712,0.174513954,0.141421356,stimuli/lakes/803030_left.png,stimuli/lakes/803030_right.png,,,,0,98,98,30,1,,,,,
,,,,,,$5998093575,2020-07-18_22h28.14.312,fisher_task,2020.1.3,Win32,60,0.131944444,-0.413888889,1,0,0,0.815,scale,,,,,,0.302267034,0.244948974,0.2468,0.2,stimuli/lakes/60106_left.png,stimuli/lakes/60106_right.png,,,,0,99,99,6,1,,,,,
,,,,,,$5998093575,2020-07-18_22h28.14.312,fisher_task,2020.1.3,Win32,60,-0.168055556,-0.373611111,1,0,0,2.923,scale,,,,,,0.1234,0.1,0.3702,0.3,stimuli/lakes/106071_left.png,stimuli/lakes/106071_right.png,,,,0,100,100,71,1,,,,,
,,,,,,$5998093575,2020-07-18_22h28.14.312,fisher_task,2020.1.3,Win32,60,-0.168055556,-0.373611111,1,0,0,2.529,scale,,,,,,0.326485712,0.264575131,0.21373507,0.173205081,stimuli/lakes/706077_left.png,stimuli/lakes/706077_right.png,,,,0,101,101,77,1,,,,,
,,,,,,$5998093575,2020-07-18_22h28.14.312,fisher_task,2020.1.3,Win32,60,-0.155555556,-0.398611111,1,0,0,2.188,scale,,,,,,0.302267034,0.244948974,0.2468,0.2,stimuli/lakes/6070103_left.png,stimuli/lakes/6070103_right.png,,,,0,102,102,103,1,,,,,
,,,,,,$5998093575,2020-07-18_22h28.14.312,fisher_task,2020.1.3,Win32,60,0.133333333,-0.4125,1,0,0,1.675,scale,,,,,,0.302267034,0.244948974,0.2468,0.2,stimuli/lakes/603028_left.png,stimuli/lakes/603028_right.png,,,,0,103,103,28,1,,,,,
,,,,,,$5998093575,2020-07-18_22h28.14.312,fisher_task,2020.1.3,Win32,60,-0.177777778,-0.405555556,1,0,0,1.924,scale,,,,,,0.326485712,0.264575131,0.21373507,0.173205081,stimuli/lakes/7070104_left.png,stimuli/lakes/7070104_right.png,,,,0,104,104,104,1,,,,,
,,,,,,$5998093575,2020-07-18_22h28.14.312,fisher_task,2020.1.3,Win32,60,0.1625,-0.381944444,1,0,0,2.015,scale,,,,,,0.21373507,0.173205081,0.326485712,0.264575131,stimuli/lakes/304043_left.png,stimuli/lakes/304043_right.png,,,,0,105,105,43,1,,,,,
,,,,,,$5998093575,2020-07-18_22h28.14.312,fisher_task,2020.1.3,Win32,60,0.173611111,-0.406944444,1,0,0,2.244,scale,,,,,,0.326485712,0.264575131,0.21373507,0.173205081,stimuli/lakes/703029_left.png,stimuli/lakes/703029_right.png,,,,0,106,106,29,1,,,,,
,,,,,,$5998093575,2020-07-18_22h28.14.312,fisher_task,2020.1.3,Win32,60,0.173611111,-0.406944444,1,0,0,1.71,scale,,,,,,0.1234,0.1,0.3702,0.3,stimuli/lakes/103023_left.png,stimuli/lakes/103023_right.png,,,,0,107,107,23,1,,,,,
,,,,,,$5998093575,2020-07-18_22h28.14.312,fisher_task,2020.1.3,Win32,60,0.173611111,-0.406944444,1,0,0,1.073,scale,,,,,,0.326485712,0.264575131,0.21373507,0.173205081,stimuli/lakes/702020_left.png,stimuli/lakes/702020_right.png,,,,0,108,108,20,1,,,,,
,,,,,,$5998093575,2020-07-18_22h28.14.312,fisher_task,2020.1.3,Win32,60,0.097222222,-0.290277778,1,0,0,2.869,scale,,,,,,0.326485712,0.264575131,0.21373507,0.173205081,stimuli/lakes/705067_left.png,stimuli/lakes/705067_right.png,,,,0,109,109,67,1,,,,,
,,,,,,$5998093575,2020-07-18_22h28.14.312,fisher_task,2020.1.3,Win32,60,0.052777778,-0.245833333,1,0,0,5.025,scale,,,,,,0.302267034,0.244948974,0.2468,0.2,stimuli/lakes/605065_left.png,stimuli/lakes/605065_right.png,,,space,0,110,110,65,1,1.713,,,,
,,,,,,$5998093575,2020-07-18_22h28.14.312,fisher_task,2020.1.3,Win32,60,0.159722222,-0.401388889,1,0,0,1.941,scale,,,,,,0.3702,0.3,0.1234,0.1,stimuli/lakes/901010_left.png,stimuli/lakes/901010_right.png,,,,0,111,111,10,1,,,,,
,,,,,,$5998093575,2020-07-18_22h28.14.312,fisher_task,2020.1.3,Win32,60,-0.056944444,-0.284722222,1,0,0,3.248,scale,,,,,,0.21373507,0.173205081,0.326485712,0.264575131,stimuli/lakes/305061_left.png,stimuli/lakes/305061_right.png,,,,0,112,112,61,1,,,,,
,,,,,,$5998093575,2020-07-18_22h28.14.312,fisher_task,2020.1.3,Win32,60,0.165277778,-0.343055556,1,0,0,2.015,scale,,,,,,0.2468,0.2,0.302267034,0.244948974,stimuli/lakes/404053_left.png,stimuli/lakes/404053_right.png,,,,0,113,113,53,1,,,,,
,,,,,,$5998093575,2020-07-18_22h28.14.312,fisher_task,2020.1.3,Win32,60,-0.170833333,-0.415277778,1,0,0,1.756,scale,,,,,,0.302267034,0.244948974,0.2468,0.2,stimuli/lakes/6090126_left.png,stimuli/lakes/6090126_right.png,,,,0,114,114,126,1,,,,,
,,,,,,$5998093575,2020-07-18_22h28.14.312,fisher_task,2020.1.3,Win32,60,-0.170833333,-0.415277778,1,0,0,0.731,scale,,,,,,0.275930788,0.223606798,0.275930788,0.223606798,stimuli/lakes/5080113_left.png,stimuli/lakes/5080113_right.png,,,,0,115,115,113,1,,,,,
,,,,,,$5998093575,2020-07-18_22h28.14.312,fisher_task,2020.1.3,Win32,60,-0.170833333,-0.415277778,1,0,0,0.794,scale,,,,,,0.174513954,0.141421356,0.349027907,0.282842712,stimuli/lakes/207090_left.png,stimuli/lakes/207090_right.png,,,,0,116,116,90,1,,,,,
,,,,,,$5998093575,2020-07-18_22h28.14.312,fisher_task,2020.1.3,Win32,60,0.168055556,-0.416666667,1,0,0,1.647,scale,,,,,,0.3702,0.3,0.1234,0.1,stimuli/lakes/902022_left.png,stimuli/lakes/902022_right.png,,,,0,117,117,22,1,,,,,
,,,,,,$5998093575,2020-07-18_22h28.14.312,fisher_task,2020.1.3,Win32,60,-0.145833333,-0.395833333,1,0,0,1.642,scale,,,,,,0.302267034,0.244948974,0.2468,0.2,stimuli/lakes/607094_left.png,stimuli/lakes/607094_right.png,,,,0,118,118,94,1,,,,,
,,,,,,$5998093575,2020-07-18_22h28.14.312,fisher_task,2020.1.3,Win32,60,-0.145833333,-0.395833333,1,0,0,1.535,scale,,,,,,0.2468,0.2,0.302267034,0.244948974,stimuli/lakes/407092_left.png,stimuli/lakes/407092_right.png,,,,0,119,119,92,1,,,,,
,,,,,,$5998093575,2020-07-18_22h28.14.312,fisher_task,2020.1.3,Win32,60,0.184722222,-0.4125,1,0,0,1.679,scale,,,,,,0.2468,0.2,0.302267034,0.244948974,stimuli/lakes/40102_left.png,stimuli/lakes/40102_right.png,,,,0,120,120,2,1,,,,,
,,,,,,$5998093575,2020-07-18_22h28.14.312,fisher_task,2020.1.3,Win32,60,0.184722222,-0.4125,1,0,0,1.025,scale,,,,,,0.302267034,0.244948974,0.2468,0.2,stimuli/lakes/602017_left.png,stimuli/lakes/602017_right.png,,,,0,121,121,17,1,,,,,
,,,,,,$5998093575,2020-07-18_22h28.14.312,fisher_task,2020.1.3,Win32,60,0.125,-0.288888889,1,0,0,2.962,scale,,,,,,0.349027907,0.282842712,0.174513954,0.141421356,stimuli/lakes/805069_left.png,stimuli/lakes/805069_right.png,,,,0,122,122,69,1,,,,,
,,,,,,$5998093575,2020-07-18_22h28.14.312,fisher_task,2020.1.3,Win32,60,0.172222222,-0.406944444,1,0,0,2.098,scale,,,,,,0.1234,0.1,0.3702,0.3,stimuli/lakes/104050_left.png,stimuli/lakes/104050_right.png,,,,0,123,123,50,1,,,,,
,,,,,,$5998093575,2020-07-18_22h28.14.312,fisher_task,2020.1.3,Win32,60,-0.156944444,-0.340277778,1,0,0,2.57,scale,,,,,,0.3702,0.3,0.1234,0.1,stimuli/lakes/906079_left.png,stimuli/lakes/906079_right.png,,,,0,124,124,79,1,,,,,
,,,,,,$5998093575,2020-07-18_22h28.14.312,fisher_task,2020.1.3,Win32,60,0.1625,-0.415277778,1,0,0,1.589,scale,,,,,,0.349027907,0.282842712,0.174513954,0.141421356,stimuli/lakes/802021_left.png,stimuli/lakes/802021_right.png,,,,0,125,125,21,1,,,,,
,,,,,,$5998093575,2020-07-18_22h28.14.312,fisher_task,2020.1.3,Win32,60,0.165277778,-0.365277778,1,0,0,2.201,scale,,,,,,0.2468,0.2,0.302267034,0.244948974,stimuli/lakes/405064_left.png,stimuli/lakes/405064_right.png,,,,0,126,126,64,1,,,,,
,,,,,,$5998093575,2020-07-18_22h28.14.312,fisher_task,2020.1.3,Win32,60,-0.154166667,-0.409722222,1,0,0,1.749,scale,,,,,,0.349027907,0.282842712,0.174513954,0.141421356,stimuli/lakes/8070105_left.png,stimuli/lakes/8070105_right.png,,,,0,127,127,105,1,,,,,
,,,,,,$5998093575,2020-07-18_22h28.14.312,fisher_task,2020.1.3,Win32,60,0.163888889,-0.343055556,1,0,0,2.902,scale,,,,,,0.1234,0.1,0.3702,0.3,stimuli/lakes/104041_left.png,stimuli/lakes/104041_right.png,,,,0,128,128,41,1,,,,,
,,,,,,$5998093575,2020-07-18_22h28.14.312,fisher_task,2020.1.3,Win32,60,-0.173611111,-0.380555556,1,0,0,1.898,scale,,,,,,0.302267034,0.244948974,0.2468,0.2,stimuli/lakes/606076_left.png,stimuli/lakes/606076_right.png,,,,0,129,129,76,1,,,,,
,,,,,,$5998093575,2020-07-18_22h28.14.312,fisher_task,2020.1.3,Win32,60,,,,,,,,,,,,,,,,,,,,,,,,,,,,space,12.147,space,55.692
