keySpace.keys,keySpace.rt,instructions.thisRepN,instructions.thisTrialN,instructions.thisN,instructions.thisIndex,instructions.ran,participant,date,expName,psychopyVersion,OS,frameRate,mouse.x,mouse.y,mouse.leftButton,mouse.midButton,mouse.rightButton,mouse.time,mouse.clicked_name,training.thisRepN,training.thisTrialN,training.thisN,training.thisIndex,training.ran,widthBasketLeft,heightBasketLeft,widthBasketRight,heightBasketRight,leftLake,rightLake,space2.keys,space2.rt,space1.keys,trials.thisRepN,trials.thisTrialN,trials.thisN,trials.thisIndex,trials.ran,space1.rt,finalSpace1.keys,finalSpace1.rt,finalSpace2.keys,finalSpace2.rt
space,5.17593,0,0,0,0,1,$6817137754,2020-07-20_16h18.54.739,fisher_task,2020.1.3,Win32,60,,,,,,,,,,,,,,,,,,,,,,,,,,,,,,,
,,1,0,1,0,1,$6817137754,2020-07-20_16h18.54.739,fisher_task,2020.1.3,Win32,60,,,,,,,,,,,,,,,,,,,,,,,,,,,,,,,
,,,,,,,$6817137754,2020-07-20_16h18.54.739,fisher_task,2020.1.3,Win32,60,0.091145833,-0.317708333,1,0,0,15.23251,scale,0,0,0,0,1,0.275930788,0.223606798,0.275930788,0.223606798,stimuli/training/20_left.png,stimuli/training/20_right.png,,,,,,,,,,,,,
,,,,,,,$6817137754,2020-07-20_16h18.54.739,fisher_task,2020.1.3,Win32,60,-0.071614583,-0.309895833,1,0,0,5.032175,scale,0,1,1,1,1,0.275930788,0.223606798,0.275930788,0.223606798,stimuli/training/80_left.png,stimuli/training/80_right.png,,,,,,,,,,,,,
,,,,,,,$6817137754,2020-07-20_16h18.54.739,fisher_task,2020.1.3,Win32,60,0.11328125,-0.337239583,1,0,0,6.49885,scale,0,2,2,2,1,0.174513954,0.141421356,0.349027907,0.282842712,stimuli/training/50_left.png,stimuli/training/50_right.png,,,,,,,,,,,,,
,,,,,,,$6817137754,2020-07-20_16h18.54.739,fisher_task,2020.1.3,Win32,60,-0.0078125,-0.26953125,1,0,0,4.85013,scale,0,3,3,3,1,0.349027907,0.282842712,0.174513954,0.141421356,stimuli/training/50_left.png,stimuli/training/50_right.png,,,,,,,,,,,,,
,,,,,,,$6817137754,2020-07-20_16h18.54.739,fisher_task,2020.1.3,Win32,60,0.048177083,-0.298177083,1,0,0,4.81354,scale,0,4,4,4,1,0.275930788,0.223606798,0.275930788,0.223606798,stimuli/training/50_left.png,stimuli/training/50_right.png,,,,,,,,,,,,,
,,,,,,,$6817137754,2020-07-20_16h18.54.739,fisher_task,2020.1.3,Win32,60,0.147135417,-0.416666667,1,0,0,2.44933,scale,0,5,5,5,1,0.174513954,0.141421356,0.349027907,0.282842712,stimuli/training/20_left.png,stimuli/training/20_right.png,,,,,,,,,,,,,
,,,,,,,$6817137754,2020-07-20_16h18.54.739,fisher_task,2020.1.3,Win32,60,-0.15625,-0.421875,1,0,0,2.531395,scale,0,6,6,6,1,0.349027907,0.282842712,0.174513954,0.141421356,stimuli/training/80_left.png,stimuli/training/80_right.png,,,,,,,,,,,,,
,,,,,,,$6817137754,2020-07-20_16h18.54.739,fisher_task,2020.1.3,Win32,60,0.158854167,-0.415364583,1,0,0,2.183135,scale,0,7,7,7,1,0.1234,0.1,0.3702,0.3,stimuli/training/30_left.png,stimuli/training/30_right.png,,,,,,,,,,,,,
,,,,,,,$6817137754,2020-07-20_16h18.54.739,fisher_task,2020.1.3,Win32,60,-0.15234375,-0.415364583,1,0,0,1.849625,scale,0,8,8,8,1,0.3702,0.3,0.1234,0.1,stimuli/training/70_left.png,stimuli/training/70_right.png,,,,,,,,,,,,,
,,,,,,,$6817137754,2020-07-20_16h18.54.739,fisher_task,2020.1.3,Win32,60,-0.153645833,-0.415364583,1,0,0,1.849105,scale,0,9,9,9,1,0.326485712,0.264575131,0.21373507,0.173205081,stimuli/training/90_left.png,stimuli/training/90_right.png,,,,,,,,,,,,,
,,,,,,,$6817137754,2020-07-20_16h18.54.739,fisher_task,2020.1.3,Win32,60,0.166666667,-0.411458333,1,0,0,1.51731,scale,0,10,10,10,1,0.21373507,0.173205081,0.326485712,0.264575131,stimuli/training/10_left.png,stimuli/training/10_right.png,,,,,,,,,,,,,
,,,,,,,$6817137754,2020-07-20_16h18.54.739,fisher_task,2020.1.3,Win32,60,-0.170572917,-0.416666667,1,0,0,2.04893,scale,,,,,,0.326485712,0.264575131,0.21373507,0.173205081,stimuli/lakes/7070104_left.png,stimuli/lakes/7070104_right.png,space,11.15441,,0,0,0,104,1,,,,,
,,,,,,,$6817137754,2020-07-20_16h18.54.739,fisher_task,2020.1.3,Win32,60,0.002604167,-0.270833333,1,0,0,3.99956,scale,,,,,,0.174513954,0.141421356,0.349027907,0.282842712,stimuli/lakes/206072_left.png,stimuli/lakes/206072_right.png,,,,0,1,1,72,1,,,,,
,,,,,,,$6817137754,2020-07-20_16h18.54.739,fisher_task,2020.1.3,Win32,60,-0.001302083,-0.272135417,1,0,0,2.831925,scale,,,,,,0.349027907,0.282842712,0.174513954,0.141421356,stimuli/lakes/80109_left.png,stimuli/lakes/80109_right.png,,,,0,2,2,9,1,,,,,
,,,,,,,$6817137754,2020-07-20_16h18.54.739,fisher_task,2020.1.3,Win32,60,-0.143229167,-0.389322917,1,0,0,7.13397,scale,,,,,,0.21373507,0.173205081,0.326485712,0.264575131,stimuli/lakes/306082_left.png,stimuli/lakes/306082_right.png,,,,0,3,3,82,1,,,,,
,,,,,,,$6817137754,2020-07-20_16h18.54.739,fisher_task,2020.1.3,Win32,60,0.108072917,-0.341145833,1,0,0,2.782015,scale,,,,,,0.2468,0.2,0.302267034,0.244948974,stimuli/lakes/40103_left.png,stimuli/lakes/40103_right.png,,,,0,4,4,3,1,,,,,
,,,,,,,$6817137754,2020-07-20_16h18.54.739,fisher_task,2020.1.3,Win32,60,-0.153645833,-0.411458333,1,0,0,2.0827,scale,,,,,,0.302267034,0.244948974,0.2468,0.2,stimuli/lakes/606085_left.png,stimuli/lakes/606085_right.png,,,,0,5,5,85,1,,,,,
,,,,,,,$6817137754,2020-07-20_16h18.54.739,fisher_task,2020.1.3,Win32,60,-0.091145833,-0.31640625,1,0,0,4.865395,scale,,,,,,0.275930788,0.223606798,0.275930788,0.223606798,stimuli/lakes/5090125_left.png,stimuli/lakes/5090125_right.png,,,,0,6,6,125,1,,,,,
,,,,,,,$6817137754,2020-07-20_16h18.54.739,fisher_task,2020.1.3,Win32,60,-0.143229167,-0.3828125,1,0,0,1.93351,scale,,,,,,0.275930788,0.223606798,0.275930788,0.223606798,stimuli/lakes/506084_left.png,stimuli/lakes/506084_right.png,,,,0,7,7,84,1,,,,,
,,,,,,,$6817137754,2020-07-20_16h18.54.739,fisher_task,2020.1.3,Win32,60,0.015625,-0.278645833,1,0,0,5.714845,scale,,,,,,0.349027907,0.282842712,0.174513954,0.141421356,stimuli/lakes/802021_left.png,stimuli/lakes/802021_right.png,,,,0,8,8,21,1,,,,,
,,,,,,,$6817137754,2020-07-20_16h18.54.739,fisher_task,2020.1.3,Win32,60,-0.162760417,-0.407552083,1,0,0,1.73107,scale,,,,,,0.302267034,0.244948974,0.2468,0.2,stimuli/lakes/6070103_left.png,stimuli/lakes/6070103_right.png,,,,0,9,9,103,1,,,,,
,,,,,,,$6817137754,2020-07-20_16h18.54.739,fisher_task,2020.1.3,Win32,60,0.098958333,-0.328125,1,0,0,5.31567,scale,,,,,,0.326485712,0.264575131,0.21373507,0.173205081,stimuli/lakes/702019_left.png,stimuli/lakes/702019_right.png,,,,0,10,10,19,1,,,,,
,,,,,,,$6817137754,2020-07-20_16h18.54.739,fisher_task,2020.1.3,Win32,60,-0.15234375,-0.41015625,1,0,0,1.613315,scale,,,,,,0.349027907,0.282842712,0.174513954,0.141421356,stimuli/lakes/8070105_left.png,stimuli/lakes/8070105_right.png,,,,0,11,11,105,1,,,,,
,,,,,,,$6817137754,2020-07-20_16h18.54.739,fisher_task,2020.1.3,Win32,60,-0.0078125,-0.268229167,1,0,0,2.58267,scale,,,,,,0.2468,0.2,0.302267034,0.244948974,stimuli/lakes/4090123_left.png,stimuli/lakes/4090123_right.png,,,,0,12,12,123,1,,,,,
,,,,,,,$6817137754,2020-07-20_16h18.54.739,fisher_task,2020.1.3,Win32,60,-0.072916667,-0.305989583,1,0,0,2.08269,scale,,,,,,0.21373507,0.173205081,0.326485712,0.264575131,stimuli/lakes/306073_left.png,stimuli/lakes/306073_right.png,,,,0,13,13,73,1,,,,,
,,,,,,,$6817137754,2020-07-20_16h18.54.739,fisher_task,2020.1.3,Win32,60,0.109375,-0.334635417,1,0,0,3.49891,scale,,,,,,0.2468,0.2,0.302267034,0.244948974,stimuli/lakes/405063_left.png,stimuli/lakes/405063_right.png,,,,0,14,14,63,1,,,,,
,,,,,,,$6817137754,2020-07-20_16h18.54.739,fisher_task,2020.1.3,Win32,60,-0.010416667,-0.270833333,1,0,0,1.831405,scale,,,,,,0.302267034,0.244948974,0.2468,0.2,stimuli/lakes/60106_left.png,stimuli/lakes/60106_right.png,,,,0,15,15,6,1,,,,,
,,,,,,,$6817137754,2020-07-20_16h18.54.739,fisher_task,2020.1.3,Win32,60,0.0390625,-0.274739583,1,0,0,5.832025,scale,,,,,,0.302267034,0.244948974,0.2468,0.2,stimuli/lakes/602017_left.png,stimuli/lakes/602017_right.png,,,,0,16,16,17,1,,,,,
,,,,,,,$6817137754,2020-07-20_16h18.54.739,fisher_task,2020.1.3,Win32,60,-0.15234375,-0.412760417,1,0,0,3.01624,scale,,,,,,0.302267034,0.244948974,0.2468,0.2,stimuli/lakes/605065_left.png,stimuli/lakes/605065_right.png,,,,0,17,17,65,1,,,,,
,,,,,,,$6817137754,2020-07-20_16h18.54.739,fisher_task,2020.1.3,Win32,60,0.154947917,-0.41796875,1,0,0,1.248465,scale,,,,,,0.21373507,0.173205081,0.326485712,0.264575131,stimuli/lakes/304043_left.png,stimuli/lakes/304043_right.png,,,,0,18,18,43,1,,,,,
,,,,,,,$6817137754,2020-07-20_16h18.54.739,fisher_task,2020.1.3,Win32,60,-0.041666667,-0.29296875,1,0,0,7.08198,scale,,,,,,0.1234,0.1,0.3702,0.3,stimuli/lakes/107098_left.png,stimuli/lakes/107098_right.png,,,,0,19,19,98,1,,,,,
,,,,,,,$6817137754,2020-07-20_16h18.54.739,fisher_task,2020.1.3,Win32,60,0.154947917,-0.40234375,1,0,0,1.39954,scale,,,,,,0.2468,0.2,0.302267034,0.244948974,stimuli/lakes/403026_left.png,stimuli/lakes/403026_right.png,,,,0,20,20,26,1,,,,,
,,,,,,,$6817137754,2020-07-20_16h18.54.739,fisher_task,2020.1.3,Win32,60,-0.075520833,-0.3125,1,0,0,2.01632,scale,,,,,,0.275930788,0.223606798,0.275930788,0.223606798,stimuli/lakes/5080113_left.png,stimuli/lakes/5080113_right.png,,,,0,21,21,113,1,,,,,
,,,,,,,$6817137754,2020-07-20_16h18.54.739,fisher_task,2020.1.3,Win32,60,0.158854167,-0.419270833,1,0,0,1.66442,scale,,,,,,0.2468,0.2,0.302267034,0.244948974,stimuli/lakes/40102_left.png,stimuli/lakes/40102_right.png,,,space,0,22,22,2,1,8.743975,,,,
,,,,,,,$6817137754,2020-07-20_16h18.54.739,fisher_task,2020.1.3,Win32,60,0.139322917,-0.37890625,1,0,0,9.56749,scale,,,,,,0.174513954,0.141421356,0.349027907,0.282842712,stimuli/lakes/203033_left.png,stimuli/lakes/203033_right.png,,,,0,23,23,33,1,,,,,
,,,,,,,$6817137754,2020-07-20_16h18.54.739,fisher_task,2020.1.3,Win32,60,-0.157552083,-0.39453125,1,0,0,2.291575,scale,,,,,,0.349027907,0.282842712,0.174513954,0.141421356,stimuli/lakes/806087_left.png,stimuli/lakes/806087_right.png,,,,0,24,24,87,1,,,,,
,,,,,,,$6817137754,2020-07-20_16h18.54.739,fisher_task,2020.1.3,Win32,60,0.104166667,-0.286458333,1,0,0,2.91373,scale,,,,,,0.349027907,0.282842712,0.174513954,0.141421356,stimuli/lakes/804057_left.png,stimuli/lakes/804057_right.png,,,,0,25,25,57,1,,,,,
,,,,,,,$6817137754,2020-07-20_16h18.54.739,fisher_task,2020.1.3,Win32,60,-0.157552083,-0.416666667,1,0,0,1.613505,scale,,,,,,0.302267034,0.244948974,0.2468,0.2,stimuli/lakes/6090127_left.png,stimuli/lakes/6090127_right.png,,,,0,26,26,127,1,,,,,
,,,,,,,$6817137754,2020-07-20_16h18.54.739,fisher_task,2020.1.3,Win32,60,0.149739583,-0.361979167,1,0,0,2.340705,scale,,,,,,0.174513954,0.141421356,0.349027907,0.282842712,stimuli/lakes/205060_left.png,stimuli/lakes/205060_right.png,,,,0,27,27,60,1,,,,,
,,,,,,,$6817137754,2020-07-20_16h18.54.739,fisher_task,2020.1.3,Win32,60,-0.049479167,-0.290364583,1,0,0,5.2803,scale,,,,,,0.21373507,0.173205081,0.326485712,0.264575131,stimuli/lakes/3080109_left.png,stimuli/lakes/3080109_right.png,,,,0,28,28,109,1,,,,,
,,,,,,,$6817137754,2020-07-20_16h18.54.739,fisher_task,2020.1.3,Win32,60,0.065104167,-0.28515625,1,0,0,3.74944,scale,,,,,,0.3702,0.3,0.1234,0.1,stimuli/lakes/902022_left.png,stimuli/lakes/902022_right.png,,,,0,29,29,22,1,,,,,
,,,,,,,$6817137754,2020-07-20_16h18.54.739,fisher_task,2020.1.3,Win32,60,-0.1484375,-0.352864583,1,0,0,5.28242,scale,,,,,,0.275930788,0.223606798,0.275930788,0.223606798,stimuli/lakes/506075_left.png,stimuli/lakes/506075_right.png,,,,0,30,30,75,1,,,,,
,,,,,,,$6817137754,2020-07-20_16h18.54.739,fisher_task,2020.1.3,Win32,60,0.149739583,-0.419270833,1,0,0,1.348835,scale,,,,,,0.1234,0.1,0.3702,0.3,stimuli/lakes/103023_left.png,stimuli/lakes/103023_right.png,,,,0,31,31,23,1,,,,,
,,,,,,,$6817137754,2020-07-20_16h18.54.739,fisher_task,2020.1.3,Win32,60,0.149739583,-0.419270833,1,0,0,2.148275,scale,,,,,,0.21373507,0.173205081,0.326485712,0.264575131,stimuli/lakes/305061_left.png,stimuli/lakes/305061_right.png,,,,0,32,32,61,1,,,,,
,,,,,,,$6817137754,2020-07-20_16h18.54.739,fisher_task,2020.1.3,Win32,60,-0.158854167,-0.415364583,1,0,0,1.766165,scale,,,,,,0.326485712,0.264575131,0.21373507,0.173205081,stimuli/lakes/707095_left.png,stimuli/lakes/707095_right.png,,,,0,33,33,95,1,,,,,
,,,,,,,$6817137754,2020-07-20_16h18.54.739,fisher_task,2020.1.3,Win32,60,-0.00390625,-0.260416667,1,0,0,2.283045,scale,,,,,,0.3702,0.3,0.1234,0.1,stimuli/lakes/903040_left.png,stimuli/lakes/903040_right.png,,,,0,34,34,40,1,,,,,
,,,,,,,$6817137754,2020-07-20_16h18.54.739,fisher_task,2020.1.3,Win32,60,0.05859375,-0.286458333,1,0,0,5.065505,scale,,,,,,0.21373507,0.173205081,0.326485712,0.264575131,stimuli/lakes/303034_left.png,stimuli/lakes/303034_right.png,,,,0,35,35,34,1,,,,,
,,,,,,,$6817137754,2020-07-20_16h18.54.739,fisher_task,2020.1.3,Win32,60,0.102864583,-0.329427083,1,0,0,1.66397,scale,,,,,,0.21373507,0.173205081,0.326485712,0.264575131,stimuli/lakes/302012_left.png,stimuli/lakes/302012_right.png,,,,0,36,36,12,1,,,,,
,,,,,,,$6817137754,2020-07-20_16h18.54.739,fisher_task,2020.1.3,Win32,60,0.05859375,-0.283854167,1,0,0,2.448585,scale,,,,,,0.275930788,0.223606798,0.275930788,0.223606798,stimuli/lakes/503036_left.png,stimuli/lakes/503036_right.png,,,,0,37,37,36,1,,,,,
,,,,,,,$6817137754,2020-07-20_16h18.54.739,fisher_task,2020.1.3,Win32,60,-0.01953125,-0.276041667,1,0,0,2.449465,scale,,,,,,0.1234,0.1,0.3702,0.3,stimuli/lakes/107089_left.png,stimuli/lakes/107089_right.png,,,,0,38,38,89,1,,,,,
,,,,,,,$6817137754,2020-07-20_16h18.54.739,fisher_task,2020.1.3,Win32,60,-0.06640625,-0.286458333,1,0,0,2.41516,scale,,,,,,0.349027907,0.282842712,0.174513954,0.141421356,stimuli/lakes/803039_left.png,stimuli/lakes/803039_right.png,,,,0,39,39,39,1,,,,,
,,,,,,,$6817137754,2020-07-20_16h18.54.739,fisher_task,2020.1.3,Win32,60,0.014322917,-0.286458333,1,0,0,3.16569,scale,,,,,,0.326485712,0.264575131,0.21373507,0.173205081,stimuli/lakes/703038_left.png,stimuli/lakes/703038_right.png,,,,0,40,40,38,1,,,,,
,,,,,,,$6817137754,2020-07-20_16h18.54.739,fisher_task,2020.1.3,Win32,60,-0.145833333,-0.41796875,1,0,0,1.719815,scale,,,,,,0.349027907,0.282842712,0.174513954,0.141421356,stimuli/lakes/806078_left.png,stimuli/lakes/806078_right.png,,,,0,41,41,78,1,,,,,
,,,,,,,$6817137754,2020-07-20_16h18.54.739,fisher_task,2020.1.3,Win32,60,0.02734375,-0.276041667,1,0,0,1.948225,scale,,,,,,0.326485712,0.264575131,0.21373507,0.173205081,stimuli/lakes/703029_left.png,stimuli/lakes/703029_right.png,,,,0,42,42,29,1,,,,,
,,,,,,,$6817137754,2020-07-20_16h18.54.739,fisher_task,2020.1.3,Win32,60,0.018229167,-0.26953125,1,0,0,4.499845,scale,,,,,,0.302267034,0.244948974,0.2468,0.2,stimuli/lakes/603028_left.png,stimuli/lakes/603028_right.png,,,,0,43,43,28,1,,,,,
,,,,,,,$6817137754,2020-07-20_16h18.54.739,fisher_task,2020.1.3,Win32,60,0.151041667,-0.416666667,1,0,0,1.629405,scale,,,,,,0.21373507,0.173205081,0.326485712,0.264575131,stimuli/lakes/302013_left.png,stimuli/lakes/302013_right.png,,,space,0,44,44,13,1,2.598005,,,,
,,,,,,,$6817137754,2020-07-20_16h18.54.739,fisher_task,2020.1.3,Win32,60,-0.091145833,-0.307291667,1,0,0,4.813565,scale,,,,,,0.2468,0.2,0.302267034,0.244948974,stimuli/lakes/4090124_left.png,stimuli/lakes/4090124_right.png,,,,0,45,45,124,1,,,,,
,,,,,,,$6817137754,2020-07-20_16h18.54.739,fisher_task,2020.1.3,Win32,60,0.041666667,-0.287760417,1,0,0,3.451355,scale,,,,,,0.302267034,0.244948974,0.2468,0.2,stimuli/lakes/603037_left.png,stimuli/lakes/603037_right.png,,,,0,46,46,37,1,,,,,
,,,,,,,$6817137754,2020-07-20_16h18.54.739,fisher_task,2020.1.3,Win32,60,0.15234375,-0.41796875,1,0,0,1.68974,scale,,,,,,0.21373507,0.173205081,0.326485712,0.264575131,stimuli/lakes/30101_left.png,stimuli/lakes/30101_right.png,,,,0,47,47,1,1,,,,,
,,,,,,,$6817137754,2020-07-20_16h18.54.739,fisher_task,2020.1.3,Win32,60,-0.088541667,-0.302083333,1,0,0,1.46065,scale,,,,,,0.1234,0.1,0.3702,0.3,stimuli/lakes/1090119_left.png,stimuli/lakes/1090119_right.png,,,,0,48,48,119,1,,,,,
,,,,,,,$6817137754,2020-07-20_16h18.54.739,fisher_task,2020.1.3,Win32,60,0.162760417,-0.40234375,1,0,0,2.496125,scale,,,,,,0.275930788,0.223606798,0.275930788,0.223606798,stimuli/lakes/504045_left.png,stimuli/lakes/504045_right.png,,,,0,49,49,45,1,,,,,
,,,,,,,$6817137754,2020-07-20_16h18.54.739,fisher_task,2020.1.3,Win32,60,0.153645833,-0.415364583,1,0,0,1.216695,scale,,,,,,0.275930788,0.223606798,0.275930788,0.223606798,stimuli/lakes/502016_left.png,stimuli/lakes/502016_right.png,,,,0,50,50,16,1,,,,,
,,,,,,,$6817137754,2020-07-20_16h18.54.739,fisher_task,2020.1.3,Win32,60,0.153645833,-0.415364583,1,0,0,1.01653,scale,,,,,,0.21373507,0.173205081,0.326485712,0.264575131,stimuli/lakes/303025_left.png,stimuli/lakes/303025_right.png,,,,0,51,51,25,1,,,,,
,,,,,,,$6817137754,2020-07-20_16h18.54.739,fisher_task,2020.1.3,Win32,60,-0.10546875,-0.30078125,1,0,0,2.582815,scale,,,,,,0.275930788,0.223606798,0.275930788,0.223606798,stimuli/lakes/507093_left.png,stimuli/lakes/507093_right.png,,,,0,52,52,93,1,,,,,
,,,,,,,$6817137754,2020-07-20_16h18.54.739,fisher_task,2020.1.3,Win32,60,-0.0546875,-0.282552083,1,0,0,2.28333,scale,,,,,,0.174513954,0.141421356,0.349027907,0.282842712,stimuli/lakes/2080108_left.png,stimuli/lakes/2080108_right.png,,,,0,53,53,108,1,,,,,
,,,,,,,$6817137754,2020-07-20_16h18.54.739,fisher_task,2020.1.3,Win32,60,0.036458333,-0.283854167,1,0,0,2.26516,scale,,,,,,0.302267034,0.244948974,0.2468,0.2,stimuli/lakes/604055_left.png,stimuli/lakes/604055_right.png,,,,0,54,54,55,1,,,,,
,,,,,,,$6817137754,2020-07-20_16h18.54.739,fisher_task,2020.1.3,Win32,60,0.111979167,-0.325520833,1,0,0,4.032775,scale,,,,,,0.3702,0.3,0.1234,0.1,stimuli/lakes/901010_left.png,stimuli/lakes/901010_right.png,,,,0,55,55,10,1,,,,,
,,,,,,,$6817137754,2020-07-20_16h18.54.739,fisher_task,2020.1.3,Win32,60,-0.140625,-0.407552083,1,0,0,3.332735,scale,,,,,,0.326485712,0.264575131,0.21373507,0.173205081,stimuli/lakes/705067_left.png,stimuli/lakes/705067_right.png,,,,0,56,56,67,1,,,,,
,,,,,,,$6817137754,2020-07-20_16h18.54.739,fisher_task,2020.1.3,Win32,60,0.130208333,-0.377604167,1,0,0,2.51513,scale,,,,,,0.275930788,0.223606798,0.275930788,0.223606798,stimuli/lakes/50104_left.png,stimuli/lakes/50104_right.png,,,,0,57,57,4,1,,,,,
,,,,,,,$6817137754,2020-07-20_16h18.54.739,fisher_task,2020.1.3,Win32,60,-0.135416667,-0.338541667,1,0,0,2.283085,scale,,,,,,0.2468,0.2,0.302267034,0.244948974,stimuli/lakes/406074_left.png,stimuli/lakes/406074_right.png,,,,0,58,58,74,1,,,,,
,,,,,,,$6817137754,2020-07-20_16h18.54.739,fisher_task,2020.1.3,Win32,60,-0.165364583,-0.432291667,1,0,0,1.28283,scale,,,,,,0.326485712,0.264575131,0.21373507,0.173205081,stimuli/lakes/7080116_left.png,stimuli/lakes/7080116_right.png,,,,0,59,59,116,1,,,,,
,,,,,,,$6817137754,2020-07-20_16h18.54.739,fisher_task,2020.1.3,Win32,60,-0.061197917,-0.28125,1,0,0,8.549985,scale,,,,,,0.174513954,0.141421356,0.349027907,0.282842712,stimuli/lakes/207099_left.png,stimuli/lakes/207099_right.png,,,,0,60,60,99,1,,,,,
,,,,,,,$6817137754,2020-07-20_16h18.54.739,fisher_task,2020.1.3,Win32,60,-0.002604167,-0.259114583,1,0,0,2.68147,scale,,,,,,0.3702,0.3,0.1234,0.1,stimuli/lakes/904058_left.png,stimuli/lakes/904058_right.png,,,,0,61,61,58,1,,,,,
,,,,,,,$6817137754,2020-07-20_16h18.54.739,fisher_task,2020.1.3,Win32,60,0.013020833,-0.2890625,1,0,0,3.830965,scale,,,,,,0.2468,0.2,0.302267034,0.244948974,stimuli/lakes/4080112_left.png,stimuli/lakes/4080112_right.png,,,,0,62,62,112,1,,,,,
,,,,,,,$6817137754,2020-07-20_16h18.54.739,fisher_task,2020.1.3,Win32,60,0.106770833,-0.286458333,1,0,0,2.531285,scale,,,,,,0.275930788,0.223606798,0.275930788,0.223606798,stimuli/lakes/504054_left.png,stimuli/lakes/504054_right.png,,,,0,63,63,54,1,,,,,
,,,,,,,$6817137754,2020-07-20_16h18.54.739,fisher_task,2020.1.3,Win32,60,0.03125,-0.290364583,1,0,0,2.199155,scale,,,,,,0.1234,0.1,0.3702,0.3,stimuli/lakes/105059_left.png,stimuli/lakes/105059_right.png,,,,0,64,64,59,1,,,,,
,,,,,,,$6817137754,2020-07-20_16h18.54.739,fisher_task,2020.1.3,Win32,60,0.138020833,-0.3671875,1,0,0,1.33137,scale,,,,,,0.174513954,0.141421356,0.349027907,0.282842712,stimuli/lakes/203024_left.png,stimuli/lakes/203024_right.png,,,,0,65,65,24,1,,,,,
,,,,,,,$6817137754,2020-07-20_16h18.54.739,fisher_task,2020.1.3,Win32,60,-0.16015625,-0.40625,1,0,0,2.182895,scale,,,,,,0.326485712,0.264575131,0.21373507,0.173205081,stimuli/lakes/706086_left.png,stimuli/lakes/706086_right.png,,,space,0,66,66,86,1,11.418715,,,,
,,,,,,,$6817137754,2020-07-20_16h18.54.739,fisher_task,2020.1.3,Win32,60,-0.05859375,-0.29296875,1,0,0,5.247,scale,,,,,,0.1234,0.1,0.3702,0.3,stimuli/lakes/1080107_left.png,stimuli/lakes/1080107_right.png,,,,0,67,67,107,1,,,,,
,,,,,,,$6817137754,2020-07-20_16h18.54.739,fisher_task,2020.1.3,Win32,60,-0.138020833,-0.311197917,1,0,0,1.53363,scale,,,,,,0.1234,0.1,0.3702,0.3,stimuli/lakes/106071_left.png,stimuli/lakes/106071_right.png,,,,0,68,68,71,1,,,,,
,,,,,,,$6817137754,2020-07-20_16h18.54.739,fisher_task,2020.1.3,Win32,60,0.067708333,-0.2890625,1,0,0,1.633105,scale,,,,,,0.349027907,0.282842712,0.174513954,0.141421356,stimuli/lakes/803030_left.png,stimuli/lakes/803030_right.png,,,,0,69,69,30,1,,,,,
,,,,,,,$6817137754,2020-07-20_16h18.54.739,fisher_task,2020.1.3,Win32,60,0.110677083,-0.296875,1,0,0,1.332245,scale,,,,,,0.2468,0.2,0.302267034,0.244948974,stimuli/lakes/402014_left.png,stimuli/lakes/402014_right.png,,,,0,70,70,14,1,,,,,
,,,,,,,$6817137754,2020-07-20_16h18.54.739,fisher_task,2020.1.3,Win32,60,-0.102864583,-0.3203125,1,0,0,1.7945,scale,,,,,,0.275930788,0.223606798,0.275930788,0.223606798,stimuli/lakes/5070102_left.png,stimuli/lakes/5070102_right.png,,,,0,71,71,102,1,,,,,
,,,,,,,$6817137754,2020-07-20_16h18.54.739,fisher_task,2020.1.3,Win32,60,-0.102864583,-0.3203125,1,0,0,5.280505,scale,,,,,,0.3702,0.3,0.1234,0.1,stimuli/lakes/906088_left.png,stimuli/lakes/906088_right.png,,,,0,72,72,88,1,,,,,
,,,,,,,$6817137754,2020-07-20_16h18.54.739,fisher_task,2020.1.3,Win32,60,0.046875,-0.294270833,1,0,0,3.213085,scale,,,,,,0.302267034,0.244948974,0.2468,0.2,stimuli/lakes/605066_left.png,stimuli/lakes/605066_right.png,,,,0,73,73,66,1,,,,,
,,,,,,,$6817137754,2020-07-20_16h18.54.739,fisher_task,2020.1.3,Win32,60,0.14453125,-0.4140625,1,0,0,1.31692,scale,,,,,,0.21373507,0.173205081,0.326485712,0.264575131,stimuli/lakes/30100_left.png,stimuli/lakes/30100_right.png,,,,0,74,74,0,1,,,,,
,,,,,,,$6817137754,2020-07-20_16h18.54.739,fisher_task,2020.1.3,Win32,60,-0.162760417,-0.4140625,1,0,0,1.64773,scale,,,,,,0.302267034,0.244948974,0.2468,0.2,stimuli/lakes/6080115_left.png,stimuli/lakes/6080115_right.png,,,,0,75,75,115,1,,,,,
,,,,,,,$6817137754,2020-07-20_16h18.54.739,fisher_task,2020.1.3,Win32,60,-0.067708333,-0.309895833,1,0,0,3.994495,scale,,,,,,0.174513954,0.141421356,0.349027907,0.282842712,stimuli/lakes/2090120_left.png,stimuli/lakes/2090120_right.png,,,,0,76,76,120,1,,,,,
,,,,,,,$6817137754,2020-07-20_16h18.54.739,fisher_task,2020.1.3,Win32,60,-0.138020833,-0.32421875,1,0,0,2.34841,scale,,,,,,0.3702,0.3,0.1234,0.1,stimuli/lakes/907097_left.png,stimuli/lakes/907097_right.png,,,,0,77,77,97,1,,,,,
,,,,,,,$6817137754,2020-07-20_16h18.54.739,fisher_task,2020.1.3,Win32,60,-0.170572917,-0.419270833,1,0,0,1.78284,scale,,,,,,0.326485712,0.264575131,0.21373507,0.173205081,stimuli/lakes/7080117_left.png,stimuli/lakes/7080117_right.png,,,,0,78,78,117,1,,,,,
,,,,,,,$6817137754,2020-07-20_16h18.54.739,fisher_task,2020.1.3,Win32,60,-0.029947917,-0.268229167,1,0,0,1.66258,scale,,,,,,0.3702,0.3,0.1234,0.1,stimuli/lakes/903031_left.png,stimuli/lakes/903031_right.png,,,,0,79,79,31,1,,,,,
,,,,,,,$6817137754,2020-07-20_16h18.54.739,fisher_task,2020.1.3,Win32,60,0.1328125,-0.325520833,1,0,0,1.46551,scale,,,,,,0.302267034,0.244948974,0.2468,0.2,stimuli/lakes/604046_left.png,stimuli/lakes/604046_right.png,,,,0,80,80,46,1,,,,,
,,,,,,,$6817137754,2020-07-20_16h18.54.739,fisher_task,2020.1.3,Win32,60,-0.022135417,-0.26171875,1,0,0,1.93102,scale,,,,,,0.326485712,0.264575131,0.21373507,0.173205081,stimuli/lakes/702020_left.png,stimuli/lakes/702020_right.png,,,,0,81,81,20,1,,,,,
,,,,,,,$6817137754,2020-07-20_16h18.54.739,fisher_task,2020.1.3,Win32,60,0.131510417,-0.330729167,1,0,0,1.648125,scale,,,,,,0.21373507,0.173205081,0.326485712,0.264575131,stimuli/lakes/305062_left.png,stimuli/lakes/305062_right.png,,,,0,82,82,62,1,,,,,
,,,,,,,$6817137754,2020-07-20_16h18.54.739,fisher_task,2020.1.3,Win32,60,0.145833333,-0.411458333,1,0,0,1.416235,scale,,,,,,0.2468,0.2,0.302267034,0.244948974,stimuli/lakes/404053_left.png,stimuli/lakes/404053_right.png,,,,0,83,83,53,1,,,,,
,,,,,,,$6817137754,2020-07-20_16h18.54.739,fisher_task,2020.1.3,Win32,60,-0.05078125,-0.286458333,1,0,0,3.0161,scale,,,,,,0.21373507,0.173205081,0.326485712,0.264575131,stimuli/lakes/3080110_left.png,stimuli/lakes/3080110_right.png,,,,0,84,84,110,1,,,,,
,,,,,,,$6817137754,2020-07-20_16h18.54.739,fisher_task,2020.1.3,Win32,60,0.088541667,-0.29296875,1,0,0,2.54821,scale,,,,,,0.3702,0.3,0.1234,0.1,stimuli/lakes/904049_left.png,stimuli/lakes/904049_right.png,,,,0,85,85,49,1,,,,,
,,,,,,,$6817137754,2020-07-20_16h18.54.739,fisher_task,2020.1.3,Win32,60,-0.143229167,-0.342447917,1,0,0,1.331695,scale,,,,,,0.302267034,0.244948974,0.2468,0.2,stimuli/lakes/606076_left.png,stimuli/lakes/606076_right.png,,,,0,86,86,76,1,,,,,
,,,,,,,$6817137754,2020-07-20_16h18.54.739,fisher_task,2020.1.3,Win32,60,0.119791667,-0.31640625,1,0,0,2.06673,scale,,,,,,0.174513954,0.141421356,0.349027907,0.282842712,stimuli/lakes/204051_left.png,stimuli/lakes/204051_right.png,,,,0,87,87,51,1,,,,,
,,,,,,,$6817137754,2020-07-20_16h18.54.739,fisher_task,2020.1.3,Win32,60,-0.010416667,-0.266927083,1,0,0,2.379615,scale,,,,,,0.174513954,0.141421356,0.349027907,0.282842712,stimuli/lakes/206081_left.png,stimuli/lakes/206081_right.png,,,space,0,88,88,81,1,1.89498,,,,
,,,,,,,$6817137754,2020-07-20_16h18.54.739,fisher_task,2020.1.3,Win32,60,0.15234375,-0.389322917,1,0,0,2.583925,scale,,,,,,0.1234,0.1,0.3702,0.3,stimuli/lakes/103032_left.png,stimuli/lakes/103032_right.png,,,,0,89,89,32,1,,,,,
,,,,,,,$6817137754,2020-07-20_16h18.54.739,fisher_task,2020.1.3,Win32,60,0.01953125,-0.268229167,1,0,0,5.781615,scale,,,,,,0.349027907,0.282842712,0.174513954,0.141421356,stimuli/lakes/805069_left.png,stimuli/lakes/805069_right.png,,,,0,90,90,69,1,,,,,
,,,,,,,$6817137754,2020-07-20_16h18.54.739,fisher_task,2020.1.3,Win32,60,0.104166667,-0.313802083,1,0,0,1.29891,scale,,,,,,0.302267034,0.244948974,0.2468,0.2,stimuli/lakes/602018_left.png,stimuli/lakes/602018_right.png,,,,0,91,91,18,1,,,,,
,,,,,,,$6817137754,2020-07-20_16h18.54.739,fisher_task,2020.1.3,Win32,60,0.127604167,-0.37890625,1,0,0,1.565625,scale,,,,,,0.2468,0.2,0.302267034,0.244948974,stimuli/lakes/402015_left.png,stimuli/lakes/402015_right.png,,,,0,92,92,15,1,,,,,
,,,,,,,$6817137754,2020-07-20_16h18.54.739,fisher_task,2020.1.3,Win32,60,-0.109375,-0.30859375,1,0,0,1.48295,scale,,,,,,0.174513954,0.141421356,0.349027907,0.282842712,stimuli/lakes/207090_left.png,stimuli/lakes/207090_right.png,,,,0,93,93,90,1,,,,,
,,,,,,,$6817137754,2020-07-20_16h18.54.739,fisher_task,2020.1.3,Win32,60,0.15234375,-0.375,1,0,0,2.065575,scale,,,,,,0.1234,0.1,0.3702,0.3,stimuli/lakes/104041_left.png,stimuli/lakes/104041_right.png,,,,0,94,94,41,1,,,,,
,,,,,,,$6817137754,2020-07-20_16h18.54.739,fisher_task,2020.1.3,Win32,60,-0.166666667,-0.4296875,1,0,0,1.46449,scale,,,,,,0.302267034,0.244948974,0.2468,0.2,stimuli/lakes/6090126_left.png,stimuli/lakes/6090126_right.png,,,,0,95,95,126,1,,,,,
,,,,,,,$6817137754,2020-07-20_16h18.54.739,fisher_task,2020.1.3,Win32,60,0.141927083,-0.4296875,1,0,0,2.15035,scale,,,,,,0.2468,0.2,0.302267034,0.244948974,stimuli/lakes/405064_left.png,stimuli/lakes/405064_right.png,,,,0,96,96,64,1,,,,,
,,,,,,,$6817137754,2020-07-20_16h18.54.739,fisher_task,2020.1.3,Win32,60,0.161458333,-0.421875,1,0,0,1.28383,scale,,,,,,0.326485712,0.264575131,0.21373507,0.173205081,stimuli/lakes/70107_left.png,stimuli/lakes/70107_right.png,,,,0,97,97,7,1,,,,,
,,,,,,,$6817137754,2020-07-20_16h18.54.739,fisher_task,2020.1.3,Win32,60,0.147135417,-0.3828125,1,0,0,1.116565,scale,,,,,,0.302267034,0.244948974,0.2468,0.2,stimuli/lakes/60105_left.png,stimuli/lakes/60105_right.png,,,,0,98,98,5,1,,,,,
,,,,,,,$6817137754,2020-07-20_16h18.54.739,fisher_task,2020.1.3,Win32,60,-0.16796875,-0.407552083,1,0,0,2.58297,scale,,,,,,0.326485712,0.264575131,0.21373507,0.173205081,stimuli/lakes/705068_left.png,stimuli/lakes/705068_right.png,,,,0,99,99,68,1,,,,,
,,,,,,,$6817137754,2020-07-20_16h18.54.739,fisher_task,2020.1.3,Win32,60,0.138020833,-0.381510417,1,0,0,2.483225,scale,,,,,,0.21373507,0.173205081,0.326485712,0.264575131,stimuli/lakes/304052_left.png,stimuli/lakes/304052_right.png,,,,0,100,100,52,1,,,,,
,,,,,,,$6817137754,2020-07-20_16h18.54.739,fisher_task,2020.1.3,Win32,60,0.104166667,-0.311197917,1,0,0,1.31634,scale,,,,,,0.326485712,0.264575131,0.21373507,0.173205081,stimuli/lakes/704056_left.png,stimuli/lakes/704056_right.png,,,,0,101,101,56,1,,,,,
,,,,,,,$6817137754,2020-07-20_16h18.54.739,fisher_task,2020.1.3,Win32,60,-0.149739583,-0.401041667,1,0,0,1.21665,scale,,,,,,0.2468,0.2,0.302267034,0.244948974,stimuli/lakes/407092_left.png,stimuli/lakes/407092_right.png,,,,0,102,102,92,1,,,,,
,,,,,,,$6817137754,2020-07-20_16h18.54.739,fisher_task,2020.1.3,Win32,60,-0.154947917,-0.404947917,1,0,0,3.333895,scale,,,,,,0.3702,0.3,0.1234,0.1,stimuli/lakes/905070_left.png,stimuli/lakes/905070_right.png,,,,0,103,103,70,1,,,,,
,,,,,,,$6817137754,2020-07-20_16h18.54.739,fisher_task,2020.1.3,Win32,60,0.140625,-0.388020833,1,0,0,1.383405,scale,,,,,,0.174513954,0.141421356,0.349027907,0.282842712,stimuli/lakes/202011_left.png,stimuli/lakes/202011_right.png,,,,0,104,104,11,1,,,,,
,,,,,,,$6817137754,2020-07-20_16h18.54.739,fisher_task,2020.1.3,Win32,60,0.135416667,-0.385416667,1,0,0,1.282875,scale,,,,,,0.1234,0.1,0.3702,0.3,stimuli/lakes/104050_left.png,stimuli/lakes/104050_right.png,,,,0,105,105,50,1,,,,,
,,,,,,,$6817137754,2020-07-20_16h18.54.739,fisher_task,2020.1.3,Win32,60,0.127604167,-0.372395833,1,0,0,1.29869,scale,,,,,,0.2468,0.2,0.302267034,0.244948974,stimuli/lakes/403035_left.png,stimuli/lakes/403035_right.png,,,,0,106,106,35,1,,,,,
,,,,,,,$6817137754,2020-07-20_16h18.54.739,fisher_task,2020.1.3,Win32,60,-0.145833333,-0.364583333,1,0,0,1.165325,scale,,,,,,0.302267034,0.244948974,0.2468,0.2,stimuli/lakes/607094_left.png,stimuli/lakes/607094_right.png,,,,0,107,107,94,1,,,,,
,,,,,,,$6817137754,2020-07-20_16h18.54.739,fisher_task,2020.1.3,Win32,60,-0.1640625,-0.380208333,1,0,0,1.13159,scale,,,,,,0.3702,0.3,0.1234,0.1,stimuli/lakes/9070106_left.png,stimuli/lakes/9070106_right.png,,,,0,108,108,106,1,,,,,
,,,,,,,$6817137754,2020-07-20_16h18.54.739,fisher_task,2020.1.3,Win32,60,0.05859375,-0.268229167,1,0,0,2.03072,scale,,,,,,0.349027907,0.282842712,0.174513954,0.141421356,stimuli/lakes/804048_left.png,stimuli/lakes/804048_right.png,,,,0,109,109,48,1,,,,,
,,,,,,,$6817137754,2020-07-20_16h18.54.739,fisher_task,2020.1.3,Win32,60,0.16015625,-0.403645833,1,0,0,1.33014,scale,,,,,,0.2468,0.2,0.302267034,0.244948974,stimuli/lakes/404044_left.png,stimuli/lakes/404044_right.png,,,space,0,110,110,44,1,2.380525,,,,
,,,,,,,$6817137754,2020-07-20_16h18.54.739,fisher_task,2020.1.3,Win32,60,-0.15234375,-0.403645833,1,0,0,2.68289,scale,,,,,,0.3702,0.3,0.1234,0.1,stimuli/lakes/906079_left.png,stimuli/lakes/906079_right.png,,,,0,111,111,79,1,,,,,
,,,,,,,$6817137754,2020-07-20_16h18.54.739,fisher_task,2020.1.3,Win32,60,-0.16796875,-0.42578125,1,0,0,1.653675,scale,,,,,,0.326485712,0.264575131,0.21373507,0.173205081,stimuli/lakes/7090129_left.png,stimuli/lakes/7090129_right.png,,,,0,112,112,129,1,,,,,
,,,,,,,$6817137754,2020-07-20_16h18.54.739,fisher_task,2020.1.3,Win32,60,-0.15234375,-0.377604167,1,0,0,1.301425,scale,,,,,,0.2468,0.2,0.302267034,0.244948974,stimuli/lakes/4070101_left.png,stimuli/lakes/4070101_right.png,,,,0,113,113,101,1,,,,,
,,,,,,,$6817137754,2020-07-20_16h18.54.739,fisher_task,2020.1.3,Win32,60,0.127604167,-0.341145833,1,0,0,3.018195,scale,,,,,,0.275930788,0.223606798,0.275930788,0.223606798,stimuli/lakes/503027_left.png,stimuli/lakes/503027_right.png,,,,0,114,114,27,1,,,,,
,,,,,,,$6817137754,2020-07-20_16h18.54.739,fisher_task,2020.1.3,Win32,60,-0.1015625,-0.3046875,1,0,0,2.184515,scale,,,,,,0.21373507,0.173205081,0.326485712,0.264575131,stimuli/lakes/3090122_left.png,stimuli/lakes/3090122_right.png,,,,0,115,115,122,1,,,,,
,,,,,,,$6817137754,2020-07-20_16h18.54.739,fisher_task,2020.1.3,Win32,60,-0.087239583,-0.303385417,1,0,0,1.44797,scale,,,,,,0.21373507,0.173205081,0.326485712,0.264575131,stimuli/lakes/3090121_left.png,stimuli/lakes/3090121_right.png,,,,0,116,116,121,1,,,,,
,,,,,,,$6817137754,2020-07-20_16h18.54.739,fisher_task,2020.1.3,Win32,60,0.0625,-0.305989583,1,0,0,1.61645,scale,,,,,,0.326485712,0.264575131,0.21373507,0.173205081,stimuli/lakes/704047_left.png,stimuli/lakes/704047_right.png,,,,0,117,117,47,1,,,,,
,,,,,,,$6817137754,2020-07-20_16h18.54.739,fisher_task,2020.1.3,Win32,60,-0.10546875,-0.309895833,1,0,0,1.04857,scale,,,,,,0.1234,0.1,0.3702,0.3,stimuli/lakes/106080_left.png,stimuli/lakes/106080_right.png,,,,0,118,118,80,1,,,,,
,,,,,,,$6817137754,2020-07-20_16h18.54.739,fisher_task,2020.1.3,Win32,60,-0.09375,-0.30078125,1,0,0,1.149575,scale,,,,,,0.2468,0.2,0.302267034,0.244948974,stimuli/lakes/406083_left.png,stimuli/lakes/406083_right.png,,,,0,119,119,83,1,,,,,
,,,,,,,$6817137754,2020-07-20_16h18.54.739,fisher_task,2020.1.3,Win32,60,-0.131510417,-0.326822917,1,0,0,1.164675,scale,,,,,,0.2468,0.2,0.302267034,0.244948974,stimuli/lakes/4080111_left.png,stimuli/lakes/4080111_right.png,,,,0,120,120,111,1,,,,,
,,,,,,,$6817137754,2020-07-20_16h18.54.739,fisher_task,2020.1.3,Win32,60,0.143229167,-0.305989583,1,0,0,0.799825,scale,,,,,,0.174513954,0.141421356,0.349027907,0.282842712,stimuli/lakes/204042_left.png,stimuli/lakes/204042_right.png,,,,0,121,121,42,1,,,,,
,,,,,,,$6817137754,2020-07-20_16h18.54.739,fisher_task,2020.1.3,Win32,60,-0.145833333,-0.274739583,1,0,0,0.766375,scale,,,,,,0.349027907,0.282842712,0.174513954,0.141421356,stimuli/lakes/8080118_left.png,stimuli/lakes/8080118_right.png,,,,0,122,122,118,1,,,,,
,,,,,,,$6817137754,2020-07-20_16h18.54.739,fisher_task,2020.1.3,Win32,60,-0.17578125,-0.384114583,1,0,0,0.999175,scale,,,,,,0.326485712,0.264575131,0.21373507,0.173205081,stimuli/lakes/7090128_left.png,stimuli/lakes/7090128_right.png,,,,0,123,123,128,1,,,,,
,,,,,,,$6817137754,2020-07-20_16h18.54.739,fisher_task,2020.1.3,Win32,60,0.095052083,-0.313802083,1,0,0,1.26477,scale,,,,,,0.326485712,0.264575131,0.21373507,0.173205081,stimuli/lakes/70108_left.png,stimuli/lakes/70108_right.png,,,,0,124,124,8,1,,,,,
,,,,,,,$6817137754,2020-07-20_16h18.54.739,fisher_task,2020.1.3,Win32,60,-0.122395833,-0.33984375,1,0,0,1.816105,scale,,,,,,0.302267034,0.244948974,0.2468,0.2,stimuli/lakes/6080114_left.png,stimuli/lakes/6080114_right.png,,,,0,125,125,114,1,,,,,
,,,,,,,$6817137754,2020-07-20_16h18.54.739,fisher_task,2020.1.3,Win32,60,-0.0390625,-0.256510417,1,0,0,0.900685,scale,,,,,,0.21373507,0.173205081,0.326485712,0.264575131,stimuli/lakes/307091_left.png,stimuli/lakes/307091_right.png,,,,0,126,126,91,1,,,,,
,,,,,,,$6817137754,2020-07-20_16h18.54.739,fisher_task,2020.1.3,Win32,60,-0.147135417,-0.389322917,1,0,0,0.94961,scale,,,,,,0.349027907,0.282842712,0.174513954,0.141421356,stimuli/lakes/807096_left.png,stimuli/lakes/807096_right.png,,,,0,127,127,96,1,,,,,
,,,,,,,$6817137754,2020-07-20_16h18.54.739,fisher_task,2020.1.3,Win32,60,-0.141927083,-0.33984375,1,0,0,1.416215,scale,,,,,,0.326485712,0.264575131,0.21373507,0.173205081,stimuli/lakes/706077_left.png,stimuli/lakes/706077_right.png,,,,0,128,128,77,1,,,,,
,,,,,,,$6817137754,2020-07-20_16h18.54.739,fisher_task,2020.1.3,Win32,60,-0.17578125,-0.3828125,1,0,0,1.09941,scale,,,,,,0.21373507,0.173205081,0.326485712,0.264575131,stimuli/lakes/3070100_left.png,stimuli/lakes/3070100_right.png,,,,0,129,129,100,1,,,,,
,,,,,,,$6817137754,2020-07-20_16h18.54.739,fisher_task,2020.1.3,Win32,60,,,,,,,,,,,,,,,,,,,,,,,,,,,,space,6.764925,space,33.03509
