keySpace.keys,instructions.thisRepN,instructions.thisTrialN,instructions.thisN,instructions.thisIndex,instructions.ran,participant,date,expName,psychopyVersion,OS,frameRate,mouse.x,mouse.y,mouse.leftButton,mouse.midButton,mouse.rightButton,mouse.time,mouse.clicked_name,training.thisRepN,training.thisTrialN,training.thisN,training.thisIndex,training.ran,widthBasketLeft,heightBasketLeft,widthBasketRight,heightBasketRight,leftLake,rightLake,space2.keys,space2.rt,space1.keys,trials.thisRepN,trials.thisTrialN,trials.thisN,trials.thisIndex,trials.ran,space1.rt,finalSpace1.keys,finalSpace1.rt,finalSpace2.keys,finalSpace2.rt
,0,0,0,0,1,$5485347437,2020-07-08_15h54.02.138,fisher_task,2020.1.3,MacIntel,60,,,,,,,,,,,,,,,,,,,,,,,,,,,,,,,
,,,,,,$5485347437,2020-07-08_15h54.02.138,fisher_task,2020.1.3,MacIntel,60,0.144095982,-0.360349702,1,0,0,2.333755,scale,0,0,0,0,1,0.275930788,0.223606798,0.275930788,0.223606798,stimuli/training/20_left.png,stimuli/training/20_right.png,,,,,,,,,,,,,
,,,,,,$5485347437,2020-07-08_15h54.02.138,fisher_task,2020.1.3,MacIntel,60,-0.166908482,-0.427455357,1,0,0,2.733045,scale,0,1,1,1,1,0.275930788,0.223606798,0.275930788,0.223606798,stimuli/training/80_left.png,stimuli/training/80_right.png,,,,,,,,,,,,,
,,,,,,$5485347437,2020-07-08_15h54.02.138,fisher_task,2020.1.3,MacIntel,60,-0.001335565,-0.263690476,1,0,0,3.26666,scale,0,2,2,2,1,0.174513954,0.141421356,0.349027907,0.282842712,stimuli/training/50_left.png,stimuli/training/50_right.png,,,,,,,,,,,,,
,,,,,,$5485347437,2020-07-08_15h54.02.138,fisher_task,2020.1.3,MacIntel,60,-0.06437128,-0.27781622,1,0,0,2.93297,scale,0,3,3,3,1,0.349027907,0.282842712,0.174513954,0.141421356,stimuli/training/50_left.png,stimuli/training/50_right.png,,,,,,,,,,,,,
,,,,,,$5485347437,2020-07-08_15h54.02.138,fisher_task,2020.1.3,MacIntel,60,-0.001532738,-0.252280506,1,0,0,2.26411,scale,0,4,4,4,1,0.275930788,0.223606798,0.275930788,0.223606798,stimuli/training/50_left.png,stimuli/training/50_right.png,,,,,,,,,,,,,
,,,,,,$5485347437,2020-07-08_15h54.02.138,fisher_task,2020.1.3,MacIntel,60,0.165610119,-0.43264881,1,0,0,1.799815,scale,0,5,5,5,1,0.174513954,0.141421356,0.349027907,0.282842712,stimuli/training/20_left.png,stimuli/training/20_right.png,,,,,,,,,,,,,
,,,,,,$5485347437,2020-07-08_15h54.02.138,fisher_task,2020.1.3,MacIntel,60,-0.153846726,-0.427444196,1,0,0,1.41563,scale,0,6,6,6,1,0.349027907,0.282842712,0.174513954,0.141421356,stimuli/training/80_left.png,stimuli/training/80_right.png,,,,,,,,,,,,,
,,,,,,$5485347437,2020-07-08_15h54.02.138,fisher_task,2020.1.3,MacIntel,60,0.138954613,-0.426506696,1,0,0,1.29916,scale,0,7,7,7,1,0.1234,0.1,0.3702,0.3,stimuli/training/30_left.png,stimuli/training/30_right.png,,,,,,,,,,,,,
,,,,,,$5485347437,2020-07-08_15h54.02.138,fisher_task,2020.1.3,MacIntel,60,-0.152559524,-0.438147321,1,0,0,1.71531,scale,0,8,8,8,1,0.3702,0.3,0.1234,0.1,stimuli/training/70_left.png,stimuli/training/70_right.png,,,,,,,,,,,,,
,,,,,,$5485347437,2020-07-08_15h54.02.138,fisher_task,2020.1.3,MacIntel,60,-0.147485119,-0.434546131,1,0,0,1.59923,scale,0,9,9,9,1,0.326485712,0.264575131,0.21373507,0.173205081,stimuli/training/90_left.png,stimuli/training/90_right.png,,,,,,,,,,,,,
,,,,,,$5485347437,2020-07-08_15h54.02.138,fisher_task,2020.1.3,MacIntel,60,0.150375744,-0.43219122,1,0,0,1.48293,scale,0,10,10,10,1,0.21373507,0.173205081,0.326485712,0.264575131,stimuli/training/10_left.png,stimuli/training/10_right.png,,,,,,,,,,,,,
,,,,,,$5485347437,2020-07-08_15h54.02.138,fisher_task,2020.1.3,MacIntel,60,0.112287946,-0.288080357,1,0,0,3.316575,scale,,,,,,0.326485712,0.264575131,0.21373507,0.173205081,stimuli/lakes/702019_left.png,stimuli/lakes/702019_right.png,space,79.028135,,0,0,0,19,1,,,,,
,,,,,,$5485347437,2020-07-08_15h54.02.138,fisher_task,2020.1.3,MacIntel,60,0.152611607,-0.363790923,1,0,0,2.5415,scale,,,,,,0.174513954,0.141421356,0.349027907,0.282842712,stimuli/lakes/204051_left.png,stimuli/lakes/204051_right.png,,,,0,1,1,51,1,,,,,
,,,,,,$5485347437,2020-07-08_15h54.02.138,fisher_task,2020.1.3,MacIntel,60,0.083962054,-0.291365327,1,0,0,6.015815,scale,,,,,,0.174513954,0.141421356,0.349027907,0.282842712,stimuli/lakes/2080108_left.png,stimuli/lakes/2080108_right.png,,,,0,2,2,108,1,,,,,
,,,,,,$5485347437,2020-07-08_15h54.02.138,fisher_task,2020.1.3,MacIntel,60,-0.156287202,-0.41264881,1,0,0,2.082315,scale,,,,,,0.3702,0.3,0.1234,0.1,stimuli/lakes/906079_left.png,stimuli/lakes/906079_right.png,,,,0,3,3,79,1,,,,,
,,,,,,$5485347437,2020-07-08_15h54.02.138,fisher_task,2020.1.3,MacIntel,60,-0.100714286,-0.301082589,1,0,0,1.64931,scale,,,,,,0.302267034,0.244948974,0.2468,0.2,stimuli/lakes/605066_left.png,stimuli/lakes/605066_right.png,,,,0,4,4,66,1,,,,,
,,,,,,$5485347437,2020-07-08_15h54.02.138,fisher_task,2020.1.3,MacIntel,60,0.105141369,-0.28406994,1,0,0,4.151545,scale,,,,,,0.326485712,0.264575131,0.21373507,0.173205081,stimuli/lakes/702020_left.png,stimuli/lakes/702020_right.png,,,,0,5,5,20,1,,,,,
,,,,,,$5485347437,2020-07-08_15h54.02.138,fisher_task,2020.1.3,MacIntel,60,0.129825149,-0.312090774,1,0,0,2.383425,scale,,,,,,0.2468,0.2,0.302267034,0.244948974,stimuli/lakes/405064_left.png,stimuli/lakes/405064_right.png,,,,0,6,6,64,1,,,,,
,,,,,,$5485347437,2020-07-08_15h54.02.138,fisher_task,2020.1.3,MacIntel,60,0.154817708,-0.426350446,1,0,0,1.566625,scale,,,,,,0.21373507,0.173205081,0.326485712,0.264575131,stimuli/lakes/30101_left.png,stimuli/lakes/30101_right.png,,,,0,7,7,1,1,,,,,
,,,,,,$5485347437,2020-07-08_15h54.02.138,fisher_task,2020.1.3,MacIntel,60,0.150037202,-0.368664435,1,0,0,1.698545,scale,,,,,,0.275930788,0.223606798,0.275930788,0.223606798,stimuli/lakes/503036_left.png,stimuli/lakes/503036_right.png,,,,0,8,8,36,1,,,,,
,,,,,,$5485347437,2020-07-08_15h54.02.138,fisher_task,2020.1.3,MacIntel,60,0.124263393,-0.30672619,1,0,0,3.110355,scale,,,,,,0.21373507,0.173205081,0.326485712,0.264575131,stimuli/lakes/3080109_left.png,stimuli/lakes/3080109_right.png,,,,0,9,9,109,1,,,,,
,,,,,,$5485347437,2020-07-08_15h54.02.138,fisher_task,2020.1.3,MacIntel,60,-0.131800595,-0.319449405,1,0,0,2.866095,scale,,,,,,0.3702,0.3,0.1234,0.1,stimuli/lakes/903040_left.png,stimuli/lakes/903040_right.png,,,,0,10,10,40,1,,,,,
,,,,,,$5485347437,2020-07-08_15h54.02.138,fisher_task,2020.1.3,MacIntel,60,-0.147633929,-0.343497024,1,0,0,2.298905,scale,,,,,,0.275930788,0.223606798,0.275930788,0.223606798,stimuli/lakes/506075_left.png,stimuli/lakes/506075_right.png,,,,0,11,11,75,1,,,,,
,,,,,,$5485347437,2020-07-08_15h54.02.138,fisher_task,2020.1.3,MacIntel,60,0.006261161,-0.254196429,1,0,0,3.549435,scale,,,,,,0.2468,0.2,0.302267034,0.244948974,stimuli/lakes/406074_left.png,stimuli/lakes/406074_right.png,,,,0,12,12,74,1,,,,,
,,,,,,$5485347437,2020-07-08_15h54.02.138,fisher_task,2020.1.3,MacIntel,60,-0.135922619,-0.319360119,1,0,0,1.850885,scale,,,,,,0.326485712,0.264575131,0.21373507,0.173205081,stimuli/lakes/705067_left.png,stimuli/lakes/705067_right.png,,,,0,13,13,67,1,,,,,
,,,,,,$5485347437,2020-07-08_15h54.02.138,fisher_task,2020.1.3,MacIntel,60,0.126365327,-0.292901786,1,0,0,4.11614,scale,,,,,,0.349027907,0.282842712,0.174513954,0.141421356,stimuli/lakes/80109_left.png,stimuli/lakes/80109_right.png,,,,0,14,14,9,1,,,,,
,,,,,,$5485347437,2020-07-08_15h54.02.138,fisher_task,2020.1.3,MacIntel,60,0.114159226,-0.291231399,1,0,0,3.58257,scale,,,,,,0.326485712,0.264575131,0.21373507,0.173205081,stimuli/lakes/703029_left.png,stimuli/lakes/703029_right.png,,,,0,15,15,29,1,,,,,
,,,,,,$5485347437,2020-07-08_15h54.02.138,fisher_task,2020.1.3,MacIntel,60,-0.12828869,-0.302399554,1,0,0,6.83323,scale,,,,,,0.174513954,0.141421356,0.349027907,0.282842712,stimuli/lakes/2090120_left.png,stimuli/lakes/2090120_right.png,,,,0,16,16,120,1,,,,,
,,,,,,$5485347437,2020-07-08_15h54.02.138,fisher_task,2020.1.3,MacIntel,60,0.14047247,-0.327395833,1,0,0,1.65036,scale,,,,,,0.2468,0.2,0.302267034,0.244948974,stimuli/lakes/405063_left.png,stimuli/lakes/405063_right.png,,,,0,17,17,63,1,,,,,
,,,,,,$5485347437,2020-07-08_15h54.02.138,fisher_task,2020.1.3,MacIntel,60,-0.155844494,-0.427715774,1,0,0,1.43253,scale,,,,,,0.326485712,0.264575131,0.21373507,0.173205081,stimuli/lakes/7090129_left.png,stimuli/lakes/7090129_right.png,,,,0,18,18,129,1,,,,,
,,,,,,$5485347437,2020-07-08_15h54.02.138,fisher_task,2020.1.3,MacIntel,60,0.056235119,-0.262726935,1,0,0,4.398095,scale,,,,,,0.2468,0.2,0.302267034,0.244948974,stimuli/lakes/407092_left.png,stimuli/lakes/407092_right.png,,,,0,19,19,92,1,,,,,
,,,,,,$5485347437,2020-07-08_15h54.02.138,fisher_task,2020.1.3,MacIntel,60,0.157689732,-0.429051339,1,0,0,1.84933,scale,,,,,,0.174513954,0.141421356,0.349027907,0.282842712,stimuli/lakes/202011_left.png,stimuli/lakes/202011_right.png,,,,0,20,20,11,1,,,,,
,,,,,,$5485347437,2020-07-08_15h54.02.138,fisher_task,2020.1.3,MacIntel,60,0.00812128,-0.243299851,1,0,0,2.33331,scale,,,,,,0.302267034,0.244948974,0.2468,0.2,stimuli/lakes/604055_left.png,stimuli/lakes/604055_right.png,,,,0,21,21,55,1,,,,,
,,,,,,$5485347437,2020-07-08_15h54.02.138,fisher_task,2020.1.3,MacIntel,60,-0.117313988,-0.288686756,1,0,0,2.632445,scale,,,,,,0.3702,0.3,0.1234,0.1,stimuli/lakes/904049_left.png,stimuli/lakes/904049_right.png,,,space,0,22,22,49,1,27.300805,,,,
,,,,,,$5485347437,2020-07-08_15h54.02.138,fisher_task,2020.1.3,MacIntel,60,-0.082998512,-0.280174851,1,0,0,3.96515,scale,,,,,,0.3702,0.3,0.1234,0.1,stimuli/lakes/904058_left.png,stimuli/lakes/904058_right.png,,,,0,23,23,58,1,,,,,
,,,,,,$5485347437,2020-07-08_15h54.02.138,fisher_task,2020.1.3,MacIntel,60,0.145792411,-0.426908482,1,0,0,2.083185,scale,,,,,,0.21373507,0.173205081,0.326485712,0.264575131,stimuli/lakes/302013_left.png,stimuli/lakes/302013_right.png,,,,0,24,24,13,1,,,,,
,,,,,,$5485347437,2020-07-08_15h54.02.138,fisher_task,2020.1.3,MacIntel,60,0.159110863,-0.374468006,1,0,0,1.73326,scale,,,,,,0.1234,0.1,0.3702,0.3,stimuli/lakes/104041_left.png,stimuli/lakes/104041_right.png,,,,0,25,25,41,1,,,,,
,,,,,,$5485347437,2020-07-08_15h54.02.138,fisher_task,2020.1.3,MacIntel,60,-0.124233631,-0.29688244,1,0,0,1.716285,scale,,,,,,0.302267034,0.244948974,0.2468,0.2,stimuli/lakes/606076_left.png,stimuli/lakes/606076_right.png,,,,0,26,26,76,1,,,,,
,,,,,,$5485347437,2020-07-08_15h54.02.138,fisher_task,2020.1.3,MacIntel,60,-0.085818452,-0.274776786,1,0,0,3.208665,scale,,,,,,0.2468,0.2,0.302267034,0.244948974,stimuli/lakes/4080111_left.png,stimuli/lakes/4080111_right.png,,,,0,27,27,111,1,,,,,
,,,,,,$5485347437,2020-07-08_15h54.02.138,fisher_task,2020.1.3,MacIntel,60,0.112261905,-0.291770833,1,0,0,4.61717,scale,,,,,,0.326485712,0.264575131,0.21373507,0.173205081,stimuli/lakes/703038_left.png,stimuli/lakes/703038_right.png,,,,0,28,28,38,1,,,,,
,,,,,,$5485347437,2020-07-08_15h54.02.138,fisher_task,2020.1.3,MacIntel,60,-0.117715774,-0.310725446,1,0,0,5.117505,scale,,,,,,0.21373507,0.173205081,0.326485712,0.264575131,stimuli/lakes/3070100_left.png,stimuli/lakes/3070100_right.png,,,,0,29,29,100,1,,,,,
,,,,,,$5485347437,2020-07-08_15h54.02.138,fisher_task,2020.1.3,MacIntel,60,-0.143374256,-0.36077753,1,0,0,4.206485,scale,,,,,,0.21373507,0.173205081,0.326485712,0.264575131,stimuli/lakes/3090122_left.png,stimuli/lakes/3090122_right.png,,,,0,30,30,122,1,,,,,
,,,,,,$5485347437,2020-07-08_15h54.02.138,fisher_task,2020.1.3,MacIntel,60,0.157749256,-0.354914435,1,0,0,3.18388,scale,,,,,,0.326485712,0.264575131,0.21373507,0.173205081,stimuli/lakes/70108_left.png,stimuli/lakes/70108_right.png,,,,0,31,31,8,1,,,,,
,,,,,,$5485347437,2020-07-08_15h54.02.138,fisher_task,2020.1.3,MacIntel,60,0.146622024,-0.332741815,1,0,0,3.115665,scale,,,,,,0.174513954,0.141421356,0.349027907,0.282842712,stimuli/lakes/205060_left.png,stimuli/lakes/205060_right.png,,,,0,32,32,60,1,,,,,
,,,,,,$5485347437,2020-07-08_15h54.02.138,fisher_task,2020.1.3,MacIntel,60,0.114549851,-0.304925595,1,0,0,1.781975,scale,,,,,,0.174513954,0.141421356,0.349027907,0.282842712,stimuli/lakes/206081_left.png,stimuli/lakes/206081_right.png,,,,0,33,33,81,1,,,,,
,,,,,,$5485347437,2020-07-08_15h54.02.138,fisher_task,2020.1.3,MacIntel,60,-0.118735119,-0.303482143,1,0,0,4.459305,scale,,,,,,0.21373507,0.173205081,0.326485712,0.264575131,stimuli/lakes/3080110_left.png,stimuli/lakes/3080110_right.png,,,,0,34,34,110,1,,,,,
,,,,,,$5485347437,2020-07-08_15h54.02.138,fisher_task,2020.1.3,MacIntel,60,-0.153735119,-0.394308036,1,0,0,1.83259,scale,,,,,,0.302267034,0.244948974,0.2468,0.2,stimuli/lakes/6080114_left.png,stimuli/lakes/6080114_right.png,,,,0,35,35,114,1,,,,,
,,,,,,$5485347437,2020-07-08_15h54.02.138,fisher_task,2020.1.3,MacIntel,60,-0.153988095,-0.368363095,1,0,0,1.698395,scale,,,,,,0.3702,0.3,0.1234,0.1,stimuli/lakes/905070_left.png,stimuli/lakes/905070_right.png,,,,0,36,36,70,1,,,,,
,,,,,,$5485347437,2020-07-08_15h54.02.138,fisher_task,2020.1.3,MacIntel,60,0.168087798,-0.427738095,1,0,0,1.314715,scale,,,,,,0.21373507,0.173205081,0.326485712,0.264575131,stimuli/lakes/302012_left.png,stimuli/lakes/302012_right.png,,,,0,37,37,12,1,,,,,
,,,,,,$5485347437,2020-07-08_15h54.02.138,fisher_task,2020.1.3,MacIntel,60,-0.153307292,-0.386767113,1,0,0,1.38344,scale,,,,,,0.275930788,0.223606798,0.275930788,0.223606798,stimuli/lakes/5080113_left.png,stimuli/lakes/5080113_right.png,,,,0,38,38,113,1,,,,,
,,,,,,$5485347437,2020-07-08_15h54.02.138,fisher_task,2020.1.3,MacIntel,60,-0.128508185,-0.307172619,1,0,0,1.483665,scale,,,,,,0.326485712,0.264575131,0.21373507,0.173205081,stimuli/lakes/704056_left.png,stimuli/lakes/704056_right.png,,,,0,39,39,56,1,,,,,
,,,,,,$5485347437,2020-07-08_15h54.02.138,fisher_task,2020.1.3,MacIntel,60,0.165524554,-0.41264881,1,0,0,1.4287,scale,,,,,,0.1234,0.1,0.3702,0.3,stimuli/lakes/103023_left.png,stimuli/lakes/103023_right.png,,,,0,40,40,23,1,,,,,
,,,,,,$5485347437,2020-07-08_15h54.02.138,fisher_task,2020.1.3,MacIntel,60,-0.158013393,-0.374118304,1,0,0,2.298565,scale,,,,,,0.326485712,0.264575131,0.21373507,0.173205081,stimuli/lakes/706086_left.png,stimuli/lakes/706086_right.png,,,,0,41,41,86,1,,,,,
,,,,,,$5485347437,2020-07-08_15h54.02.138,fisher_task,2020.1.3,MacIntel,60,-0.155561756,-0.429029018,1,0,0,1.682585,scale,,,,,,0.275930788,0.223606798,0.275930788,0.223606798,stimuli/lakes/5090125_left.png,stimuli/lakes/5090125_right.png,,,,0,42,42,125,1,,,,,
,,,,,,$5485347437,2020-07-08_15h54.02.138,fisher_task,2020.1.3,MacIntel,60,0.103404018,-0.279862351,1,0,0,5.531555,scale,,,,,,0.3702,0.3,0.1234,0.1,stimuli/lakes/901010_left.png,stimuli/lakes/901010_right.png,,,,0,43,43,10,1,,,,,
,,,,,,$5485347437,2020-07-08_15h54.02.138,fisher_task,2020.1.3,MacIntel,60,-0.135133929,-0.31328125,1,0,0,1.74764,scale,,,,,,0.21373507,0.173205081,0.326485712,0.264575131,stimuli/lakes/3090121_left.png,stimuli/lakes/3090121_right.png,,,space,0,44,44,121,1,37.267315,,,,
,,,,,,$5485347437,2020-07-08_15h54.02.138,fisher_task,2020.1.3,MacIntel,60,0.146447173,-0.373802083,1,0,0,2.205055,scale,,,,,,0.174513954,0.141421356,0.349027907,0.282842712,stimuli/lakes/204042_left.png,stimuli/lakes/204042_right.png,,,,0,45,45,42,1,,,,,
,,,,,,$5485347437,2020-07-08_15h54.02.138,fisher_task,2020.1.3,MacIntel,60,-0.151294643,-0.389010417,1,0,0,1.582485,scale,,,,,,0.302267034,0.244948974,0.2468,0.2,stimuli/lakes/6090127_left.png,stimuli/lakes/6090127_right.png,,,,0,46,46,127,1,,,,,
,,,,,,$5485347437,2020-07-08_15h54.02.138,fisher_task,2020.1.3,MacIntel,60,-0.013028274,-0.266733631,1,0,0,4.051835,scale,,,,,,0.1234,0.1,0.3702,0.3,stimuli/lakes/1090119_left.png,stimuli/lakes/1090119_right.png,,,,0,47,47,119,1,,,,,
,,,,,,$5485347437,2020-07-08_15h54.02.138,fisher_task,2020.1.3,MacIntel,60,-0.157224702,-0.420349702,1,0,0,1.43287,scale,,,,,,0.349027907,0.282842712,0.174513954,0.141421356,stimuli/lakes/8070105_left.png,stimuli/lakes/8070105_right.png,,,,0,48,48,105,1,,,,,
,,,,,,$5485347437,2020-07-08_15h54.02.138,fisher_task,2020.1.3,MacIntel,60,0.148139881,-0.407749256,1,0,0,1.18328,scale,,,,,,0.174513954,0.141421356,0.349027907,0.282842712,stimuli/lakes/203033_left.png,stimuli/lakes/203033_right.png,,,,0,49,49,33,1,,,,,
,,,,,,$5485347437,2020-07-08_15h54.02.138,fisher_task,2020.1.3,MacIntel,60,-0.166488095,-0.429579613,1,0,0,1.466945,scale,,,,,,0.302267034,0.244948974,0.2468,0.2,stimuli/lakes/6080115_left.png,stimuli/lakes/6080115_right.png,,,,0,50,50,115,1,,,,,
,,,,,,$5485347437,2020-07-08_15h54.02.138,fisher_task,2020.1.3,MacIntel,60,-0.151703869,-0.38218006,1,0,0,1.966525,scale,,,,,,0.349027907,0.282842712,0.174513954,0.141421356,stimuli/lakes/805069_left.png,stimuli/lakes/805069_right.png,,,,0,51,51,69,1,,,,,
,,,,,,$5485347437,2020-07-08_15h54.02.138,fisher_task,2020.1.3,MacIntel,60,-0.15640997,-0.35781994,1,0,0,1.148115,scale,,,,,,0.275930788,0.223606798,0.275930788,0.223606798,stimuli/lakes/507093_left.png,stimuli/lakes/507093_right.png,,,,0,52,52,93,1,,,,,
,,,,,,$5485347437,2020-07-08_15h54.02.138,fisher_task,2020.1.3,MacIntel,60,0.133411458,-0.321889881,1,0,0,1.500545,scale,,,,,,0.21373507,0.173205081,0.326485712,0.264575131,stimuli/lakes/306073_left.png,stimuli/lakes/306073_right.png,,,,0,53,53,73,1,,,,,
,,,,,,$5485347437,2020-07-08_15h54.02.138,fisher_task,2020.1.3,MacIntel,60,0.160550595,-0.424482887,1,0,0,1.512825,scale,,,,,,0.2468,0.2,0.302267034,0.244948974,stimuli/lakes/402015_left.png,stimuli/lakes/402015_right.png,,,,0,54,54,15,1,,,,,
,,,,,,$5485347437,2020-07-08_15h54.02.138,fisher_task,2020.1.3,MacIntel,60,0.091595982,-0.267674851,1,0,0,3.36547,scale,,,,,,0.302267034,0.244948974,0.2468,0.2,stimuli/lakes/602018_left.png,stimuli/lakes/602018_right.png,,,,0,55,55,18,1,,,,,
,,,,,,$5485347437,2020-07-08_15h54.02.138,fisher_task,2020.1.3,MacIntel,60,-0.145412946,-0.438296131,1,0,0,1.183485,scale,,,,,,0.326485712,0.264575131,0.21373507,0.173205081,stimuli/lakes/7090128_left.png,stimuli/lakes/7090128_right.png,,,,0,56,56,128,1,,,,,
,,,,,,$5485347437,2020-07-08_15h54.02.138,fisher_task,2020.1.3,MacIntel,60,-0.15077753,-0.391603423,1,0,0,1.41753,scale,,,,,,0.275930788,0.223606798,0.275930788,0.223606798,stimuli/lakes/5070102_left.png,stimuli/lakes/5070102_right.png,,,,0,57,57,102,1,,,,,
,,,,,,$5485347437,2020-07-08_15h54.02.138,fisher_task,2020.1.3,MacIntel,60,-0.078895089,-0.275554315,1,0,0,5.33331,scale,,,,,,0.2468,0.2,0.302267034,0.244948974,stimuli/lakes/406083_left.png,stimuli/lakes/406083_right.png,,,,0,58,58,83,1,,,,,
,,,,,,$5485347437,2020-07-08_15h54.02.138,fisher_task,2020.1.3,MacIntel,60,0.160327381,-0.430178571,1,0,0,1.820605,scale,,,,,,0.275930788,0.223606798,0.275930788,0.223606798,stimuli/lakes/502016_left.png,stimuli/lakes/502016_right.png,,,,0,59,59,16,1,,,,,
,,,,,,$5485347437,2020-07-08_15h54.02.138,fisher_task,2020.1.3,MacIntel,60,0.093143601,-0.282637649,1,0,0,4.55165,scale,,,,,,0.349027907,0.282842712,0.174513954,0.141421356,stimuli/lakes/803030_left.png,stimuli/lakes/803030_right.png,,,,0,60,60,30,1,,,,,
,,,,,,$5485347437,2020-07-08_15h54.02.138,fisher_task,2020.1.3,MacIntel,60,0.143947173,-0.346737351,1,0,0,1.648415,scale,,,,,,0.275930788,0.223606798,0.275930788,0.223606798,stimuli/lakes/504054_left.png,stimuli/lakes/504054_right.png,,,,0,61,61,54,1,,,,,
,,,,,,$5485347437,2020-07-08_15h54.02.138,fisher_task,2020.1.3,MacIntel,60,0.143947173,-0.345572917,1,0,0,1.81388,scale,,,,,,0.1234,0.1,0.3702,0.3,stimuli/lakes/106071_left.png,stimuli/lakes/106071_right.png,,,,0,62,62,71,1,,,,,
,,,,,,$5485347437,2020-07-08_15h54.02.138,fisher_task,2020.1.3,MacIntel,60,-0.08719122,-0.273463542,1,0,0,2.28317,scale,,,,,,0.275930788,0.223606798,0.275930788,0.223606798,stimuli/lakes/506084_left.png,stimuli/lakes/506084_right.png,,,,0,63,63,84,1,,,,,
,,,,,,$5485347437,2020-07-08_15h54.02.138,fisher_task,2020.1.3,MacIntel,60,0.004025298,-0.264609375,1,0,0,2.300175,scale,,,,,,0.3702,0.3,0.1234,0.1,stimuli/lakes/903031_left.png,stimuli/lakes/903031_right.png,,,,0,64,64,31,1,,,,,
,,,,,,$5485347437,2020-07-08_15h54.02.138,fisher_task,2020.1.3,MacIntel,60,0.1553125,-0.377053571,1,0,0,1.283145,scale,,,,,,0.2468,0.2,0.302267034,0.244948974,stimuli/lakes/403035_left.png,stimuli/lakes/403035_right.png,,,,0,65,65,35,1,,,,,
,,,,,,$5485347437,2020-07-08_15h54.02.138,fisher_task,2020.1.3,MacIntel,60,-0.123850446,-0.314676339,1,0,0,1.847145,scale,,,,,,0.302267034,0.244948974,0.2468,0.2,stimuli/lakes/605065_left.png,stimuli/lakes/605065_right.png,,,space,0,66,66,65,1,3.43719,,,,
,,,,,,$5485347437,2020-07-08_15h54.02.138,fisher_task,2020.1.3,MacIntel,60,-0.006134673,-0.251276042,1,0,0,3.0319,scale,,,,,,0.1234,0.1,0.3702,0.3,stimuli/lakes/107089_left.png,stimuli/lakes/107089_right.png,,,,0,67,67,89,1,,,,,
,,,,,,$5485347437,2020-07-08_15h54.02.138,fisher_task,2020.1.3,MacIntel,60,0.01875,-0.268608631,1,0,0,3.159425,scale,,,,,,0.174513954,0.141421356,0.349027907,0.282842712,stimuli/lakes/207090_left.png,stimuli/lakes/207090_right.png,,,,0,68,68,90,1,,,,,
,,,,,,$5485347437,2020-07-08_15h54.02.138,fisher_task,2020.1.3,MacIntel,60,-0.12156994,-0.321238839,1,0,0,2.025345,scale,,,,,,0.349027907,0.282842712,0.174513954,0.141421356,stimuli/lakes/804057_left.png,stimuli/lakes/804057_right.png,,,,0,69,69,57,1,,,,,
,,,,,,$5485347437,2020-07-08_15h54.02.138,fisher_task,2020.1.3,MacIntel,60,0.15702753,-0.386778274,1,0,0,1.48212,scale,,,,,,0.275930788,0.223606798,0.275930788,0.223606798,stimuli/lakes/50104_left.png,stimuli/lakes/50104_right.png,,,,0,70,70,4,1,,,,,
,,,,,,$5485347437,2020-07-08_15h54.02.138,fisher_task,2020.1.3,MacIntel,60,0.152332589,-0.38874628,1,0,0,1.32407,scale,,,,,,0.1234,0.1,0.3702,0.3,stimuli/lakes/105059_left.png,stimuli/lakes/105059_right.png,,,,0,71,71,59,1,,,,,
,,,,,,$5485347437,2020-07-08_15h54.02.138,fisher_task,2020.1.3,MacIntel,60,0.073515625,-0.268965774,1,0,0,5.167495,scale,,,,,,0.326485712,0.264575131,0.21373507,0.173205081,stimuli/lakes/70107_left.png,stimuli/lakes/70107_right.png,,,,0,72,72,7,1,,,,,
,,,,,,$5485347437,2020-07-08_15h54.02.138,fisher_task,2020.1.3,MacIntel,60,0.149639137,-0.407775298,1,0,0,1.933375,scale,,,,,,0.2468,0.2,0.302267034,0.244948974,stimuli/lakes/40102_left.png,stimuli/lakes/40102_right.png,,,,0,73,73,2,1,,,,,
,,,,,,$5485347437,2020-07-08_15h54.02.138,fisher_task,2020.1.3,MacIntel,60,0.160825893,-0.390904018,1,0,0,1.24866,scale,,,,,,0.2468,0.2,0.302267034,0.244948974,stimuli/lakes/403026_left.png,stimuli/lakes/403026_right.png,,,,0,74,74,26,1,,,,,
,,,,,,$5485347437,2020-07-08_15h54.02.138,fisher_task,2020.1.3,MacIntel,60,0.140052083,-0.336915923,1,0,0,1.49971,scale,,,,,,0.21373507,0.173205081,0.326485712,0.264575131,stimuli/lakes/304052_left.png,stimuli/lakes/304052_right.png,,,,0,75,75,52,1,,,,,
,,,,,,$5485347437,2020-07-08_15h54.02.138,fisher_task,2020.1.3,MacIntel,60,-0.166651786,-0.433322173,1,0,0,1.23312,scale,,,,,,0.349027907,0.282842712,0.174513954,0.141421356,stimuli/lakes/807096_left.png,stimuli/lakes/807096_right.png,,,,0,76,76,96,1,,,,,
,,,,,,$5485347437,2020-07-08_15h54.02.138,fisher_task,2020.1.3,MacIntel,60,-0.155569196,-0.418370536,1,0,0,1.066425,scale,,,,,,0.302267034,0.244948974,0.2468,0.2,stimuli/lakes/6070103_left.png,stimuli/lakes/6070103_right.png,,,,0,77,77,103,1,,,,,
,,,,,,$5485347437,2020-07-08_15h54.02.138,fisher_task,2020.1.3,MacIntel,60,-0.151220238,-0.409486607,1,0,0,1.216995,scale,,,,,,0.349027907,0.282842712,0.174513954,0.141421356,stimuli/lakes/806087_left.png,stimuli/lakes/806087_right.png,,,,0,78,78,87,1,,,,,
,,,,,,$5485347437,2020-07-08_15h54.02.138,fisher_task,2020.1.3,MacIntel,60,0.110126488,-0.29609747,1,0,0,1.60046,scale,,,,,,0.174513954,0.141421356,0.349027907,0.282842712,stimuli/lakes/206072_left.png,stimuli/lakes/206072_right.png,,,,0,79,79,72,1,,,,,
,,,,,,$5485347437,2020-07-08_15h54.02.138,fisher_task,2020.1.3,MacIntel,60,0.15280878,-0.410264137,1,0,0,1.37537,scale,,,,,,0.21373507,0.173205081,0.326485712,0.264575131,stimuli/lakes/303025_left.png,stimuli/lakes/303025_right.png,,,,0,80,80,25,1,,,,,
,,,,,,$5485347437,2020-07-08_15h54.02.138,fisher_task,2020.1.3,MacIntel,60,-0.154025298,-0.391930804,1,0,0,1.70068,scale,,,,,,0.326485712,0.264575131,0.21373507,0.173205081,stimuli/lakes/706077_left.png,stimuli/lakes/706077_right.png,,,,0,81,81,77,1,,,,,
,,,,,,$5485347437,2020-07-08_15h54.02.138,fisher_task,2020.1.3,MacIntel,60,-0.142061012,-0.339583333,1,0,0,3.34979,scale,,,,,,0.2468,0.2,0.302267034,0.244948974,stimuli/lakes/4090123_left.png,stimuli/lakes/4090123_right.png,,,,0,82,82,123,1,,,,,
,,,,,,$5485347437,2020-07-08_15h54.02.138,fisher_task,2020.1.3,MacIntel,60,0.150293899,-0.414110863,1,0,0,1.648345,scale,,,,,,0.2468,0.2,0.302267034,0.244948974,stimuli/lakes/40103_left.png,stimuli/lakes/40103_right.png,,,,0,83,83,3,1,,,,,
,,,,,,$5485347437,2020-07-08_15h54.02.138,fisher_task,2020.1.3,MacIntel,60,-0.105052083,-0.292485119,1,0,0,3.266725,scale,,,,,,0.21373507,0.173205081,0.326485712,0.264575131,stimuli/lakes/307091_left.png,stimuli/lakes/307091_right.png,,,,0,84,84,91,1,,,,,
,,,,,,$5485347437,2020-07-08_15h54.02.138,fisher_task,2020.1.3,MacIntel,60,0.151164435,-0.349810268,1,0,0,2.832895,scale,,,,,,0.302267034,0.244948974,0.2468,0.2,stimuli/lakes/60106_left.png,stimuli/lakes/60106_right.png,,,,0,85,85,6,1,,,,,
,,,,,,$5485347437,2020-07-08_15h54.02.138,fisher_task,2020.1.3,MacIntel,60,-0.153329613,-0.40953869,1,0,0,1.69944,scale,,,,,,0.3702,0.3,0.1234,0.1,stimuli/lakes/907097_left.png,stimuli/lakes/907097_right.png,,,,0,86,86,97,1,,,,,
,,,,,,$5485347437,2020-07-08_15h54.02.138,fisher_task,2020.1.3,MacIntel,60,-0.144873512,-0.355520833,1,0,0,2.09959,scale,,,,,,0.2468,0.2,0.302267034,0.244948974,stimuli/lakes/4090124_left.png,stimuli/lakes/4090124_right.png,,,,0,87,87,124,1,,,,,
,,,,,,$5485347437,2020-07-08_15h54.02.138,fisher_task,2020.1.3,MacIntel,60,-0.147098214,-0.350457589,1,0,0,2.182855,scale,,,,,,0.326485712,0.264575131,0.21373507,0.173205081,stimuli/lakes/705068_left.png,stimuli/lakes/705068_right.png,,,space,0,88,88,68,1,54.1936,,,,
,,,,,,$5485347437,2020-07-08_15h54.02.138,fisher_task,2020.1.3,MacIntel,60,-0.162410714,-0.416290923,1,0,0,1.38323,scale,,,,,,0.3702,0.3,0.1234,0.1,stimuli/lakes/9070106_left.png,stimuli/lakes/9070106_right.png,,,,0,89,89,106,1,,,,,
,,,,,,$5485347437,2020-07-08_15h54.02.138,fisher_task,2020.1.3,MacIntel,60,-0.159192708,-0.412615327,1,0,0,2.099995,scale,,,,,,0.326485712,0.264575131,0.21373507,0.173205081,stimuli/lakes/7070104_left.png,stimuli/lakes/7070104_right.png,,,,0,90,90,104,1,,,,,
,,,,,,$5485347437,2020-07-08_15h54.02.138,fisher_task,2020.1.3,MacIntel,60,-0.152641369,-0.383039435,1,0,0,3.09899,scale,,,,,,0.349027907,0.282842712,0.174513954,0.141421356,stimuli/lakes/806078_left.png,stimuli/lakes/806078_right.png,,,,0,91,91,78,1,,,,,
,,,,,,$5485347437,2020-07-08_15h54.02.138,fisher_task,2020.1.3,MacIntel,60,0.142883185,-0.427094494,1,0,0,1.132275,scale,,,,,,0.1234,0.1,0.3702,0.3,stimuli/lakes/103032_left.png,stimuli/lakes/103032_right.png,,,,0,92,92,32,1,,,,,
,,,,,,$5485347437,2020-07-08_15h54.02.138,fisher_task,2020.1.3,MacIntel,60,-0.14844494,-0.369081101,1,0,0,1.43382,scale,,,,,,0.3702,0.3,0.1234,0.1,stimuli/lakes/906088_left.png,stimuli/lakes/906088_right.png,,,,0,93,93,88,1,,,,,
,,,,,,$5485347437,2020-07-08_15h54.02.138,fisher_task,2020.1.3,MacIntel,60,-0.002172619,-0.253467262,1,0,0,2.099625,scale,,,,,,0.302267034,0.244948974,0.2468,0.2,stimuli/lakes/604046_left.png,stimuli/lakes/604046_right.png,,,,0,94,94,46,1,,,,,
,,,,,,$5485347437,2020-07-08_15h54.02.138,fisher_task,2020.1.3,MacIntel,60,-0.128333333,-0.317154018,1,0,0,2.89196,scale,,,,,,0.2468,0.2,0.302267034,0.244948974,stimuli/lakes/4080112_left.png,stimuli/lakes/4080112_right.png,,,,0,95,95,112,1,,,,,
,,,,,,$5485347437,2020-07-08_15h54.02.138,fisher_task,2020.1.3,MacIntel,60,0.16375372,-0.404773065,1,0,0,1.456035,scale,,,,,,0.2468,0.2,0.302267034,0.244948974,stimuli/lakes/402014_left.png,stimuli/lakes/402014_right.png,,,,0,96,96,14,1,,,,,
,,,,,,$5485347437,2020-07-08_15h54.02.138,fisher_task,2020.1.3,MacIntel,60,0.13140997,-0.313790923,1,0,0,3.5499,scale,,,,,,0.302267034,0.244948974,0.2468,0.2,stimuli/lakes/603028_left.png,stimuli/lakes/603028_right.png,,,,0,97,97,28,1,,,,,
,,,,,,$5485347437,2020-07-08_15h54.02.138,fisher_task,2020.1.3,MacIntel,60,0.156168155,-0.367555804,1,0,0,2.46591,scale,,,,,,0.302267034,0.244948974,0.2468,0.2,stimuli/lakes/603037_left.png,stimuli/lakes/603037_right.png,,,,0,98,98,37,1,,,,,
,,,,,,$5485347437,2020-07-08_15h54.02.138,fisher_task,2020.1.3,MacIntel,60,0.112470238,-0.282537202,1,0,0,2.53174,scale,,,,,,0.21373507,0.173205081,0.326485712,0.264575131,stimuli/lakes/305061_left.png,stimuli/lakes/305061_right.png,,,,0,99,99,61,1,,,,,
,,,,,,$5485347437,2020-07-08_15h54.02.138,fisher_task,2020.1.3,MacIntel,60,-0.105766369,-0.288705357,1,0,0,4.248885,scale,,,,,,0.2468,0.2,0.302267034,0.244948974,stimuli/lakes/4070101_left.png,stimuli/lakes/4070101_right.png,,,,0,100,100,101,1,,,,,
,,,,,,$5485347437,2020-07-08_15h54.02.138,fisher_task,2020.1.3,MacIntel,60,0.150223214,-0.35046503,1,0,0,2.142975,scale,,,,,,0.2468,0.2,0.302267034,0.244948974,stimuli/lakes/404044_left.png,stimuli/lakes/404044_right.png,,,,0,101,101,44,1,,,,,
,,,,,,$5485347437,2020-07-08_15h54.02.138,fisher_task,2020.1.3,MacIntel,60,0.16297619,-0.396770833,1,0,0,1.16628,scale,,,,,,0.174513954,0.141421356,0.349027907,0.282842712,stimuli/lakes/203024_left.png,stimuli/lakes/203024_right.png,,,,0,102,102,24,1,,,,,
,,,,,,$5485347437,2020-07-08_15h54.02.138,fisher_task,2020.1.3,MacIntel,60,-0.140881696,-0.346313244,1,0,0,2.03254,scale,,,,,,0.302267034,0.244948974,0.2468,0.2,stimuli/lakes/606085_left.png,stimuli/lakes/606085_right.png,,,,0,103,103,85,1,,,,,
,,,,,,$5485347437,2020-07-08_15h54.02.138,fisher_task,2020.1.3,MacIntel,60,0.145524554,-0.343854167,1,0,0,1.533085,scale,,,,,,0.21373507,0.173205081,0.326485712,0.264575131,stimuli/lakes/304043_left.png,stimuli/lakes/304043_right.png,,,,0,104,104,43,1,,,,,
,,,,,,$5485347437,2020-07-08_15h54.02.138,fisher_task,2020.1.3,MacIntel,60,0.155375744,-0.374817708,1,0,0,1.32291,scale,,,,,,0.21373507,0.173205081,0.326485712,0.264575131,stimuli/lakes/303034_left.png,stimuli/lakes/303034_right.png,,,,0,105,105,34,1,,,,,
,,,,,,$5485347437,2020-07-08_15h54.02.138,fisher_task,2020.1.3,MacIntel,60,0.158616071,-0.409326637,1,0,0,1.12665,scale,,,,,,0.1234,0.1,0.3702,0.3,stimuli/lakes/104050_left.png,stimuli/lakes/104050_right.png,,,,0,106,106,50,1,,,,,
,,,,,,$5485347437,2020-07-08_15h54.02.138,fisher_task,2020.1.3,MacIntel,60,-0.155011161,-0.412053571,1,0,0,1.332505,scale,,,,,,0.302267034,0.244948974,0.2468,0.2,stimuli/lakes/6090126_left.png,stimuli/lakes/6090126_right.png,,,,0,107,107,126,1,,,,,
,,,,,,$5485347437,2020-07-08_15h54.02.138,fisher_task,2020.1.3,MacIntel,60,-0.131041667,-0.327853423,1,0,0,1.9324,scale,,,,,,0.326485712,0.264575131,0.21373507,0.173205081,stimuli/lakes/704047_left.png,stimuli/lakes/704047_right.png,,,,0,108,108,47,1,,,,,
,,,,,,$5485347437,2020-07-08_15h54.02.138,fisher_task,2020.1.3,MacIntel,60,0.002109375,-0.275561756,1,0,0,2.116495,scale,,,,,,0.174513954,0.141421356,0.349027907,0.282842712,stimuli/lakes/207099_left.png,stimuli/lakes/207099_right.png,,,,0,109,109,99,1,,,,,
,,,,,,$5485347437,2020-07-08_15h54.02.138,fisher_task,2020.1.3,MacIntel,60,0.003463542,-0.249319196,1,0,0,2.88271,scale,,,,,,0.349027907,0.282842712,0.174513954,0.141421356,stimuli/lakes/802021_left.png,stimuli/lakes/802021_right.png,,,space,0,110,110,21,1,3.45477,,,,
,,,,,,$5485347437,2020-07-08_15h54.02.138,fisher_task,2020.1.3,MacIntel,60,0.003921131,-0.249095982,1,0,0,1.867855,scale,,,,,,0.3702,0.3,0.1234,0.1,stimuli/lakes/902022_left.png,stimuli/lakes/902022_right.png,,,,0,111,111,22,1,,,,,
,,,,,,$5485347437,2020-07-08_15h54.02.138,fisher_task,2020.1.3,MacIntel,60,0.140982143,-0.32828869,1,0,0,1.759375,scale,,,,,,0.275930788,0.223606798,0.275930788,0.223606798,stimuli/lakes/504045_left.png,stimuli/lakes/504045_right.png,,,,0,112,112,45,1,,,,,
,,,,,,$5485347437,2020-07-08_15h54.02.138,fisher_task,2020.1.3,MacIntel,60,-0.156168155,-0.387626488,1,0,0,1.232505,scale,,,,,,0.326485712,0.264575131,0.21373507,0.173205081,stimuli/lakes/707095_left.png,stimuli/lakes/707095_right.png,,,,0,113,113,95,1,,,,,
,,,,,,$5485347437,2020-07-08_15h54.02.138,fisher_task,2020.1.3,MacIntel,60,0.128887649,-0.30110119,1,0,0,1.93314,scale,,,,,,0.21373507,0.173205081,0.326485712,0.264575131,stimuli/lakes/306082_left.png,stimuli/lakes/306082_right.png,,,,0,114,114,82,1,,,,,
,,,,,,$5485347437,2020-07-08_15h54.02.138,fisher_task,2020.1.3,MacIntel,60,-0.003072917,-0.274017857,1,0,0,2.163695,scale,,,,,,0.349027907,0.282842712,0.174513954,0.141421356,stimuli/lakes/804048_left.png,stimuli/lakes/804048_right.png,,,,0,115,115,48,1,,,,,
,,,,,,$5485347437,2020-07-08_15h54.02.138,fisher_task,2020.1.3,MacIntel,60,0.14640253,-0.339676339,1,0,0,1.29962,scale,,,,,,0.2468,0.2,0.302267034,0.244948974,stimuli/lakes/404053_left.png,stimuli/lakes/404053_right.png,,,,0,116,116,53,1,,,,,
,,,,,,$5485347437,2020-07-08_15h54.02.138,fisher_task,2020.1.3,MacIntel,60,0.141941964,-0.321755952,1,0,0,3.23116,scale,,,,,,0.1234,0.1,0.3702,0.3,stimuli/lakes/106080_left.png,stimuli/lakes/106080_right.png,,,,0,117,117,80,1,,,,,
,,,,,,$5485347437,2020-07-08_15h54.02.138,fisher_task,2020.1.3,MacIntel,60,0.145193452,-0.357749256,1,0,0,2.983395,scale,,,,,,0.21373507,0.173205081,0.326485712,0.264575131,stimuli/lakes/305062_left.png,stimuli/lakes/305062_right.png,,,,0,118,118,62,1,,,,,
,,,,,,$5485347437,2020-07-08_15h54.02.138,fisher_task,2020.1.3,MacIntel,60,-0.155186012,-0.408519345,1,0,0,1.06556,scale,,,,,,0.326485712,0.264575131,0.21373507,0.173205081,stimuli/lakes/7080116_left.png,stimuli/lakes/7080116_right.png,,,,0,119,119,116,1,,,,,
,,,,,,$5485347437,2020-07-08_15h54.02.138,fisher_task,2020.1.3,MacIntel,60,-0.157938988,-0.392827381,1,0,0,1.315725,scale,,,,,,0.302267034,0.244948974,0.2468,0.2,stimuli/lakes/607094_left.png,stimuli/lakes/607094_right.png,,,,0,120,120,94,1,,,,,
,,,,,,$5485347437,2020-07-08_15h54.02.138,fisher_task,2020.1.3,MacIntel,60,-0.156510417,-0.424713542,1,0,0,1.350455,scale,,,,,,0.326485712,0.264575131,0.21373507,0.173205081,stimuli/lakes/7080117_left.png,stimuli/lakes/7080117_right.png,,,,0,121,121,117,1,,,,,
,,,,,,$5485347437,2020-07-08_15h54.02.138,fisher_task,2020.1.3,MacIntel,60,0.009200149,-0.24952381,1,0,0,2.05733,scale,,,,,,0.1234,0.1,0.3702,0.3,stimuli/lakes/1080107_left.png,stimuli/lakes/1080107_right.png,,,,0,122,122,107,1,,,,,
,,,,,,$5485347437,2020-07-08_15h54.02.138,fisher_task,2020.1.3,MacIntel,60,-0.001994048,-0.281045387,1,0,0,2.18286,scale,,,,,,0.349027907,0.282842712,0.174513954,0.141421356,stimuli/lakes/803039_left.png,stimuli/lakes/803039_right.png,,,,0,123,123,39,1,,,,,
,,,,,,$5485347437,2020-07-08_15h54.02.138,fisher_task,2020.1.3,MacIntel,60,0.1421875,-0.334813988,1,0,0,2.683265,scale,,,,,,0.302267034,0.244948974,0.2468,0.2,stimuli/lakes/60105_left.png,stimuli/lakes/60105_right.png,,,,0,124,124,5,1,,,,,
,,,,,,$5485347437,2020-07-08_15h54.02.138,fisher_task,2020.1.3,MacIntel,60,-0.143031994,-0.423943452,1,0,0,1.243915,scale,,,,,,0.349027907,0.282842712,0.174513954,0.141421356,stimuli/lakes/8080118_left.png,stimuli/lakes/8080118_right.png,,,,0,125,125,118,1,,,,,
,,,,,,$5485347437,2020-07-08_15h54.02.138,fisher_task,2020.1.3,MacIntel,60,0.13765625,-0.315747768,1,0,0,2.32365,scale,,,,,,0.302267034,0.244948974,0.2468,0.2,stimuli/lakes/602017_left.png,stimuli/lakes/602017_right.png,,,,0,126,126,17,1,,,,,
,,,,,,$5485347437,2020-07-08_15h54.02.138,fisher_task,2020.1.3,MacIntel,60,-0.000505952,-0.279144345,1,0,0,2.96593,scale,,,,,,0.1234,0.1,0.3702,0.3,stimuli/lakes/107098_left.png,stimuli/lakes/107098_right.png,,,,0,127,127,98,1,,,,,
,,,,,,$5485347437,2020-07-08_15h54.02.138,fisher_task,2020.1.3,MacIntel,60,0.144162946,-0.359665179,1,0,0,1.65996,scale,,,,,,0.275930788,0.223606798,0.275930788,0.223606798,stimuli/lakes/503027_left.png,stimuli/lakes/503027_right.png,,,,0,128,128,27,1,,,,,
,,,,,,$5485347437,2020-07-08_15h54.02.138,fisher_task,2020.1.3,MacIntel,60,0.154348958,-0.431201637,1,0,0,0.98376,scale,,,,,,0.21373507,0.173205081,0.326485712,0.264575131,stimuli/lakes/30100_left.png,stimuli/lakes/30100_right.png,,,,0,129,129,0,1,,,,,
,,,,,,$5485347437,2020-07-08_15h54.02.138,fisher_task,2020.1.3,MacIntel,60,,,,,,,,,,,,,,,,,,,,,,,,,,,,space,21.67602,space,36.62914
